{
  "resourceType": "Bundle",
  "type": "batch",
  "timestamp": "2016-03-09T21:02:05+05:30",
  "identifier": {
      "value": "TC14IG030107AA"
  },
  "id": "65e80ae9-58dc-500c-8ad4-ab62c0bb6898",
  "entry": [
      {
          "fullUrl": "urn:uuid:f651f710-5269-afaa-f743-57b7a501b0c6",
          "resource": {
              "resourceType": "MessageHeader",
              "id": "f651f710-5269-afaa-f743-57b7a501b0c6",
              "source": {
                  "name": "MDHHS-DataHub",
                  "_endpoint": {
                      "extension": [
                          {
                              "url": "http://hl7.org/fhir/StructureDefinition/data-absent-reason",
                              "valueCode": "unknown"
                          }
                      ]
                  }
              },
              "destination": [
                  {
                      "name": "LAN",
                      "endpoint": "unknown",
                      "receiver": {
                          "reference": "Organization/d6043a57-a50e-abc1-6fcf-96fff9d1bfb0"
                      }
                  }
              ],
              "meta": {
                  "tag": [
                      {
                          "code": "T",
                          "system": "http://terminology.hl7.org/CodeSystem/v2-0103"
                      }
                  ]
              },
              "eventCoding": {
                  "code": "O21",
                  "system": "http://terminology.hl7.org/CodeSystem/v2-0003",
                  "display": "OML^O21^OML_O21"
              },
              "sender": {
                  "reference": "Organization/3ec1a91c-4720-6f8c-d861-4fa35aff66a7"
              }
          },
          "request": {
              "method": "PUT",
              "url": "MessageHeader/f651f710-5269-afaa-f743-57b7a501b0c6"
          }
      },
      {
          "fullUrl": "urn:uuid:2f0f2d7d-7f93-e624-fa21-11d1c490897f",
          "resource": {
              "resourceType": "Provenance",
              "id": "2f0f2d7d-7f93-e624-fa21-11d1c490897f",
              "text": {
                  "status": "generated",
                  "div": "<div xmlns=\"http://www.w3.org/1999/xhtml\"><p><span>Resource bundle generated on 2022-03-28T08:56:42.431Z using Microsoft FHIR Converter.</span><span>Template Version: TEMPLATE_VERSION_PLACEHOLDER.</span><span>Template URL: https://github.com/microsoft/FHIR-Converter/releases/download/vTEMPLATE_VERSION_PLACEHOLDER/Hl7v2DefaultTemplates.tar.gz.</span><span>Root template: OML_O21.</span></p></div>"
              },
              "occurredDateTime": "2016-03-09T21:02:05+05:30",
              "recorded": "2016-03-09T21:02:05+05:30",
              "agent": [
                  {
                      "type": {
                          "coding": [
                              {
                                  "code": "author",
                                  "system": "http://terminology.hl7.org/CodeSystem/provenance-participant-type"
                              }
                          ]
                      },
                      "who": {
                          "reference": "Organization/3ec1a91c-4720-6f8c-d861-4fa35aff66a7"
                      }
                  }
              ],
              "activity": {
                  "coding": [
                      {
                          "display": "OML^O21^OML_O21"
                      }
                  ]
              },
              "target": [
                  {
                      "reference": "Bundle/65e80ae9-58dc-500c-8ad4-ab62c0bb6898"
                  }
              ]
          },
          "request": {
              "method": "PUT",
              "url": "Provenance/2f0f2d7d-7f93-e624-fa21-11d1c490897f"
          }
      },
      {
          "fullUrl": "urn:uuid:3ec1a91c-4720-6f8c-d861-4fa35aff66a7",
          "resource": {
              "resourceType": "Organization",
              "id": "3ec1a91c-4720-6f8c-d861-4fa35aff66a7",
              "identifier": [
                  {
                      "value": "MDHHS",
                      "system": "http://example.com/v2-to-fhir-converter/Identifier/MDHHS"
                  }
              ]
          },
          "request": {
              "method": "PUT",
              "url": "Organization/3ec1a91c-4720-6f8c-d861-4fa35aff66a7"
          }
      },
      {
          "fullUrl": "urn:uuid:d6043a57-a50e-abc1-6fcf-96fff9d1bfb0",
          "resource": {
              "resourceType": "Organization",
              "id": "d6043a57-a50e-abc1-6fcf-96fff9d1bfb0",
              "identifier": [
                  {
                      "value": "MDHHS",
                      "system": "http://example.com/v2-to-fhir-converter/Identifier/MDHHS"
                  },
                  {
                      "value": "urn:oid:2.16.840.1.114222.4.3.2.2.3.161.1",
                      "system": "urn:ietf:rfc:3986",
                      "type": {
                          "coding": [
                              {
                                  "code": "ISO",
                                  "display": "An International Standards Organization Object Identifier (OID), in accordance with ISO/IEC 8824. Formatted as decimal digits separated by periods; recommended limit of 64 characters",
                                  "system": "http://terminology.hl7.org/CodeSystem/v2-0301"
                              }
                          ]
                      }
                  }
              ]
          },
          "request": {
              "method": "PUT",
              "url": "Organization/d6043a57-a50e-abc1-6fcf-96fff9d1bfb0"
          }
      },
      {
          "fullUrl": "urn:uuid:daed9284-6d12-ca12-4260-9aad09e1f201",
          "resource": {
              "resourceType": "Patient",
              "id": "daed9284-6d12-ca12-4260-9aad09e1f201",
              "identifier": [
                  {
                      "value": "MRNTC14"
                  }
              ],
              "name": [
                  {
                      "family": "Old",
                      "given": [
                          "Baby Girl"
                      ],
                      "use": "official"
                  }
              ],
              "birthDate": "2016-02-23",
              "_birthDate": {
                  "extension": [
                      {
                          "url": "http://hl7.org/fhir/StructureDefinition/patient-birthTime",
                          "valueDateTime": "2016-02-23T16:57:05+05:30"
                      }
                  ]
              },
              "gender": "female",
              "address": [
                  {
                      "line": [
                          "123 Main Street",
                          "Apartment 3-C"
                      ],
                      "city": "Oldtown",
                      "state": "MI",
                      "postalCode": "48917",
                      "country": "USA",
                      "use": "home"
                  }
              ],
              "telecom": [
                  {
                      "use": "home",
                      "system": "phone"
                  },
                  {
                      "use": "work",
                      "system": "phone"
                  }
              ],
              "deceasedBoolean": false,
              "extension": [
                  {
                      "url": "http://hl7.org/fhir/us/core/StructureDefinition/us-core-race",
                      "extension": [
                          {
                              "url": "ombCategory",
                              "valueCoding": {
                                  "code": "2106-3",
                                  "display": "White",
                                  "system": "urn:oid:2.16.840.1.113883.6.238"
                              }
                          },
                          {
                              "url": "text",
                              "valueString": "White"
                          }
                      ]
                  },
                  {
                      "url": "http://hl7.org/fhir/StructureDefinition/patient-mothersMaidenName",
                      "valueString": "Shonal"
                  },
                  {
                      "url": "http://hl7.org/fhir/us/core/StructureDefinition/us-core-ethnicity",
                      "extension": [
                          {
                              "url": "ombCategory",
                              "valueCoding": {
                                  "code": "2186-5",
                                  "display": "Non Hispanic or Latino",
                                  "system": "urn:oid:2.16.840.1.113883.6.238"
                              }
                          },
                          {
                              "url": "text",
                              "valueString": "Non Hispanic or Latino"
                          }
                      ]
                  }
              ],
              "generalPractitioner": [
                  {
                      "reference": "PractitionerRole/6f910e0e-19e4-4de8-a915-1e93a6d5ae35"
                  },
                  {
                      "reference": "PractitionerRole/804c0420-f7b6-c084-1bb9-82a1b37452a7"
                  },
                  {
                      "reference": "PractitionerRole/77770f1e-4428-757c-fa9d-9a95200c9564"
                  },
                  {
                      "reference": "PractitionerRole/d79794f1-c9bb-510f-d57b-254b4858c327"
                  },
                  {
                      "reference": "PractitionerRole/66f87495-aa9f-8e3e-1eff-470789ec5363"
                  }
              ]
          },
          "request": {
              "method": "PUT",
              "url": "Patient/daed9284-6d12-ca12-4260-9aad09e1f201"
          }
      },
      {
          "fullUrl": "urn:uuid:0c8a9af0-2231-f818-ed7c-40bdb2aea2d1",
          "resource": {
              "resourceType": "Organization",
              "id": "0c8a9af0-2231-f818-ed7c-40bdb2aea2d1",
              "name": "Walmart"
          },
          "request": {
              "method": "PUT",
              "url": "Organization/0c8a9af0-2231-f818-ed7c-40bdb2aea2d1"
          }
      },
      {
          "fullUrl": "urn:uuid:2a2e4b87-f7cb-9731-bd5a-fa9bc1dc854a",
          "resource": {
              "resourceType": "Account",
              "id": "2a2e4b87-f7cb-9731-bd5a-fa9bc1dc854a",
              "status": "active",
              "guarantor": [
                  {
                      "party": {
                          "reference": "Organization/0c8a9af0-2231-f818-ed7c-40bdb2aea2d1"
                      }
                  }
              ],
              "subject": [
                  {
                      "reference": "Patient/daed9284-6d12-ca12-4260-9aad09e1f201"
                  }
              ]
          },
          "request": {
              "method": "PUT",
              "url": "Account/2a2e4b87-f7cb-9731-bd5a-fa9bc1dc854a"
          }
      },
      {
          "fullUrl": "urn:uuid:6f910e0e-19e4-4de8-a915-1e93a6d5ae35",
          "resource": {
              "resourceType": "PractitionerRole",
              "id": "6f910e0e-19e4-4de8-a915-1e93a6d5ae35",
              "code": [
                  {
                      "coding": [
                          {
                              "code": "RCT",
                              "display": "Results Copies To",
                              "system": "http://terminology.hl7.org/CodeSystem/v2-0443"
                          }
                      ]
                  }
              ],
              "practitioner": {
                  "reference": "Practitioner/c7c0beb9-29bf-64ec-8577-13f2758d62a3"
              }
          },
          "request": {
              "method": "PUT",
              "url": "PractitionerRole/6f910e0e-19e4-4de8-a915-1e93a6d5ae35"
          }
      },
      {
          "fullUrl": "urn:uuid:c7c0beb9-29bf-64ec-8577-13f2758d62a3",
          "resource": {
              "resourceType": "Practitioner",
              "id": "c7c0beb9-29bf-64ec-8577-13f2758d62a3",
              "identifier": [
                  {
                      "value": "8175000004",
                      "system": "http://example.com/v2-to-fhir-converter/Identifier/StarLIMS"
                  }
              ]
          },
          "request": {
              "method": "PUT",
              "url": "Practitioner/c7c0beb9-29bf-64ec-8577-13f2758d62a3"
          }
      },
      {
          "fullUrl": "urn:uuid:804c0420-f7b6-c084-1bb9-82a1b37452a7",
          "resource": {
              "resourceType": "PractitionerRole",
              "id": "804c0420-f7b6-c084-1bb9-82a1b37452a7",
              "code": [
                  {
                      "coding": [
                          {
                              "code": "RCT",
                              "display": "Results Copies To",
                              "system": "http://terminology.hl7.org/CodeSystem/v2-0443"
                          }
                      ]
                  }
              ],
              "practitioner": {
                  "reference": "Practitioner/029ceabd-ae7b-2d10-ed98-0aa344f6711d"
              }
          },
          "request": {
              "method": "PUT",
              "url": "PractitionerRole/804c0420-f7b6-c084-1bb9-82a1b37452a7"
          }
      },
      {
          "fullUrl": "urn:uuid:029ceabd-ae7b-2d10-ed98-0aa344f6711d",
          "resource": {
              "resourceType": "Practitioner",
              "id": "029ceabd-ae7b-2d10-ed98-0aa344f6711d",
              "identifier": [
                  {
                      "value": "8175000005",
                      "system": "http://example.com/v2-to-fhir-converter/Identifier/StarLIMS"
                  }
              ]
          },
          "request": {
              "method": "PUT",
              "url": "Practitioner/029ceabd-ae7b-2d10-ed98-0aa344f6711d"
          }
      },
      {
          "fullUrl": "urn:uuid:77770f1e-4428-757c-fa9d-9a95200c9564",
          "resource": {
              "resourceType": "PractitionerRole",
              "id": "77770f1e-4428-757c-fa9d-9a95200c9564",
              "code": [
                  {
                      "coding": [
                          {
                              "code": "RCT",
                              "display": "Results Copies To",
                              "system": "http://terminology.hl7.org/CodeSystem/v2-0443"
                          }
                      ]
                  }
              ],
              "practitioner": {
                  "reference": "Practitioner/e31641c7-04dd-56f8-c066-3e1e62006ff2"
              }
          },
          "request": {
              "method": "PUT",
              "url": "PractitionerRole/77770f1e-4428-757c-fa9d-9a95200c9564"
          }
      },
      {
          "fullUrl": "urn:uuid:e31641c7-04dd-56f8-c066-3e1e62006ff2",
          "resource": {
              "resourceType": "Practitioner",
              "id": "e31641c7-04dd-56f8-c066-3e1e62006ff2",
              "identifier": [
                  {
                      "value": "8175000007",
                      "system": "http://example.com/v2-to-fhir-converter/Identifier/StarLIMS"
                  }
              ]
          },
          "request": {
              "method": "PUT",
              "url": "Practitioner/e31641c7-04dd-56f8-c066-3e1e62006ff2"
          }
      },
      {
          "fullUrl": "urn:uuid:d79794f1-c9bb-510f-d57b-254b4858c327",
          "resource": {
              "resourceType": "PractitionerRole",
              "id": "d79794f1-c9bb-510f-d57b-254b4858c327",
              "code": [
                  {
                      "coding": [
                          {
                              "code": "RCT",
                              "display": "Results Copies To",
                              "system": "http://terminology.hl7.org/CodeSystem/v2-0443"
                          }
                      ]
                  }
              ],
              "practitioner": {
                  "reference": "Practitioner/4aba7aea-e172-4aaa-9e62-04de3fe634da"
              }
          },
          "request": {
              "method": "PUT",
              "url": "PractitionerRole/d79794f1-c9bb-510f-d57b-254b4858c327"
          }
      },
      {
          "fullUrl": "urn:uuid:4aba7aea-e172-4aaa-9e62-04de3fe634da",
          "resource": {
              "resourceType": "Practitioner",
              "id": "4aba7aea-e172-4aaa-9e62-04de3fe634da",
              "identifier": [
                  {
                      "value": "8175000010",
                      "system": "http://example.com/v2-to-fhir-converter/Identifier/StarLIMS"
                  }
              ]
          },
          "request": {
              "method": "PUT",
              "url": "Practitioner/4aba7aea-e172-4aaa-9e62-04de3fe634da"
          }
      },
      {
          "fullUrl": "urn:uuid:66f87495-aa9f-8e3e-1eff-470789ec5363",
          "resource": {
              "resourceType": "PractitionerRole",
              "id": "66f87495-aa9f-8e3e-1eff-470789ec5363",
              "code": [
                  {
                      "coding": [
                          {
                              "code": "RCT",
                              "display": "Results Copies To",
                              "system": "http://terminology.hl7.org/CodeSystem/v2-0443"
                          }
                      ]
                  }
              ],
              "practitioner": {
                  "reference": "Practitioner/da9542cc-da2c-0072-60bc-b658adf8c84a"
              }
          },
          "request": {
              "method": "PUT",
              "url": "PractitionerRole/66f87495-aa9f-8e3e-1eff-470789ec5363"
          }
      },
      {
          "fullUrl": "urn:uuid:da9542cc-da2c-0072-60bc-b658adf8c84a",
          "resource": {
              "resourceType": "Practitioner",
              "id": "da9542cc-da2c-0072-60bc-b658adf8c84a",
              "identifier": [
                  {
                      "value": "8175000013",
                      "system": "http://example.com/v2-to-fhir-converter/Identifier/StarLIMS"
                  }
              ]
          },
          "request": {
              "method": "PUT",
              "url": "Practitioner/da9542cc-da2c-0072-60bc-b658adf8c84a"
          }
      },
      {
          "fullUrl": "urn:uuid:2839c7cc-58ca-f08d-1358-a15fa18660d3",
          "resource": {
              "resourceType": "Coverage",
              "id": "2839c7cc-58ca-f08d-1358-a15fa18660d3",
              "class": [
                  {
                      "value": "NA",
                      "type": {
                          "coding": [
                              {
                                  "system": "http://terminology.hl7.org/CodeSystem/coverage-class",
                                  "code": "plan",
                                  "display": "Plan"
                              }
                          ]
                      }
                  },
                  {
                      "value": "FR080901",
                      "type": {
                          "coding": [
                              {
                                  "system": "http://terminology.hl7.org/CodeSystem/coverage-class",
                                  "code": "group",
                                  "display": "Group"
                              }
                          ]
                      }
                  }
              ],
              "period": {
                  "end": "2017-10-08T01:34:05+05:30"
              },
              "identifier": [
                  {
                      "value": "TC05SA",
                      "type": {
                          "coding": [
                              {
                                  "code": "PLN",
                                  "display": "Policy Number",
                                  "system": "http://example.com/CodeSystem/additional-identifier"
                              }
                          ]
                      },
                      "system": "http://example.com/v2-to-fhir-converter/Identifier/policy-id"
                  }
              ],
              "status": "active",
              "beneficiary": {
                  "reference": "Patient/daed9284-6d12-ca12-4260-9aad09e1f201"
              },
              "payor": [
                  {
                      "reference": "Organization/c30aa783-68cc-9ce0-504f-9e4b50183350"
                  }
              ],
              "policyHolder": {
                  "reference": "Organization/0c8a9af0-2231-f818-ed7c-40bdb2aea2d1"
              },
              "subscriber": {
                  "reference": "RelatedPerson/ff1b880e-468e-7a2f-41cb-8b6e204901f3"
              }
          },
          "request": {
              "method": "PUT",
              "url": "Coverage/2839c7cc-58ca-f08d-1358-a15fa18660d3"
          }
      },
      {
          "fullUrl": "urn:uuid:c30aa783-68cc-9ce0-504f-9e4b50183350",
          "resource": {
              "resourceType": "Organization",
              "id": "c30aa783-68cc-9ce0-504f-9e4b50183350",
              "address": [
                  {
                      "line": [
                          "30555"
                      ],
                      "city": "Lansing",
                      "state": "MI",
                      "postalCode": "48933"
                  }
              ],
              "identifier": [
                  {
                      "value": "LHC"
                  }
              ],
              "name": "Lansing Health Care"
          },
          "request": {
              "method": "PUT",
              "url": "Organization/c30aa783-68cc-9ce0-504f-9e4b50183350"
          }
      },
      {
          "fullUrl": "urn:uuid:ff1b880e-468e-7a2f-41cb-8b6e204901f3",
          "resource": {
              "resourceType": "RelatedPerson",
              "id": "ff1b880e-468e-7a2f-41cb-8b6e204901f3",
              "relationship": [
                  {
                      "coding": [
                          {
                              "code": "CHILD",
                              "display": "child",
                              "system": "http://terminology.hl7.org/CodeSystem/v3-RoleCode"
                          }
                      ]
                  }
              ],
              "address": [
                  {
                      "line": [
                          "123 Main Street",
                          "Apartment 3-C"
                      ],
                      "city": "Oldtown",
                      "state": "MI",
                      "postalCode": "48917",
                      "country": "USA"
                  }
              ],
              "name": [
                  {
                      "family": "Shonal",
                      "given": [
                          "Old"
                      ]
                  }
              ],
              "birthDate": "1975-06-27",
              "patient": {
                  "reference": "Patient/daed9284-6d12-ca12-4260-9aad09e1f201"
              }
          },
          "request": {
              "method": "PUT",
              "url": "RelatedPerson/ff1b880e-468e-7a2f-41cb-8b6e204901f3"
          }
      },
      {
          "fullUrl": "urn:uuid:c0150cb3-0fdf-5809-54b6-8e3f186a90d7",
          "resource": {
              "resourceType": "ServiceRequest",
              "id": "c0150cb3-0fdf-5809-54b6-8e3f186a90d7",
              "status": "unknown",
              "intent": "order",
              "identifier": [
                  {
                      "value": "ORD723222",
                      "system": "urn:oid:2.16.840.1.113883.3.72.5.24",
                      "type": {
                          "coding": [
                              {
                                  "code": "PLAC",
                                  "system": "http://terminology.hl7.org/CodeSystem/v2-0203"
                              }
                          ]
                      }
                  },
                  {
                      "value": "R-783274",
                      "system": "urn:oid:2.16.840.1.113883.3.72.5.25",
                      "type": {
                          "coding": [
                              {
                                  "code": "FILL",
                                  "system": "http://terminology.hl7.org/CodeSystem/v2-0203"
                              }
                          ]
                      }
                  },
                  {
                      "value": "GORD874211",
                      "system": "urn:oid:2.16.840.1.113883.3.72.5.24",
                      "type": {
                          "coding": [
                              {
                                  "code": "PGN",
                                  "system": "http://terminology.hl7.org/CodeSystem/v2-0203"
                              }
                          ]
                      }
                  }
              ],
              "authoredOn": "2016-02-23T20:07:05+05:30",
              "code": {
                  "coding": [
                      {
                          "code": "1320",
                          "display": "HIV Ag/Ab - Serum",
                          "system": "http://example.com/v2-to-fhir-converter/CodeSystem/L"
                      }
                  ]
              },
              "subject": {
                  "reference": "Patient/daed9284-6d12-ca12-4260-9aad09e1f201"
              },
              "supportingInfo": [
                  {
                      "reference": "PractitionerRole/6f910e0e-19e4-4de8-a915-1e93a6d5ae35"
                  },
                  {
                      "reference": "PractitionerRole/804c0420-f7b6-c084-1bb9-82a1b37452a7"
                  },
                  {
                      "reference": "PractitionerRole/77770f1e-4428-757c-fa9d-9a95200c9564"
                  },
                  {
                      "reference": "PractitionerRole/d79794f1-c9bb-510f-d57b-254b4858c327"
                  },
                  {
                      "reference": "PractitionerRole/66f87495-aa9f-8e3e-1eff-470789ec5363"
                  }
              ],
              "requester": {
                  "reference": "PractitionerRole/9996be7d-26c8-997e-2f57-9ce40fe59181"
              },
              "specimen": [
                  {
                      "reference": "Specimen/29fb3250-9864-4dad-e590-4126768684d4"
                  }
              ],
              "note": [
                  {
                      "text": "the sky is blue"
                  }
              ],
              "occurrenceDateTime": "2016-02-23T20:17:05+05:30"
          },
          "request": {
              "method": "PUT",
              "url": "ServiceRequest/c0150cb3-0fdf-5809-54b6-8e3f186a90d7"
          }
      },
      {
          "fullUrl": "urn:uuid:c9463523-7143-2510-6861-24e4a2703f22",
          "resource": {
              "resourceType": "Organization",
              "id": "c9463523-7143-2510-6861-24e4a2703f22",
              "name": "Detroit City Hospital",
              "identifier": [
                  {
                      "value": "8175000005"
                  }
              ],
              "address": [
                  {
                      "line": [
                          "2405 Garden St"
                      ],
                      "city": "Detroit",
                      "state": "MI",
                      "postalCode": "48201",
                      "country": "USA"
                  }
              ],
              "contact": [
                  {
                      "telecom": [
                          {
                              "use": "work",
                              "system": "phone"
                          }
                      ]
                  }
              ]
          },
          "request": {
              "method": "PUT",
              "url": "Organization/c9463523-7143-2510-6861-24e4a2703f22"
          }
      },
      {
          "fullUrl": "urn:uuid:0ac4aa7e-de74-bd40-3b64-97a1c0f3a414",
          "resource": {
              "resourceType": "Practitioner",
              "id": "0ac4aa7e-de74-bd40-3b64-97a1c0f3a414",
              "identifier": [
                  {
                      "value": "8075000001",
                      "system": "http://example.com/v2-to-fhir-converter/Identifier/NPI"
                  }
              ],
              "name": [
                  {
                      "family": "Smiles",
                      "given": [
                          "Minnie"
                      ],
                      "suffix": [
                          "DR"
                      ]
                  }
              ]
          },
          "request": {
              "method": "PUT",
              "url": "Practitioner/0ac4aa7e-de74-bd40-3b64-97a1c0f3a414"
          }
      },
      {
          "fullUrl": "urn:uuid:9996be7d-26c8-997e-2f57-9ce40fe59181",
          "resource": {
              "resourceType": "PractitionerRole",
              "id": "9996be7d-26c8-997e-2f57-9ce40fe59181",
              "code": [
                  {
                      "coding": [
                          {
                              "code": "OP",
                              "display": "Ordering Provider",
                              "system": "http://terminology.hl7.org/CodeSystem/v2-0443"
                          }
                      ]
                  }
              ],
              "organization": {
                  "reference": "Organization/c9463523-7143-2510-6861-24e4a2703f22"
              },
              "practitioner": {
                  "reference": "Practitioner/0ac4aa7e-de74-bd40-3b64-97a1c0f3a414"
              }
          },
          "request": {
              "method": "PUT",
              "url": "PractitionerRole/9996be7d-26c8-997e-2f57-9ce40fe59181"
          }
      },
      {
          "fullUrl": "urn:uuid:29fb3250-9864-4dad-e590-4126768684d4",
          "resource": {
              "resourceType": "Specimen",
              "id": "29fb3250-9864-4dad-e590-4126768684d4",
              "identifier": [
                  {
                      "value": "ORD723222",
                      "system": "urn:oid:2.16.840.1.113883.3.72.5.24",
                      "type": {
                          "coding": [
                              {
                                  "code": "PLAC",
                                  "system": "http://terminology.hl7.org/CodeSystem/v2-0203"
                              }
                          ]
                      }
                  },
                  {
                      "value": "R-783274",
                      "system": "urn:oid:2.16.840.1.113883.3.72.5.25",
                      "type": {
                          "coding": [
                              {
                                  "code": "FILL",
                                  "system": "http://terminology.hl7.org/CodeSystem/v2-0203"
                              }
                          ]
                      }
                  }
              ],
              "collection": {
                  "collectedPeriod": {
                      "start": "2016-03-08T21:02:05+05:30",
                      "end": "2016-03-08T21:02:05+05:30"
                  }
              },
              "request": [
                  {
                      "reference": "ServiceRequest/c0150cb3-0fdf-5809-54b6-8e3f186a90d7"
                  }
              ]
          },
          "request": {
              "method": "PUT",
              "url": "Specimen/29fb3250-9864-4dad-e590-4126768684d4"
          }
      },
      {
          "fullUrl": "urn:uuid:7fd7b81a-cae2-53b5-1d4c-b220a32a5695",
          "resource": {
              "resourceType": "Observation",
              "id": "7fd7b81a-cae2-53b5-1d4c-b220a32a5695",
              "status": "unknown",
              "code": {
                  "coding": [
                      {
                          "code": "AOE25",
                          "display": "Pregnancy",
                          "system": "http://example.com/v2-to-fhir-converter/CodeSystem/BOL_0002"
                      }
                  ]
              },
              "basedOn": [
                  {
                      "reference": "ServiceRequest/c0150cb3-0fdf-5809-54b6-8e3f186a90d7"
                  }
              ],
              "valueString": "NO",
              "effectiveDateTime": "2016-03-08T21:02:05+05:30",
              "subject": {
                  "reference": "Patient/daed9284-6d12-ca12-4260-9aad09e1f201"
              },
              "extension": [
                  {
                      "url": "http://example.com/v2-to-fhir-converter/Observation_Status",
                      "valueCodeableConcept": {
                          "coding": [
                              {
                                  "code": "O",
                                  "display": "Order Detail",
                                  "system": "http://terminology.hl7.org/CodeSystem/v2-0085"
                              }
                          ],
                          "text": "Order Detail"
                      }
                  }
              ]
          },
          "request": {
              "method": "PUT",
              "url": "Observation/7fd7b81a-cae2-53b5-1d4c-b220a32a5695"
          }
      },
      {
          "fullUrl": "urn:uuid:92af9b9a-bcfc-b6f6-ce19-bf5bc7b28707",
          "resource": {
              "resourceType": "Specimen",
              "id": "92af9b9a-bcfc-b6f6-ce19-bf5bc7b28707",
              "type": {
                  "coding": [
                      {
                          "code": "119339001",
                          "display": "Stool Specimen (Specimen)",
                          "system": "http://terminology.hl7.org/CodeSystem/v2-0487"
                      }
                  ]
              },
              "collection": {
                  "collectedDateTime": "2016-03-08T21:02:05+05:30"
              },
              "container": [
                  {
                      "additiveCodeableConcept": {
                          "coding": [
                              {
                                  "code": "NONE",
                                  "system": "http://terminology.hl7.org/CodeSystem/v2-0371"
                              }
                          ]
                      }
                  }
              ],
              "request": [
                  {
                      "reference": "ServiceRequest/c0150cb3-0fdf-5809-54b6-8e3f186a90d7"
                  }
              ]
          },
          "request": {
              "method": "PUT",
              "url": "Specimen/92af9b9a-bcfc-b6f6-ce19-bf5bc7b28707"
          }
      }
  ]
}