{
  "resourceType": "Bundle",
  "type": "batch",
  "entry": [
    {
      "fullUrl": "urn:uuid:3ec1a91c-4720-6f8c-d861-4fa35aff66a7",
      "resource": {
        "resourceType": "Organization",
        "id": "3ec1a91c-4720-6f8c-d861-4fa35aff66a7",
        "identifier": [
          {
            "value": "MDHHS"
          }
        ],
        "destination": [
          {
            "endpoint": "MDHHS"
          }
        ]
      },
      "request": {
        "method": "PUT",
        "url": "Organization/3ec1a91c-4720-6f8c-d861-4fa35aff66a7"
      }
    },
    {
      "fullUrl": "urn:uuid:d6043a57-a50e-abc1-6fcf-96fff9d1bfb0",
      "resource": {
        "resourceType": "Organization",
        "id": "d6043a57-a50e-abc1-6fcf-96fff9d1bfb0",
        "identifier": [
          {
            "value": "MDHHS"
          }
        ],
        "destination": [
          {
            "endpoint": "MDHHS"
          }
        ]
      },
      "request": {
        "method": "PUT",
        "url": "Organization/d6043a57-a50e-abc1-6fcf-96fff9d1bfb0"
      }
    },
    {
      "fullUrl": "urn:uuid:6eda7d2f-32f8-a6c7-5125-d59f65a25c97",
      "resource": {
        "resourceType": "MessageHeader",
        "id": "6eda7d2f-32f8-a6c7-5125-d59f65a25c97",
        "source": {
          "source": {
            "name": "MDHHSDataHub"
          }
        },
        "destination": [
          {
            "destination": [
              {
                "name": "LAN"
              }
            ],
            "receiver": {
              "reference": "Organization/d6043a57-a50e-abc1-6fcf-96fff9d1bfb0"
            }
          }
        ],
        "meta": {
          "tag": [
            {
              "meta": {
                "tag": [
                  {
                    "code": "T",
                    "system": "http://terminology.hl7.org/CodeSystem/v2-0103"
                  }
                ]
              }
            }
          ]
        },
        "sender": {
          "reference": "Organization/3ec1a91c-4720-6f8c-d861-4fa35aff66a7"
        }
      },
      "request": {
        "method": "PUT",
        "url": "MessageHeader/6eda7d2f-32f8-a6c7-5125-d59f65a25c97"
      }
    },
    {
      "fullUrl": "urn:uuid:97997f4d-5259-b974-5a44-1b7450c2f4ab",
      "resource": {
        "resourceType": "Patient",
        "id": "97997f4d-5259-b974-5a44-1b7450c2f4ab",
        "identifier": [
          {
            "value": "MRNTC09SA-Part A"
          }
        ],
        "name": [
          {
            "family": "Shine",
            "given": [
              "Baby Girl"
            ],
            "use": "official"
          }
        ],
        "birthDate": "2016-03-08",
        "gender": "female",
        "address": [
          {
            "line": [
              "123 Main Street",
              "Apartment 3-C"
            ],
            "city": "Oldtown",
            "state": "MI",
            "postalCode": "48917",
            "country": "USA",
            "use": "H"
          }
        ],
        "telecom": [
          {
            "use": "home"
          },
          {
            "use": "work"
          }
        ],
        "deceasedBoolean": "false"
      },
      "request": {
        "method": "PUT",
        "url": "Patient/97997f4d-5259-b974-5a44-1b7450c2f4ab"
      }
    },
    {
      "fullUrl": "urn:uuid:7bed24f6-d6fa-1218-ced1-b5d66ac0f024",
      "resource": {
        "resourceType": "Provenance",
        "id": "7bed24f6-d6fa-1218-ced1-b5d66ac0f024",
        "recorded": "2016-03-09T07:04:05+08:00"
      },
      "request": {
        "method": "PUT",
        "url": "Provenance/7bed24f6-d6fa-1218-ced1-b5d66ac0f024"
      }
    },
    {
      "fullUrl": "urn:uuid:d26a5004-0934-26f5-0201-4e302d6163c4",
      "resource": {
        "resourceType": "Account",
        "id": "d26a5004-0934-26f5-0201-4e302d6163c4"
      },
      "request": {
        "method": "PUT",
        "url": "Account/d26a5004-0934-26f5-0201-4e302d6163c4"
      }
    },
    {
      "fullUrl": "urn:uuid:39780c38-eef5-37af-195d-4a60184c0354",
      "resource": {
        "resourceType": "RelatedPerson",
        "id": "39780c38-eef5-37af-195d-4a60184c0354",
        "relationship": [
          {
            "coding": [
              {
                "code": "MTH",
                "display": "mother",
                "system": "http://terminology.hl7.org/CodeSystem/v3-RoleCode",
                "version": "MTH"
              }
            ]
          },
          {
            "coding": [
              {
                "code": "E",
                "display": "Employer",
                "system": "http://terminology.hl7.org/CodeSystem/v2-0131",
                "version": "E"
              }
            ]
          }
        ],
        "address": [
          {
            "line": [
              "123 Main Street",
              "Apartment 3-C"
            ],
            "city": "Oldtown",
            "state": "MI",
            "postalCode": "48917",
            "country": "USA"
          }
        ],
        "name": [
          {
            "family": "Shine",
            "given": [
              "Sarah"
            ]
          }
        ],
        "patient": {
          "reference": "Patient/97997f4d-5259-b974-5a44-1b7450c2f4ab"
        }
      },
      "request": {
        "method": "PUT",
        "url": "RelatedPerson/39780c38-eef5-37af-195d-4a60184c0354"
      }
    }
  ]
}