{
  "resourceType": "Bundle",
  "type": "transaction",
  "entry": [
    {
      "fullUrl": "urn:uuid:f651f710-5269-afaa-f743-57b7a501b0c6",
      "resource": {
        "resourceType": "MessageHeader",
        "id": "f651f710-5269-afaa-f743-57b7a501b0c6",
        "source": {
          "source": {
            "name": "MDHHS-DataHub"
          }
        },
        "destination": [
          {
            "destination": [
              {
                "name": "LAN"
              }
            ]
          }
        ],
        "meta": {
          "tag": [
            {
              "meta": {
                "tag": [
                  {
                    "code": "T",
                    "system": "http://terminology.hl7.org/CodeSystem/v2-0103"
                  }
                ]
              }
            }
          ]
        }
      },
      "request": {
        "method": "PUT",
        "url": "MessageHeader/f651f710-5269-afaa-f743-57b7a501b0c6"
      }
    },
    {
      "fullUrl": "urn:uuid:daed9284-6d12-ca12-4260-9aad09e1f201",
      "resource": {
        "resourceType": "Patient",
        "id": "daed9284-6d12-ca12-4260-9aad09e1f201",
        "identifier": [
          {
            "value": "MRNTC14"
          }
        ],
        "name": [
          {
            "family": "Old",
            "given": [
              "Baby Girl"
            ],
            "use": "official"
          }
        ],
        "birthDate": "2016-02-23",
        "gender": "female",
        "address": [
          {
            "line": [
              "123 Main Street",
              "Apartment 3-C"
            ],
            "city": "Oldtown",
            "state": "MI",
            "postalCode": "48917",
            "country": "USA"
          }
        ],
        "telecom": [
          {
            "use": "home"
          },
          {
            "use": "work"
          }
        ],
        "deceasedBoolean": "false"
      },
      "request": {
        "method": "PUT",
        "url": "Patient/daed9284-6d12-ca12-4260-9aad09e1f201"
      }
    },
    {
      "fullUrl": "urn:uuid:61b441c6-42f8-9350-e2f1-5d8b420d6745",
      "resource": {
        "resourceType": "Provenance",
        "id": "61b441c6-42f8-9350-e2f1-5d8b420d6745",
        "agent": [
          {
            "type": {
              "coding": [
                {
                  "code": "author",
                  "system": "http://terminology.hl7.org/CodeSystem/provenance-participant-type"
                }
              ]
            }
          }
        ],
        "recorded": "2016-02-23T22:37:05+08:00",
        "activity": {
          "coding": [
            {
              "code": "CREATE",
              "system": "http://terminology.hl7.org/CodeSystem/v3-DataOperation"
            }
          ]
        },
        "occurredDateTime": "2016-02-23T22:37:05+08:00"
      },
      "request": {
        "method": "PUT",
        "url": "Provenance/61b441c6-42f8-9350-e2f1-5d8b420d6745"
      }
    },
    {
      "fullUrl": "urn:uuid:6143ab70-4f28-7863-6edf-704abf375c8d",
      "resource": {
        "resourceType": "Account",
        "id": "6143ab70-4f28-7863-6edf-704abf375c8d"
      },
      "request": {
        "method": "PUT",
        "url": "Account/6143ab70-4f28-7863-6edf-704abf375c8d"
      }
    },
    {
      "fullUrl": "urn:uuid:d6043a57-a50e-abc1-6fcf-96fff9d1bfb0",
      "resource": {
        "resourceType": "Organization",
        "id": "d6043a57-a50e-abc1-6fcf-96fff9d1bfb0",
        "identifier": [
          {
            "value": "MDHHS"
          }
        ],
        "destination": [
          {
            "endpoint": "MDHHS"
          }
        ]
      },
      "request": {
        "method": "PUT",
        "url": "Organization/d6043a57-a50e-abc1-6fcf-96fff9d1bfb0"
      }
    },
    {
      "fullUrl": "urn:uuid:0f9b5688-7b42-3a39-344c-59b068f35f16",
      "resource": {
        "resourceType": "RelatedPerson",
        "id": "0f9b5688-7b42-3a39-344c-59b068f35f16",
        "relationship": [
          {
            "coding": [
              {
                "code": "MTH",
                "display": "mother",
                "system": "http://terminology.hl7.org/CodeSystem/v3-RoleCode"
              }
            ]
          },
          {
            "coding": [
              {
                "code": "E",
                "display": "Employer",
                "system": "http://terminology.hl7.org/CodeSystem/v2-0131"
              }
            ]
          }
        ],
        "patient": {
          "reference": "Patient/daed9284-6d12-ca12-4260-9aad09e1f201"
        }
      },
      "request": {
        "method": "PUT",
        "url": "RelatedPerson/0f9b5688-7b42-3a39-344c-59b068f35f16"
      }
    },
    {
      "fullUrl": "urn:uuid:bafe469c-5cc7-f800-feae-81b33cf36940",
      "resource": {
        "resourceType": "ServiceRequest",
        "id": "bafe469c-5cc7-f800-feae-81b33cf36940",
        "intent": "order",
        "identifier": [
          {
            "value": "ORD723222",
            "type": {
              "coding": [
                {
                  "code": "PLAC",
                  "system": "http://terminology.hl7.org/CodeSystem/v2-0203"
                }
              ]
            }
          },
          {
            "value": "R783274",
            "type": {
              "coding": [
                {
                  "code": "FILL",
                  "system": "http://terminology.hl7.org/CodeSystem/v2-0203"
                }
              ]
            }
          },
          {
            "value": "GORD874211",
            "type": {
              "coding": [
                {
                  "code": "PGN",
                  "system": "http://terminology.hl7.org/CodeSystem/v2-0203"
                }
              ]
            }
          },
          {
            "type": {
              "coding": [
                {
                  "code": "FILL",
                  "system": "http://terminology.hl7.org/CodeSystem/v2-0203"
                }
              ]
            }
          },
          {
            "value": "ORD723222"
          },
          {
            "value": "R-783274"
          }
        ],
        "authoredOn": "2016-02-23T22:37:05+08:00",
        "occurrenceDateTime": "2016-02-23T22:47:05+08:00",
        "code": {
          "coding": [
            {
              "code": "1320",
              "display": "HIV Ag/Ab - Serum",
              "system": "L"
            },
            {
              "code": "1680",
              "display": "Syphilis (USR test)(1)",
              "system": "L"
            }
          ]
        },
        "reasonCode": [
          {
            "coding": [
              {
                "code": "RFS01",
                "display": "Diagnosis",
                "system": "BOL_0001"
              }
            ]
          }
        ],
        "subject": {
          "reference": "Patient/daed9284-6d12-ca12-4260-9aad09e1f201"
        },
        "supportingInfo": [
          {
            "reference": "Observation/c55789d4-78ae-5836-21d4-48191c4763a7"
          }
        ],
        "specimen": [
          {
            "reference": "Specimen/92af9b9a-bcfc-b6f6-ce19-bf5bc7b28707"
          }
        ]
      },
      "request": {
        "method": "PUT",
        "url": "ServiceRequest/bafe469c-5cc7-f800-feae-81b33cf36940"
      }
    },
    {
      "fullUrl": "urn:uuid:c55789d4-78ae-5836-21d4-48191c4763a7",
      "resource": {
        "resourceType": "Observation",
        "id": "c55789d4-78ae-5836-21d4-48191c4763a7",
        "code": {
          "coding": [
            {
              "code": "AOE25",
              "display": "Pregnancy",
              "system": "BOL_0002"
            }
          ]
        },
        "valueString": "NO",
        "effectiveDateTime": "2016-03-08T23:32:05+08:00",
        "component": [
          {
            "code": {
              "coding": [
                {
                  "code": "AOE25",
                  "display": "Pregnancy",
                  "system": "BOL_0002"
                }
              ]
            },
            "valueString": "NO"
          }
        ],
        "subject": {
          "reference": "Patient/daed9284-6d12-ca12-4260-9aad09e1f201"
        }
      },
      "request": {
        "method": "PUT",
        "url": "Observation/c55789d4-78ae-5836-21d4-48191c4763a7"
      }
    },
    {
      "fullUrl": "urn:uuid:92af9b9a-bcfc-b6f6-ce19-bf5bc7b28707",
      "resource": {
        "resourceType": "Specimen",
        "id": "92af9b9a-bcfc-b6f6-ce19-bf5bc7b28707",
        "type": {
          "coding": [
            {
              "code": "119339001",
              "display": "Stool Specimen (Specimen)",
              "system": "SCT"
            }
          ]
        },
        "container": [
          {
            "additiveCodeableConcept": {
              "coding": [
                {
                  "code": "NONE"
                }
              ]
            }
          }
        ],
        "collection": {
          "collectedDateTime": "2016-03-08T23:32:05+08:00"
        }
      },
      "request": {
        "method": "PUT",
        "url": "Specimen/92af9b9a-bcfc-b6f6-ce19-bf5bc7b28707"
      }
    }
  ]
}