{
  "resourceType": "Bundle",
  "type": "transaction",
  "entry": [
    {
      "fullUrl": "urn:uuid:030e96ff-e5d3-33ce-b155-4b2bc0572f05",
      "resource": {
        "resourceType": "Patient",
        "id": "030e96ff-e5d3-33ce-b155-4b2bc0572f05",
        "identifier": [
          {
            "value": "MRNTC14"
          }
        ],
        "name": [
          {
            "family": "Old",
            "given": [
              "Baby Girl"
            ],
            "use": "official"
          }
        ],
        "birthDate": "2016-02-23",
        "gender": "female",
        "address": [
          {
            "line": [
              "123 Main Street",
              "Apartment 3-C"
            ],
            "city": "Oldtown",
            "state": "MI",
            "postalCode": "48917",
            "country": "USA"
          }
        ],
        "telecom": [
          {
            "use": "home"
          },
          {
            "use": "work"
          }
        ],
        "deceasedBoolean": "false"
      },
      "request": {
        "method": "PUT",
        "url": "Patient/030e96ff-e5d3-33ce-b155-4b2bc0572f05"
      }
    },
    {
      "fullUrl": "urn:uuid:409807db-28e0-3f0a-8601-5f43a4563d60",
      "resource": {
        "resourceType": "RelatedPerson",
        "id": "409807db-28e0-3f0a-8601-5f43a4563d60",
        "relationship": [
          {
            "coding": [
              {
                "code": "MTH",
                "display": "mother",
                "system": "http://terminology.hl7.org/CodeSystem/v3-RoleCode"
              }
            ]
          },
          {
            "coding": [
              {
                "code": "E",
                "display": "Employer",
                "system": "http://terminology.hl7.org/CodeSystem/v2-0131"
              }
            ]
          }
        ],
        "address": [
          {
            "line": [
              "123 Main Street",
              "Apartment 3-C"
            ],
            "city": "Oldtown",
            "state": "MI",
            "postalCode": "48917",
            "country": "USA"
          }
        ],
        "name": [
          {
            "family": "Shonal",
            "given": [
              "Old"
            ]
          }
        ],
        "patient": {
          "reference": "Patient/030e96ff-e5d3-33ce-b155-4b2bc0572f05"
        }
      },
      "request": {
        "method": "PUT",
        "url": "RelatedPerson/409807db-28e0-3f0a-8601-5f43a4563d60"
      }
    },
    {
      "fullUrl": "urn:uuid:5c6d8e0f-ffeb-3773-8a70-c9783c1ebe6a",
      "resource": {
        "resourceType": "ServiceRequest",
        "id": "5c6d8e0f-ffeb-3773-8a70-c9783c1ebe6a",
        "intent": "order",
        "identifier": [
          {
            "value": "ORD723222",
            "type": {
              "coding": [
                {
                  "code": "PLAC",
                  "system": "http://terminology.hl7.org/CodeSystem/v2-0203"
                }
              ]
            }
          },
          {
            "value": "R783274",
            "type": {
              "coding": [
                {
                  "code": "FILL",
                  "system": "http://terminology.hl7.org/CodeSystem/v2-0203"
                }
              ]
            }
          },
          {
            "value": "GORD874211",
            "type": {
              "coding": [
                {
                  "code": "PGN",
                  "system": "http://terminology.hl7.org/CodeSystem/v2-0203"
                }
              ]
            }
          },
          {
            "type": {
              "coding": [
                {
                  "code": "FILL",
                  "system": "http://terminology.hl7.org/CodeSystem/v2-0203"
                }
              ]
            }
          },
          {
            "value": "ORD723222"
          },
          {
            "value": "R-783274"
          }
        ],
        "authoredOn": "2016-02-23T14:37:05.000Z",
        "occurrenceDateTime": "2016-02-23T14:47:05.000Z",
        "subject": {
          "reference": "Patient/030e96ff-e5d3-33ce-b155-4b2bc0572f05"
        },
        "code": {
          "coding": [
            {
              "code": "1320",
              "display": "HIV Ag/Ab - Serum",
              "system": "L"
            },
            {
              "code": "1680",
              "display": "Syphilis (USR test)(1)",
              "system": "L"
            }
          ]
        },
        "reasonCode": [
          {
            "coding": [
              {
                "code": "RFS01",
                "display": "Diagnosis",
                "system": "BOL_0001"
              }
            ]
          }
        ],
        "supportingInfo": [
          {
            "reference": "Observation/6d512537-2c2e-3685-8b9c-a59483574ad8"
          }
        ],
        "specimen": [
          {
            "reference": "Specimen/ea1123f9-8ab6-30ed-a6f0-13edd3974f59"
          }
        ]
      },
      "request": {
        "method": "PUT",
        "url": "ServiceRequest/5c6d8e0f-ffeb-3773-8a70-c9783c1ebe6a"
      }
    },
    {
      "fullUrl": "urn:uuid:e99ba6f1-43cd-35a6-9ad4-31ab1573feb1",
      "resource": {
        "resourceType": "Provenance",
        "id": "e99ba6f1-43cd-35a6-9ad4-31ab1573feb1",
        "agent": [
          {
            "type": {
              "coding": [
                {
                  "code": "author",
                  "system": "http://terminology.hl7.org/CodeSystem/provenance-participant-type"
                }
              ]
            }
          },
          {
            "type": {
              "coding": [
                {
                  "code": "author",
                  "system": "http://terminology.hl7.org/CodeSystem/provenance-participant-type"
                }
              ]
            }
          }
        ],
        "recorded": "2016-02-23T14:37:05.000Z",
        "activity": {
          "coding": [
            {
              "code": "CREATE",
              "system": "http://terminology.hl7.org/CodeSystem/v3-DataOperation"
            }
          ]
        },
        "occurredDateTime": "2016-02-23T14:37:05.000Z",
        "target": [
          {
            "reference": "ServiceRequest/5c6d8e0f-ffeb-3773-8a70-c9783c1ebe6a"
          }
        ]
      },
      "request": {
        "method": "PUT",
        "url": "Provenance/e99ba6f1-43cd-35a6-9ad4-31ab1573feb1"
      }
    },
    {
      "fullUrl": "urn:uuid:6d512537-2c2e-3685-8b9c-a59483574ad8",
      "resource": {
        "resourceType": "Observation",
        "id": "6d512537-2c2e-3685-8b9c-a59483574ad8",
        "code": {
          "coding": [
            {
              "code": "AOE25",
              "display": "Pregnancy",
              "system": "BOL_0002"
            }
          ]
        },
        "valueString": "NO",
        "effectiveDateTime": "2016-03-08T15:32:05.000Z",
        "component": [
          {
            "code": {
              "coding": [
                {
                  "code": "AOE25",
                  "display": "Pregnancy",
                  "system": "BOL_0002"
                }
              ]
            },
            "valueString": "NO"
          }
        ],
        "subject": {
          "reference": "Patient/030e96ff-e5d3-33ce-b155-4b2bc0572f05"
        }
      },
      "request": {
        "method": "PUT",
        "url": "Observation/6d512537-2c2e-3685-8b9c-a59483574ad8"
      }
    },
    {
      "fullUrl": "urn:uuid:ea1123f9-8ab6-30ed-a6f0-13edd3974f59",
      "resource": {
        "resourceType": "Specimen",
        "id": "ea1123f9-8ab6-30ed-a6f0-13edd3974f59",
        "type": {
          "coding": [
            {
              "code": "119339001",
              "display": "Stool Specimen (Specimen)",
              "system": "SCT"
            }
          ]
        },
        "container": [
          {
            "additiveCodeableConcept": {
              "coding": [
                {
                  "code": "NONE"
                }
              ]
            }
          }
        ],
        "collection": {
          "collectedDateTime": "2016-03-08T15:32:05.000Z"
        }
      },
      "request": {
        "method": "PUT",
        "url": "Specimen/ea1123f9-8ab6-30ed-a6f0-13edd3974f59"
      }
    }
  ]
}