{
    "resourceType": "Bundle",
    "type": "batch",
    "timestamp": "2016-03-09T21:02:05+05:30",
    "identifier": {
        "value": "TC14IG030107AA"
    },
    "entry": [
        {
            "fullUrl": "urn:uuid:f651f710-5269-afaa-f743-57b7a501b0c6",
            "resource": {
                "resourceType": "MessageHeader",
                "id": "f651f710-5269-afaa-f743-57b7a501b0c6",
                "source": {
                    "name": "MDHHS-DataHub",
                    "_endpoint": {
                        "extension": [
                            {
                                "url": "http://hl7.org/fhir/StructureDefinition/data-absent-reason",
                                "valueCode": "unknown"
                            }
                        ]
                    }
                },
                "destination": [
                    {
                        "name": "LAN",
                        "endpoint": "unknown",
                        "receiver": {
                            "reference": "Organization/d6043a57-a50e-abc1-6fcf-96fff9d1bfb0"
                        }
                    }
                ],
                "meta": {
                    "tag": [
                        {
                            "code": "T",
                            "system": "http://terminology.hl7.org/CodeSystem/v2-0103"
                        }
                    ]
                },
                "eventCoding": {
                    "code": "O21",
                    "system": "http://terminology.hl7.org/CodeSystem/v2-0003",
                    "display": "OML^O21^OML_O21"
                },
                "sender": {
                    "reference": "Organization/3ec1a91c-4720-6f8c-d861-4fa35aff66a7"
                }
            },
            "request": {
                "method": "PUT",
                "url": "MessageHeader/f651f710-5269-afaa-f743-57b7a501b0c6"
            }
        },
        {
            "fullUrl": "urn:uuid:daed9284-6d12-ca12-4260-9aad09e1f201",
            "resource": {
                "resourceType": "Patient",
                "id": "daed9284-6d12-ca12-4260-9aad09e1f201",
                "identifier": [
                    {
                        "value": "MRNTC14"
                    }
                ],
                "name": [
                    {
                        "family": "Old",
                        "given": [
                            "Baby Girl"
                        ],
                        "use": "official"
                    }
                ],
                "birthDate": "2016-02-23",
                "_birthDate": {
                    "extension": [
                        {
                            "url": "http://hl7.org/fhir/StructureDefinition/patient-birthTime",
                            "valueDateTime": "2016-02-23T16:57:05+05:30"
                        }
                    ]
                },
                "gender": "female",
                "address": [
                    {
                        "line": [
                            "123 Main Street",
                            "Apartment 3-C"
                        ],
                        "city": "Oldtown",
                        "state": "MI",
                        "postalCode": "48917",
                        "country": "USA",
                        "use": "home"
                    }
                ],
                "telecom": [
                    {
                        "use": "home",
                        "system": "phone"
                    },
                    {
                        "use": "work",
                        "system": "phone"
                    }
                ],
                "deceasedBoolean": false,
                "extension": [
                    {
                        "url": "http://hl7.org/fhir/us/core/StructureDefinition/us-core-race",
                        "extension": [
                            {
                                "url": "ombCategory",
                                "valueCoding": {
                                    "code": "2106-3",
                                    "display": "White",
                                    "system": "urn:oid:2.16.840.1.113883.6.238"
                                }
                            },
                            {
                                "url": "text",
                                "valueString": "White"
                            }
                        ]
                    },
                    {
                        "url": "http://hl7.org/fhir/StructureDefinition/patient-mothersMaidenName",
                        "valueString": "Shonal"
                    },
                    {
                        "url": "http://hl7.org/fhir/us/core/StructureDefinition/us-core-ethnicity",
                        "extension": [
                            {
                                "url": "ombCategory",
                                "valueCoding": {
                                    "code": "2186-5",
                                    "display": "Non Hispanic or Latino",
                                    "system": "urn:oid:2.16.840.1.113883.6.238"
                                }
                            },
                            {
                                "url": "text",
                                "valueString": "Non Hispanic or Latino"
                            }
                        ]
                    }
                ],
                "contact": [
                    {
                        "name": {
                            "family": "Shonal",
                            "given": [
                                "Old"
                            ]
                        },
                        "address": {
                            "line": [
                                "123 Main Street",
                                "Apartment 3-C"
                            ],
                            "city": "Oldtown",
                            "state": "MI",
                            "postalCode": "48917",
                            "country": "USA"
                        },
                        "telecom": [
                            {
                                "use": "home",
                                "system": "phone"
                            }
                        ],
                        "relationship": [
                            {
                                "coding": [
                                    {
                                        "code": "E",
                                        "display": "Employer",
                                        "system": "http://terminology.hl7.org/CodeSystem/v2-0131"
                                    }
                                ]
                            }
                        ]
                    }
                ]
            },
            "request": {
                "method": "PUT",
                "url": "Patient/daed9284-6d12-ca12-4260-9aad09e1f201"
            }
        },
        {
            "fullUrl": "urn:uuid:",
            "resource": {
                "resourceType": "Practitioner",
                "identifier": [
                    {
                        "value": "8075000001",
                        "system": "http://example.com/v2-to-fhir-converter/assigning-authority-local-system-NPI"
                    }
                ],
                "name": [
                    {
                        "family": "Smiles",
                        "given": [
                            "Minnie"
                        ],
                        "suffix": [
                            "DR"
                        ]
                    }
                ]
            },
            "request": {
                "method": "PUT",
                "url": "Practitioner/"
            }
        },
        {
            "fullUrl": "urn:uuid:0ac4aa7e-de74-bd40-3b64-97a1c0f3a414",
            "resource": {
                "resourceType": "Practitioner",
                "id": "0ac4aa7e-de74-bd40-3b64-97a1c0f3a414",
                "identifier": [
                    {
                        "value": "8075000001",
                        "system": "http://example.com/v2-to-fhir-converter/assigning-authority-local-system-NPI"
                    }
                ],
                "name": [
                    {
                        "family": "Smiles",
                        "given": [
                            "Minnie"
                        ],
                        "suffix": [
                            "DR"
                        ]
                    }
                ]
            },
            "request": {
                "method": "PUT",
                "url": "Practitioner/0ac4aa7e-de74-bd40-3b64-97a1c0f3a414"
            }
        },
        {
            "fullUrl": "urn:uuid:8d21e8ca-50c4-05e7-edb8-9f74c624369e",
            "resource": {
                "resourceType": "Location",
                "id": "8d21e8ca-50c4-05e7-edb8-9f74c624369e",
                "name": "Detroit City Hospital",
                "identifier": [
                    {
                        "value": "8175000005"
                    }
                ],
                "address": {
                    "line": [
                        "2405 Garden St"
                    ],
                    "city": "Detroit",
                    "state": "MI",
                    "postalCode": "48201",
                    "country": "USA"
                },
                "telecom": [
                    {
                        "use": "work",
                        "system": "phone"
                    }
                ]
            },
            "request": {
                "method": "PUT",
                "url": "Location/8d21e8ca-50c4-05e7-edb8-9f74c624369e"
            }
        },
        {
            "fullUrl": "urn:uuid:a0ade8a7-09f2-7ce2-46bf-2ab7facb9e9d",
            "resource": {
                "resourceType": "Provenance",
                "id": "a0ade8a7-09f2-7ce2-46bf-2ab7facb9e9d",
                "text": {
                    "status": "generated",
                    "div": "<div xmlns=\"http://www.w3.org/1999/xhtml\"><p><span>Resource bundle generated on 2021-10-07T13:57:06.13Z using Microsoft FHIR Converter.</span><span>Template Version: TEMPLATE_VERSION_PLACEHOLDER.</span><span>Template URL: https://github.com/microsoft/FHIR-Converter/releases/download/vTEMPLATE_VERSION_PLACEHOLDER/Hl7v2DefaultTemplates.tar.gz.</span><span>Root template: OML_O21.</span></p></div>"
                },
                "occurredDateTime": "2016-03-09T21:02:05+05:30",
                "recorded": "2016-03-09T21:02:05+05:30",
                "agent": [
                    {
                        "type": {
                            "coding": [
                                {
                                    "code": "author",
                                    "system": "http://terminology.hl7.org/CodeSystem/provenance-participant-type"
                                }
                            ]
                        },
                        "who": {
                            "reference": "Organization/3ec1a91c-4720-6f8c-d861-4fa35aff66a7"
                        }
                    }
                ],
                "activity": {
                    "coding": [
                        {
                            "display": "OML^O21^OML_O21"
                        }
                    ]
                },
                "location": {
                    "reference": "Location/8d21e8ca-50c4-05e7-edb8-9f74c624369e"
                },
                "target": [
                    {
                        "reference": "Bundle/"
                    }
                ]
            },
            "request": {
                "method": "PUT",
                "url": "Provenance/a0ade8a7-09f2-7ce2-46bf-2ab7facb9e9d"
            }
        },
        {
            "fullUrl": "urn:uuid:6143ab70-4f28-7863-6edf-704abf375c8d",
            "resource": {
                "resourceType": "Account",
                "id": "6143ab70-4f28-7863-6edf-704abf375c8d",
                "status": "active",
                "subject": [
                    {
                        "reference": "Patient/daed9284-6d12-ca12-4260-9aad09e1f201"
                    }
                ]
            },
            "request": {
                "method": "PUT",
                "url": "Account/6143ab70-4f28-7863-6edf-704abf375c8d"
            }
        },
        {
            "fullUrl": "urn:uuid:",
            "resource": {
                "resourceType": "Encounter",
                "text": {
                    "status": "generated",
                    "div": "<div xmlns=\"http://www.w3.org/1999/xhtml\"><p><span>Visit Description: </span></p></div>"
                },
                "subject": {
                    "reference": "Patient/daed9284-6d12-ca12-4260-9aad09e1f201"
                }
            },
            "request": {
                "method": "PUT",
                "url": "Encounter/"
            }
        },
        {
            "fullUrl": "urn:uuid:",
            "resource": {
                "resourceType": "Organization",
                "address": [
                    {
                        "line": [
                            "2405 Garden St"
                        ],
                        "city": "Detroit",
                        "state": "MI",
                        "postalCode": "48201",
                        "country": "USA"
                    }
                ],
                "telecom": [
                    {
                        "use": "work",
                        "system": "phone"
                    }
                ]
            },
            "request": {
                "method": "PUT",
                "url": "Organization/"
            }
        },
        {
            "fullUrl": "urn:uuid:0f9b5688-7b42-3a39-344c-59b068f35f16",
            "resource": {
                "resourceType": "RelatedPerson",
                "id": "0f9b5688-7b42-3a39-344c-59b068f35f16",
                "relationship": [
                    {
                        "coding": [
                            {
                                "code": "MTH",
                                "display": "mother",
                                "system": "http://terminology.hl7.org/CodeSystem/v3-RoleCode"
                            }
                        ]
                    },
                    {
                        "coding": [
                            {
                                "code": "E",
                                "display": "Employer",
                                "system": "http://terminology.hl7.org/CodeSystem/v2-0131"
                            }
                        ]
                    }
                ],
                "address": [
                    {
                        "line": [
                            "123 Main Street",
                            "Apartment 3-C"
                        ],
                        "city": "Oldtown",
                        "state": "MI",
                        "postalCode": "48917",
                        "country": "USA"
                    }
                ],
                "telecom": [
                    {
                        "use": "home",
                        "system": "phone"
                    }
                ],
                "name": [
                    {
                        "family": "Shonal",
                        "given": [
                            "Old"
                        ]
                    }
                ],
                "patient": {
                    "reference": "Patient/daed9284-6d12-ca12-4260-9aad09e1f201"
                }
            },
            "request": {
                "method": "PUT",
                "url": "RelatedPerson/0f9b5688-7b42-3a39-344c-59b068f35f16"
            }
        },
        {
            "fullUrl": "urn:uuid:a07e0fa5-e133-7049-7e66-15c22f36bfbf",
            "resource": {
                "resourceType": "Organization",
                "id": "a07e0fa5-e133-7049-7e66-15c22f36bfbf",
                "address": [
                    {
                        "line": [
                            "2405 Garden St"
                        ],
                        "city": "Detroit",
                        "state": "MI",
                        "postalCode": "48201",
                        "country": "USA"
                    }
                ],
                "telecom": [
                    {
                        "use": "work",
                        "system": "phone"
                    }
                ]
            },
            "request": {
                "method": "PUT",
                "url": "Organization/a07e0fa5-e133-7049-7e66-15c22f36bfbf"
            }
        },
        {
            "fullUrl": "urn:uuid:bafe469c-5cc7-f800-feae-81b33cf36940",
            "resource": {
                "resourceType": "ServiceRequest",
                "id": "bafe469c-5cc7-f800-feae-81b33cf36940",
                "intent": "order",
                "identifier": [
                    {
                        "value": "R783274",
                        "system": "urn:oid:2.16.840.1.113883.3.72.5.25",
                        "type": {
                            "coding": [
                                {
                                    "code": "FILL",
                                    "system": "http://terminology.hl7.org/CodeSystem/v2-0203"
                                }
                            ]
                        }
                    },
                    {
                        "value": "GORD874211",
                        "system": "urn:oid:2.16.840.1.113883.3.72.5.24",
                        "type": {
                            "coding": [
                                {
                                    "code": "PGN",
                                    "system": "http://terminology.hl7.org/CodeSystem/v2-0203"
                                }
                            ]
                        }
                    },
                    {
                        "type": {
                            "coding": [
                                {
                                    "code": "FILL",
                                    "system": "http://terminology.hl7.org/CodeSystem/v2-0203"
                                }
                            ]
                        }
                    },
                    {
                        "value": "ORD723222",
                        "system": "urn:oid:2.16.840.1.113883.3.72.5.24",
                        "type": {
                            "coding": [
                                {
                                    "code": "ISO",
                                    "display": "An International Standards Organization Object Identifier (OID), in accordance with ISO/IEC 8824. Formatted as decimal digits separated by periods; recommended limit of 64 characters",
                                    "system": "http://terminology.hl7.org/CodeSystem/v2-0301"
                                }
                            ]
                        }
                    },
                    {
                        "value": "R-783274",
                        "system": "urn:oid:2.16.840.1.113883.3.72.5.25",
                        "type": {
                            "coding": [
                                {
                                    "code": "ISO",
                                    "display": "An International Standards Organization Object Identifier (OID), in accordance with ISO/IEC 8824. Formatted as decimal digits separated by periods; recommended limit of 64 characters",
                                    "system": "http://terminology.hl7.org/CodeSystem/v2-0301"
                                }
                            ]
                        }
                    }
                ],
                "authoredOn": "2016-02-23T20:07:05+05:30",
                "occurrenceDateTime": "2016-02-23T20:17:05+05:30",
                "requester": {
                    "reference": "Organization/a07e0fa5-e133-7049-7e66-15c22f36bfbf"
                },
                "subject": {
                    "reference": "Patient/daed9284-6d12-ca12-4260-9aad09e1f201"
                },
                "code": {
                    "coding": [
                        {
                            "code": "1320",
                            "display": "HIV Ag/Ab - Serum",
                            "system": "http://example.com/v2-to-fhir-converter/CodeSystem/L"
                        },
                        {
                            "code": "1680",
                            "display": "Syphilis (USR test)(1)",
                            "system": "http://example.com/v2-to-fhir-converter/CodeSystem/L"
                        }
                    ]
                },
                "reasonCode": [
                    {
                        "coding": [
                            {
                                "code": "RFS01",
                                "display": "Diagnosis",
                                "system": "http://example.com/v2-to-fhir-converter/CodeSystem/BOL_0001"
                            }
                        ]
                    }
                ],
                "supportingInfo": [
                    {
                        "reference": "Observation/c55789d4-78ae-5836-21d4-48191c4763a7"
                    }
                ],
                "specimen": [
                    {
                        "reference": "Specimen/92af9b9a-bcfc-b6f6-ce19-bf5bc7b28707"
                    }
                ]
            },
            "request": {
                "method": "PUT",
                "url": "ServiceRequest/bafe469c-5cc7-f800-feae-81b33cf36940"
            }
        },
        {
            "fullUrl": "urn:uuid:",
            "resource": {
                "resourceType": "Provenance",
                "recorded": "2016-02-23T20:07:05+05:30",
                "occurredDateTime": "2016-02-23T20:07:05+05:30",
                "agent": [
                    {
                        "type": {
                            "coding": [
                                {
                                    "code": "author",
                                    "system": "http://terminology.hl7.org/CodeSystem/provenance-participant-type"
                                }
                            ]
                        },
                        "who": {
                            "reference": "Practitioner/0ac4aa7e-de74-bd40-3b64-97a1c0f3a414"
                        }
                    }
                ],
                "location": {
                    "reference": "Location/8d21e8ca-50c4-05e7-edb8-9f74c624369e"
                },
                "target": [
                    {
                        "reference": "Bundle/"
                    },
                    {
                        "reference": "ServiceRequest/bafe469c-5cc7-f800-feae-81b33cf36940"
                    }
                ]
            },
            "request": {
                "method": "PUT",
                "url": "Provenance/"
            }
        },
        {
            "fullUrl": "urn:uuid:c55789d4-78ae-5836-21d4-48191c4763a7",
            "resource": {
                "resourceType": "Observation",
                "id": "c55789d4-78ae-5836-21d4-48191c4763a7",
                "status": "unknown",
                "code": {
                    "coding": [
                        {
                            "code": "AOE25",
                            "display": "Pregnancy",
                            "system": "http://example.com/v2-to-fhir-converter/CodeSystem/BOL_0002"
                        }
                    ]
                },
                "valueString": "NO",
                "effectiveDateTime": "2016-03-08T21:02:05+05:30"
            },
            "request": {
                "method": "PUT",
                "url": "Observation/c55789d4-78ae-5836-21d4-48191c4763a7"
            }
        },
        {
            "fullUrl": "urn:uuid:92af9b9a-bcfc-b6f6-ce19-bf5bc7b28707",
            "resource": {
                "resourceType": "Specimen",
                "id": "92af9b9a-bcfc-b6f6-ce19-bf5bc7b28707",
                "collection": {
                    "collectedDateTime": "2016-03-08T21:02:05+05:30"
                },
                "type": {
                    "coding": [
                        {
                            "code": "119339001",
                            "display": "Stool Specimen (Specimen)",
                            "system": "http://snomed.info/sct"
                        }
                    ]
                },
                "container": [
                    {
                        "additiveCodeableConcept": {
                            "coding": [
                                {
                                    "code": "NONE"
                                }
                            ]
                        }
                    }
                ]
            },
            "request": {
                "method": "PUT",
                "url": "Specimen/92af9b9a-bcfc-b6f6-ce19-bf5bc7b28707"
            }
        }
    ]
}