{
  "resourceType": "Bundle",
  "type": "batch",
  "timestamp": "2016-03-09T04:34:05+05:30",
  "identifier": {
      "value": "TC09SAPartAIG030101AA"
  },
  "id": "b56f609b-5811-993c-e8ce-2ed8e3dbde53",
  "entry": [
      {
          "fullUrl": "urn:uuid:6eda7d2f-32f8-a6c7-5125-d59f65a25c97",
          "resource": {
              "resourceType": "MessageHeader",
              "id": "6eda7d2f-32f8-a6c7-5125-d59f65a25c97",
              "source": {
                  "name": "MDHHSDataHub",
                  "_endpoint": {
                      "extension": [
                          {
                              "url": "http://hl7.org/fhir/StructureDefinition/data-absent-reason",
                              "valueCode": "unknown"
                          }
                      ]
                  }
              },
              "destination": [
                  {
                      "name": "LAN",
                      "endpoint": "unknown",
                      "receiver": {
                          "reference": "Organization/d6043a57-a50e-abc1-6fcf-96fff9d1bfb0"
                      }
                  }
              ],
              "meta": {
                  "tag": [
                      {
                          "code": "T",
                          "system": "http://terminology.hl7.org/CodeSystem/v2-0103"
                      }
                  ]
              },
              "eventCoding": {
                  "code": "O21",
                  "system": "http://terminology.hl7.org/CodeSystem/v2-0003",
                  "display": "OML^O21^OML_O21"
              },
              "sender": {
                  "reference": "Organization/3ec1a91c-4720-6f8c-d861-4fa35aff66a7"
              }
          },
          "request": {
              "method": "PUT",
              "url": "MessageHeader/6eda7d2f-32f8-a6c7-5125-d59f65a25c97"
          }
      },
      {
          "fullUrl": "urn:uuid:a8f237a8-b330-c901-c5c0-5f847b8ecd91",
          "resource": {
              "resourceType": "Provenance",
              "id": "a8f237a8-b330-c901-c5c0-5f847b8ecd91",
              "text": {
                  "status": "generated",
                  "div": "<div xmlns=\"http://www.w3.org/1999/xhtml\"><p><span>Resource bundle generated on 2022-03-28T08:56:01.022Z using Microsoft FHIR Converter.</span><span>Template Version: TEMPLATE_VERSION_PLACEHOLDER.</span><span>Template URL: https://github.com/microsoft/FHIR-Converter/releases/download/vTEMPLATE_VERSION_PLACEHOLDER/Hl7v2DefaultTemplates.tar.gz.</span><span>Root template: OML_O21.</span></p></div>"
              },
              "occurredDateTime": "2016-03-09T04:34:05+05:30",
              "recorded": "2016-03-09T04:34:05+05:30",
              "agent": [
                  {
                      "type": {
                          "coding": [
                              {
                                  "code": "author",
                                  "system": "http://terminology.hl7.org/CodeSystem/provenance-participant-type"
                              }
                          ]
                      },
                      "who": {
                          "reference": "Organization/3ec1a91c-4720-6f8c-d861-4fa35aff66a7"
                      }
                  }
              ],
              "activity": {
                  "coding": [
                      {
                          "display": "OML^O21^OML_O21"
                      }
                  ]
              },
              "target": [
                  {
                      "reference": "Bundle/b56f609b-5811-993c-e8ce-2ed8e3dbde53"
                  }
              ]
          },
          "request": {
              "method": "PUT",
              "url": "Provenance/a8f237a8-b330-c901-c5c0-5f847b8ecd91"
          }
      },
      {
          "fullUrl": "urn:uuid:3ec1a91c-4720-6f8c-d861-4fa35aff66a7",
          "resource": {
              "resourceType": "Organization",
              "id": "3ec1a91c-4720-6f8c-d861-4fa35aff66a7",
              "identifier": [
                  {
                      "value": "MDHHS",
                      "system": "http://example.com/v2-to-fhir-converter/Identifier/MDHHS"
                  }
              ]
          },
          "request": {
              "method": "PUT",
              "url": "Organization/3ec1a91c-4720-6f8c-d861-4fa35aff66a7"
          }
      },
      {
          "fullUrl": "urn:uuid:d6043a57-a50e-abc1-6fcf-96fff9d1bfb0",
          "resource": {
              "resourceType": "Organization",
              "id": "d6043a57-a50e-abc1-6fcf-96fff9d1bfb0",
              "identifier": [
                  {
                      "value": "MDHHS",
                      "system": "http://example.com/v2-to-fhir-converter/Identifier/MDHHS"
                  },
                  {
                      "value": "urn:oid:2.16.840.1.114222.4.3.2.2.3.161.1",
                      "system": "urn:ietf:rfc:3986",
                      "type": {
                          "coding": [
                              {
                                  "code": "ISO",
                                  "display": "An International Standards Organization Object Identifier (OID), in accordance with ISO/IEC 8824. Formatted as decimal digits separated by periods; recommended limit of 64 characters",
                                  "system": "http://terminology.hl7.org/CodeSystem/v2-0301"
                              }
                          ]
                      }
                  }
              ]
          },
          "request": {
              "method": "PUT",
              "url": "Organization/d6043a57-a50e-abc1-6fcf-96fff9d1bfb0"
          }
      },
      {
          "fullUrl": "urn:uuid:97997f4d-5259-b974-5a44-1b7450c2f4ab",
          "resource": {
              "resourceType": "Patient",
              "id": "97997f4d-5259-b974-5a44-1b7450c2f4ab",
              "identifier": [
                  {
                      "value": "MRNTC09SA-Part A"
                  }
              ],
              "name": [
                  {
                      "family": "Shine",
                      "given": [
                          "Baby Girl"
                      ],
                      "use": "official"
                  }
              ],
              "birthDate": "2016-03-08",
              "_birthDate": {
                  "extension": [
                      {
                          "url": "http://hl7.org/fhir/StructureDefinition/patient-birthTime",
                          "valueDateTime": "2016-03-09T01:34:05+05:30"
                      }
                  ]
              },
              "gender": "female",
              "address": [
                  {
                      "line": [
                          "123 Main Street",
                          "Apartment 3-C"
                      ],
                      "city": "Oldtown",
                      "state": "MI",
                      "postalCode": "48917",
                      "country": "USA",
                      "use": "home"
                  }
              ],
              "telecom": [
                  {
                      "use": "home",
                      "system": "phone"
                  },
                  {
                      "use": "work",
                      "system": "phone"
                  }
              ],
              "deceasedBoolean": false,
              "extension": [
                  {
                      "url": "http://hl7.org/fhir/us/core/StructureDefinition/us-core-race",
                      "extension": [
                          {
                              "url": "ombCategory",
                              "valueCoding": {
                                  "code": "2106-3",
                                  "display": "White",
                                  "system": "urn:oid:2.16.840.1.113883.6.238"
                              }
                          },
                          {
                              "url": "text",
                              "valueString": "White"
                          }
                      ]
                  },
                  {
                      "url": "http://hl7.org/fhir/StructureDefinition/patient-mothersMaidenName",
                      "valueString": "Honey"
                  },
                  {
                      "url": "http://hl7.org/fhir/us/core/StructureDefinition/us-core-ethnicity",
                      "extension": [
                          {
                              "url": "ombCategory",
                              "valueCoding": {
                                  "code": "2186-5",
                                  "display": "Non Hispanic or Latino",
                                  "system": "urn:oid:2.16.840.1.113883.6.238"
                              }
                          },
                          {
                              "url": "text",
                              "valueString": "Non Hispanic or Latino"
                          }
                      ]
                  }
              ],
              "generalPractitioner": [
                  {
                      "reference": "PractitionerRole/6f910e0e-19e4-4de8-a915-1e93a6d5ae35"
                  },
                  {
                      "reference": "PractitionerRole/804c0420-f7b6-c084-1bb9-82a1b37452a7"
                  },
                  {
                      "reference": "PractitionerRole/77770f1e-4428-757c-fa9d-9a95200c9564"
                  },
                  {
                      "reference": "PractitionerRole/d79794f1-c9bb-510f-d57b-254b4858c327"
                  },
                  {
                      "reference": "PractitionerRole/66f87495-aa9f-8e3e-1eff-470789ec5363"
                  }
              ]
          },
          "request": {
              "method": "PUT",
              "url": "Patient/97997f4d-5259-b974-5a44-1b7450c2f4ab"
          }
      },
      {
          "fullUrl": "urn:uuid:f7b13959-b794-c7f5-b3eb-bdbd8c47b09e",
          "resource": {
              "resourceType": "Organization",
              "id": "f7b13959-b794-c7f5-b3eb-bdbd8c47b09e",
              "name": "Walmart"
          },
          "request": {
              "method": "PUT",
              "url": "Organization/f7b13959-b794-c7f5-b3eb-bdbd8c47b09e"
          }
      },
      {
          "fullUrl": "urn:uuid:d57aadb1-2418-cd95-5527-0d92a48b5dfa",
          "resource": {
              "resourceType": "Account",
              "id": "d57aadb1-2418-cd95-5527-0d92a48b5dfa",
              "status": "active",
              "guarantor": [
                  {
                      "party": {
                          "reference": "Organization/f7b13959-b794-c7f5-b3eb-bdbd8c47b09e"
                      },
                      "onHold": false
                  }
              ],
              "subject": [
                  {
                      "reference": "Patient/97997f4d-5259-b974-5a44-1b7450c2f4ab"
                  }
              ]
          },
          "request": {
              "method": "PUT",
              "url": "Account/d57aadb1-2418-cd95-5527-0d92a48b5dfa"
          }
      },
      {
          "fullUrl": "urn:uuid:6f910e0e-19e4-4de8-a915-1e93a6d5ae35",
          "resource": {
              "resourceType": "PractitionerRole",
              "id": "6f910e0e-19e4-4de8-a915-1e93a6d5ae35",
              "code": [
                  {
                      "coding": [
                          {
                              "code": "RCT",
                              "display": "Results Copies To",
                              "system": "http://terminology.hl7.org/CodeSystem/v2-0443"
                          }
                      ]
                  }
              ],
              "practitioner": {
                  "reference": "Practitioner/c7c0beb9-29bf-64ec-8577-13f2758d62a3"
              }
          },
          "request": {
              "method": "PUT",
              "url": "PractitionerRole/6f910e0e-19e4-4de8-a915-1e93a6d5ae35"
          }
      },
      {
          "fullUrl": "urn:uuid:c7c0beb9-29bf-64ec-8577-13f2758d62a3",
          "resource": {
              "resourceType": "Practitioner",
              "id": "c7c0beb9-29bf-64ec-8577-13f2758d62a3",
              "identifier": [
                  {
                      "value": "8175000004",
                      "system": "http://example.com/v2-to-fhir-converter/Identifier/StarLIMS"
                  }
              ]
          },
          "request": {
              "method": "PUT",
              "url": "Practitioner/c7c0beb9-29bf-64ec-8577-13f2758d62a3"
          }
      },
      {
          "fullUrl": "urn:uuid:804c0420-f7b6-c084-1bb9-82a1b37452a7",
          "resource": {
              "resourceType": "PractitionerRole",
              "id": "804c0420-f7b6-c084-1bb9-82a1b37452a7",
              "code": [
                  {
                      "coding": [
                          {
                              "code": "RCT",
                              "display": "Results Copies To",
                              "system": "http://terminology.hl7.org/CodeSystem/v2-0443"
                          }
                      ]
                  }
              ],
              "practitioner": {
                  "reference": "Practitioner/029ceabd-ae7b-2d10-ed98-0aa344f6711d"
              }
          },
          "request": {
              "method": "PUT",
              "url": "PractitionerRole/804c0420-f7b6-c084-1bb9-82a1b37452a7"
          }
      },
      {
          "fullUrl": "urn:uuid:029ceabd-ae7b-2d10-ed98-0aa344f6711d",
          "resource": {
              "resourceType": "Practitioner",
              "id": "029ceabd-ae7b-2d10-ed98-0aa344f6711d",
              "identifier": [
                  {
                      "value": "8175000005",
                      "system": "http://example.com/v2-to-fhir-converter/Identifier/StarLIMS"
                  }
              ]
          },
          "request": {
              "method": "PUT",
              "url": "Practitioner/029ceabd-ae7b-2d10-ed98-0aa344f6711d"
          }
      },
      {
          "fullUrl": "urn:uuid:77770f1e-4428-757c-fa9d-9a95200c9564",
          "resource": {
              "resourceType": "PractitionerRole",
              "id": "77770f1e-4428-757c-fa9d-9a95200c9564",
              "code": [
                  {
                      "coding": [
                          {
                              "code": "RCT",
                              "display": "Results Copies To",
                              "system": "http://terminology.hl7.org/CodeSystem/v2-0443"
                          }
                      ]
                  }
              ],
              "practitioner": {
                  "reference": "Practitioner/e31641c7-04dd-56f8-c066-3e1e62006ff2"
              }
          },
          "request": {
              "method": "PUT",
              "url": "PractitionerRole/77770f1e-4428-757c-fa9d-9a95200c9564"
          }
      },
      {
          "fullUrl": "urn:uuid:e31641c7-04dd-56f8-c066-3e1e62006ff2",
          "resource": {
              "resourceType": "Practitioner",
              "id": "e31641c7-04dd-56f8-c066-3e1e62006ff2",
              "identifier": [
                  {
                      "value": "8175000007",
                      "system": "http://example.com/v2-to-fhir-converter/Identifier/StarLIMS"
                  }
              ]
          },
          "request": {
              "method": "PUT",
              "url": "Practitioner/e31641c7-04dd-56f8-c066-3e1e62006ff2"
          }
      },
      {
          "fullUrl": "urn:uuid:d79794f1-c9bb-510f-d57b-254b4858c327",
          "resource": {
              "resourceType": "PractitionerRole",
              "id": "d79794f1-c9bb-510f-d57b-254b4858c327",
              "code": [
                  {
                      "coding": [
                          {
                              "code": "RCT",
                              "display": "Results Copies To",
                              "system": "http://terminology.hl7.org/CodeSystem/v2-0443"
                          }
                      ]
                  }
              ],
              "practitioner": {
                  "reference": "Practitioner/4aba7aea-e172-4aaa-9e62-04de3fe634da"
              }
          },
          "request": {
              "method": "PUT",
              "url": "PractitionerRole/d79794f1-c9bb-510f-d57b-254b4858c327"
          }
      },
      {
          "fullUrl": "urn:uuid:4aba7aea-e172-4aaa-9e62-04de3fe634da",
          "resource": {
              "resourceType": "Practitioner",
              "id": "4aba7aea-e172-4aaa-9e62-04de3fe634da",
              "identifier": [
                  {
                      "value": "8175000010",
                      "system": "http://example.com/v2-to-fhir-converter/Identifier/StarLIMS"
                  }
              ]
          },
          "request": {
              "method": "PUT",
              "url": "Practitioner/4aba7aea-e172-4aaa-9e62-04de3fe634da"
          }
      },
      {
          "fullUrl": "urn:uuid:66f87495-aa9f-8e3e-1eff-470789ec5363",
          "resource": {
              "resourceType": "PractitionerRole",
              "id": "66f87495-aa9f-8e3e-1eff-470789ec5363",
              "code": [
                  {
                      "coding": [
                          {
                              "code": "RCT",
                              "display": "Results Copies To",
                              "system": "http://terminology.hl7.org/CodeSystem/v2-0443"
                          }
                      ]
                  }
              ],
              "practitioner": {
                  "reference": "Practitioner/da9542cc-da2c-0072-60bc-b658adf8c84a"
              }
          },
          "request": {
              "method": "PUT",
              "url": "PractitionerRole/66f87495-aa9f-8e3e-1eff-470789ec5363"
          }
      },
      {
          "fullUrl": "urn:uuid:da9542cc-da2c-0072-60bc-b658adf8c84a",
          "resource": {
              "resourceType": "Practitioner",
              "id": "da9542cc-da2c-0072-60bc-b658adf8c84a",
              "identifier": [
                  {
                      "value": "8175000013",
                      "system": "http://example.com/v2-to-fhir-converter/Identifier/StarLIMS"
                  }
              ]
          },
          "request": {
              "method": "PUT",
              "url": "Practitioner/da9542cc-da2c-0072-60bc-b658adf8c84a"
          }
      },
      {
          "fullUrl": "urn:uuid:b4494dc0-e11b-658a-8cce-5241ed1ccdc0",
          "resource": {
              "resourceType": "Coverage",
              "id": "b4494dc0-e11b-658a-8cce-5241ed1ccdc0",
              "class": [
                  {
                      "value": "NA",
                      "type": {
                          "coding": [
                              {
                                  "system": "http://terminology.hl7.org/CodeSystem/coverage-class",
                                  "code": "plan",
                                  "display": "Plan"
                              }
                          ]
                      }
                  },
                  {
                      "value": "IG030101",
                      "type": {
                          "coding": [
                              {
                                  "system": "http://terminology.hl7.org/CodeSystem/coverage-class",
                                  "code": "group",
                                  "display": "Group"
                              }
                          ]
                      }
                  }
              ],
              "period": {
                  "end": "2017-10-08T01:34:05+05:30"
              },
              "identifier": [
                  {
                      "value": "TC09SA-PartA",
                      "type": {
                          "coding": [
                              {
                                  "code": "PLN",
                                  "display": "Policy Number",
                                  "system": "http://example.com/CodeSystem/additional-identifier"
                              }
                          ]
                      },
                      "system": "http://example.com/v2-to-fhir-converter/Identifier/policy-id"
                  }
              ],
              "status": "active",
              "beneficiary": {
                  "reference": "Patient/97997f4d-5259-b974-5a44-1b7450c2f4ab"
              },
              "payor": [
                  {
                      "reference": "Organization/c30aa783-68cc-9ce0-504f-9e4b50183350"
                  }
              ],
              "policyHolder": {
                  "reference": "Organization/0c8a9af0-2231-f818-ed7c-40bdb2aea2d1"
              },
              "subscriber": {
                  "reference": "RelatedPerson/fed1892c-d5ce-3318-bc7c-692fa1cc5093"
              }
          },
          "request": {
              "method": "PUT",
              "url": "Coverage/b4494dc0-e11b-658a-8cce-5241ed1ccdc0"
          }
      },
      {
          "fullUrl": "urn:uuid:c30aa783-68cc-9ce0-504f-9e4b50183350",
          "resource": {
              "resourceType": "Organization",
              "id": "c30aa783-68cc-9ce0-504f-9e4b50183350",
              "address": [
                  {
                      "line": [
                          "30555"
                      ],
                      "city": "Lansing",
                      "state": "MI",
                      "postalCode": "48933"
                  }
              ],
              "identifier": [
                  {
                      "value": "LHC"
                  }
              ],
              "name": "Lansing Health Care"
          },
          "request": {
              "method": "PUT",
              "url": "Organization/c30aa783-68cc-9ce0-504f-9e4b50183350"
          }
      },
      {
          "fullUrl": "urn:uuid:0c8a9af0-2231-f818-ed7c-40bdb2aea2d1",
          "resource": {
              "resourceType": "Organization",
              "id": "0c8a9af0-2231-f818-ed7c-40bdb2aea2d1",
              "name": "Walmart"
          },
          "request": {
              "method": "PUT",
              "url": "Organization/0c8a9af0-2231-f818-ed7c-40bdb2aea2d1"
          }
      },
      {
          "fullUrl": "urn:uuid:fed1892c-d5ce-3318-bc7c-692fa1cc5093",
          "resource": {
              "resourceType": "RelatedPerson",
              "id": "fed1892c-d5ce-3318-bc7c-692fa1cc5093",
              "relationship": [
                  {
                      "coding": [
                          {
                              "code": "CHILD",
                              "display": "child",
                              "system": "http://terminology.hl7.org/CodeSystem/v3-RoleCode"
                          }
                      ]
                  }
              ],
              "address": [
                  {
                      "line": [
                          "123 Main Street",
                          "Apartment 3-C"
                      ],
                      "city": "Oldtown",
                      "state": "MI",
                      "postalCode": "48917",
                      "country": "USA"
                  }
              ],
              "name": [
                  {
                      "family": "Shine",
                      "given": [
                          "Sarah"
                      ]
                  }
              ],
              "birthDate": "1975-06-27",
              "patient": {
                  "reference": "Patient/97997f4d-5259-b974-5a44-1b7450c2f4ab"
              }
          },
          "request": {
              "method": "PUT",
              "url": "RelatedPerson/fed1892c-d5ce-3318-bc7c-692fa1cc5093"
          }
      }
  ]
}