{
  "resourceType": "Bundle",
  "type": "batch",
  "timestamp": "2021-10-20T14:41:00+05:30",
  "identifier": {
      "value": "MSG00019"
  },
  "id": "850fa16f-dec7-80c7-978f-7276e0f16e62",
  "entry": [
      {
          "fullUrl": "urn:uuid:85946184-5877-2309-6765-683c677d000d",
          "resource": {
              "resourceType": "MessageHeader",
              "id": "85946184-5877-2309-6765-683c677d000d",
              "source": {
                  "name": "24GHH",
                  "endpoint": "urn:oid:2.16.840.1.114884.10.20"
              },
              "destination": [
                  {
                      "name": "25GHH",
                      "endpoint": "urn:oid:2.16.840.1.114884.10.23",
                      "receiver": {
                          "reference": "Organization/527280c1-34d1-c639-e9ba-61986d28e266"
                      }
                  }
              ],
              "meta": {
                  "security": [
                      {
                          "display": "SECURITY"
                      }
                  ],
                  "tag": [
                      {
                          "code": "P",
                          "system": "http://terminology.hl7.org/CodeSystem/v2-0103"
                      }
                  ]
              },
              "eventCoding": {
                  "code": "O21",
                  "system": "http://terminology.hl7.org/CodeSystem/v2-0003",
                  "display": "OML^O21^OML_O21"
              },
              "language": "en-US",
              "sender": {
                  "reference": "Organization/4356fb81-6ecd-2d70-57b1-47812638e785"
              },
              "responsible": {
                  "reference": "Organization/33532a82-d220-4c0d-1abe-53e48951c201"
              }
          },
          "request": {
              "method": "PUT",
              "url": "MessageHeader/85946184-5877-2309-6765-683c677d000d"
          }
      },
      {
          "fullUrl": "urn:uuid:58988e57-a45e-285b-5942-4480980652df",
          "resource": {
              "resourceType": "Provenance",
              "id": "58988e57-a45e-285b-5942-4480980652df",
              "text": {
                  "status": "generated",
                  "div": "<div xmlns=\"http://www.w3.org/1999/xhtml\"><p><span>Resource bundle generated on 2022-03-28T08:46:56.913Z using Microsoft FHIR Converter.</span><span>Template Version: TEMPLATE_VERSION_PLACEHOLDER.</span><span>Template URL: https://github.com/microsoft/FHIR-Converter/releases/download/vTEMPLATE_VERSION_PLACEHOLDER/Hl7v2DefaultTemplates.tar.gz.</span><span>Root template: OML_O21.</span></p></div>"
              },
              "occurredDateTime": "2021-10-20T14:41:00+05:30",
              "recorded": "2021-10-20T14:41:00+05:30",
              "agent": [
                  {
                      "type": {
                          "coding": [
                              {
                                  "code": "author",
                                  "system": "http://terminology.hl7.org/CodeSystem/provenance-participant-type"
                              }
                          ]
                      },
                      "who": {
                          "reference": "Organization/33532a82-d220-4c0d-1abe-53e48951c201"
                      }
                  }
              ],
              "activity": {
                  "coding": [
                      {
                          "display": "OML^O21^OML_O21"
                      }
                  ]
              },
              "entity": [
                  {
                      "role": "source",
                      "what": {
                          "reference": "Device/ad64f1d1-3e5b-a041-c1b3-3e157882ed69"
                      }
                  }
              ],
              "target": [
                  {
                      "reference": "Bundle/850fa16f-dec7-80c7-978f-7276e0f16e62"
                  }
              ]
          },
          "request": {
              "method": "PUT",
              "url": "Provenance/58988e57-a45e-285b-5942-4480980652df"
          }
      },
      {
          "fullUrl": "urn:uuid:4356fb81-6ecd-2d70-57b1-47812638e785",
          "resource": {
              "resourceType": "Organization",
              "id": "4356fb81-6ecd-2d70-57b1-47812638e785",
              "identifier": [
                  {
                      "value": "GHHSFacility",
                      "system": "http://example.com/v2-to-fhir-converter/Identifier/GHHSFacility"
                  },
                  {
                      "value": "urn:oid:2.16.840.1.122848.1.30",
                      "system": "urn:ietf:rfc:3986",
                      "type": {
                          "coding": [
                              {
                                  "code": "ISO",
                                  "display": "An International Standards Organization Object Identifier (OID), in accordance with ISO/IEC 8824. Formatted as decimal digits separated by periods; recommended limit of 64 characters",
                                  "system": "http://terminology.hl7.org/CodeSystem/v2-0301"
                              }
                          ]
                      }
                  }
              ],
              "partOf": {
                  "reference": "Organization/33532a82-d220-4c0d-1abe-53e48951c201"
              },
              "address": [
                  {
                      "country": "USA"
                  }
              ]
          },
          "request": {
              "method": "PUT",
              "url": "Organization/4356fb81-6ecd-2d70-57b1-47812638e785"
          }
      },
      {
          "fullUrl": "urn:uuid:62781ad6-3896-cb63-0178-ead0c4a432b5",
          "resource": {
              "resourceType": "Organization",
              "id": "62781ad6-3896-cb63-0178-ead0c4a432b5",
              "identifier": [
                  {
                      "value": "GHHRFacility",
                      "system": "http://example.com/v2-to-fhir-converter/Identifier/GHHRFacility"
                  },
                  {
                      "value": "urn:oid:2.16.840.1.1122848.1.32",
                      "system": "urn:ietf:rfc:3986",
                      "type": {
                          "coding": [
                              {
                                  "code": "ISO",
                                  "display": "An International Standards Organization Object Identifier (OID), in accordance with ISO/IEC 8824. Formatted as decimal digits separated by periods; recommended limit of 64 characters",
                                  "system": "http://terminology.hl7.org/CodeSystem/v2-0301"
                              }
                          ]
                      }
                  }
              ],
              "partOf": {
                  "reference": "Organization/527280c1-34d1-c639-e9ba-61986d28e266"
              },
              "address": [
                  {
                      "country": "USA"
                  }
              ]
          },
          "request": {
              "method": "PUT",
              "url": "Organization/62781ad6-3896-cb63-0178-ead0c4a432b5"
          }
      },
      {
          "fullUrl": "urn:uuid:33532a82-d220-4c0d-1abe-53e48951c201",
          "resource": {
              "resourceType": "Organization",
              "id": "33532a82-d220-4c0d-1abe-53e48951c201",
              "name": "22 GHH Inc."
          },
          "request": {
              "method": "PUT",
              "url": "Organization/33532a82-d220-4c0d-1abe-53e48951c201"
          }
      },
      {
          "fullUrl": "urn:uuid:527280c1-34d1-c639-e9ba-61986d28e266",
          "resource": {
              "resourceType": "Organization",
              "id": "527280c1-34d1-c639-e9ba-61986d28e266",
              "name": "23 GHH Inc."
          },
          "request": {
              "method": "PUT",
              "url": "Organization/527280c1-34d1-c639-e9ba-61986d28e266"
          }
      },
      {
          "fullUrl": "urn:uuid:ad64f1d1-3e5b-a041-c1b3-3e157882ed69",
          "resource": {
              "resourceType": "Device",
              "id": "ad64f1d1-3e5b-a041-c1b3-3e157882ed69",
              "identifier": [
                  {
                      "value": "ORDApp"
                  }
              ]
          },
          "request": {
              "method": "PUT",
              "url": "Device/ad64f1d1-3e5b-a041-c1b3-3e157882ed69"
          }
      },
      {
          "fullUrl": "urn:uuid:9e909e52-61a1-be50-1878-a12ef8c36346",
          "resource": {
              "resourceType": "Patient",
              "id": "9e909e52-61a1-be50-1878-a12ef8c36346",
              "identifier": [
                  {
                      "value": "1234567",
                      "type": {
                          "coding": [
                              {
                                  "code": "MR",
                                  "system": "http://terminology.hl7.org/CodeSystem/v2-0203",
                                  "display": "Medical record number"
                              }
                          ]
                      },
                      "system": "http://example.com/v2-to-fhir-converter/Identifier/test",
                      "period": {
                          "start": "1924-10-11",
                          "end": "1924-10-12"
                      }
                  },
                  {
                      "value": "PATID1234",
                      "type": {
                          "coding": [
                              {
                                  "code": "MR",
                                  "system": "http://terminology.hl7.org/CodeSystem/v2-0203",
                                  "display": "Medical record number"
                              }
                          ]
                      },
                      "system": "http://example.com/v2-to-fhir-converter/Identifier/HCD",
                      "assigner": {
                          "reference": "Organization/b3ad3a9f-d4f6-4638-0a09-2da771733488"
                      }
                  },
                  {
                      "value": "123456789",
                      "type": {
                          "coding": [
                              {
                                  "code": "SS",
                                  "system": "http://terminology.hl7.org/CodeSystem/v2-0203",
                                  "display": "Social Security number"
                              }
                          ]
                      },
                      "system": "http://example.com/v2-to-fhir-converter/Identifier/USSSA"
                  },
                  {
                      "value": "PATID567",
                      "system": "http://example.com/v2-to-fhir-converter/Identifier/test2"
                  },
                  {
                      "value": "PSSN123121234",
                      "type": {
                          "coding": [
                              {
                                  "code": "SB",
                                  "system": "http://terminology.hl7.org/CodeSystem/v2-0203"
                              }
                          ]
                      },
                      "system": "http://hl7.org/fhir/sid/us-ssn"
                  },
                  {
                      "value": "DLN-123",
                      "type": {
                          "coding": [
                              {
                                  "code": "DL"
                              }
                          ]
                      },
                      "system": "http://example.com/v2-to-fhir-converter/CodeSystem/US",
                      "period": {
                          "end": "2001-01-23"
                      }
                  },
                  {
                      "value": "Medicare-12345",
                      "type": {
                          "coding": [
                              {
                                  "code": "MC",
                                  "display": "Patient's Medicare number",
                                  "system": "http://terminology.hl7.org/CodeSystem/v2-0203"
                              }
                          ]
                      },
                      "system": "http://hl7.org/fhir/sid/us-medicare"
                  },
                  {
                      "value": "MI-12345",
                      "type": {
                          "coding": [
                              {
                                  "code": "MI",
                                  "display": "Military ID number",
                                  "system": "http://terminology.hl7.org/CodeSystem/v2-0203"
                              }
                          ]
                      },
                      "system": "http://example.com/v2-to-fhir-converter/sid/us-military"
                  },
                  {
                      "value": "MB-12345",
                      "type": {
                          "coding": [
                              {
                                  "code": "MB",
                                  "system": "http://terminology.hl7.org/CodeSystem/v2-0203",
                                  "display": "Member Number"
                              }
                          ]
                      },
                      "system": "urn:oid:2.16.840.1.113883.1.5"
                  }
              ],
              "name": [
                  {
                      "family": "EVERYMAN",
                      "given": [
                          "ADAM",
                          "A",
                          "Addsm"
                      ],
                      "suffix": [
                          "III",
                          "MD",
                          "PF"
                      ],
                      "prefix": [
                          "Dr."
                      ],
                      "use": "usual",
                      "period": {
                          "start": "1924-10-12"
                      }
                  },
                  {
                      "family": "Josh",
                      "given": [
                          "stanley"
                      ],
                      "use": "official",
                      "period": {
                          "start": "1924-10-10",
                          "end": "1924-10-15"
                      }
                  },
                  {
                      "family": "elbert",
                      "given": [
                          "Son"
                      ]
                  }
              ],
              "birthDate": "1988-08-18",
              "_birthDate": {
                  "extension": [
                      {
                          "url": "http://hl7.org/fhir/StructureDefinition/patient-birthTime",
                          "valueDateTime": "1988-08-18T14:41:00+05:30"
                      }
                  ]
              },
              "gender": "male",
              "address": [
                  {
                      "line": [
                          "1000",
                          "Hospital Lane",
                          "Ste. 123",
                          "Near Highway"
                      ],
                      "city": "Ann Arbor ",
                      "state": "MI",
                      "postalCode": "99999",
                      "country": "USA",
                      "type": "postal",
                      "district": "W",
                      "period": {
                          "start": "2000-01-10",
                          "end": "2000-01-20"
                      }
                  }
              ],
              "telecom": [
                  {
                      "value": "2222",
                      "system": "phone",
                      "period": {
                          "start": "2001-01-10",
                          "end": "2002-01-10"
                      },
                      "rank": 18,
                      "use": "home"
                  },
                  {
                      "value": "12121212",
                      "system": "phone",
                      "use": "home"
                  },
                  {
                      "value": "7777",
                      "system": "phone",
                      "use": "work"
                  },
                  {
                      "value": "1111",
                      "system": "other",
                      "use": "work"
                  },
                  {
                      "value": "89898989",
                      "use": "work",
                      "system": "email"
                  }
              ],
              "communication": [
                  {
                      "language": {
                          "coding": [
                              {
                                  "code": "ar",
                                  "display": "Arabic",
                                  "system": "urn:ietf:bcp:47",
                                  "version": "v2"
                              },
                              {
                                  "code": "en",
                                  "display": "English",
                                  "system": "urn:ietf:bcp:47",
                                  "version": "v2.1"
                              }
                          ],
                          "text": "TextInEnglish"
                      },
                      "preferred": true
                  }
              ],
              "maritalStatus": {
                  "coding": [
                      {
                          "code": "M",
                          "display": "Married",
                          "system": "http://terminology.hl7.org/CodeSystem/v3-MaritalStatus"
                      }
                  ]
              },
              "multipleBirthInteger": 2,
              "deceasedDateTime": "2008-08-25T15:31:30+05:30",
              "meta": {
                  "lastUpdated": "2005-01-10T04:05:14+05:30"
              },
              "extension": [
                  {
                      "url": "http://hl7.org/fhir/us/core/StructureDefinition/us-core-race",
                      "extension": [
                          {
                              "url": "ombCategory",
                              "valueCoding": {
                                  "code": "2106-3",
                                  "display": "White",
                                  "system": "urn:oid:2.16.840.1.113883.6.238"
                              }
                          },
                          {
                              "url": "ombCategory",
                              "valueCoding": {
                                  "code": "2028-9",
                                  "display": "Asian",
                                  "system": "urn:oid:2.16.840.1.113883.6.238"
                              }
                          },
                          {
                              "url": "text",
                              "valueString": "White+Asian"
                          }
                      ]
                  },
                  {
                      "url": "http://hl7.org/fhir/StructureDefinition/patient-mothersMaidenName",
                      "valueString": "SMITH--Angela--L"
                  },
                  {
                      "url": "http://hl7.org/fhir/StructureDefinition/patient-birthPlace",
                      "valueAddress": {
                          "text": "St. Francis Community Hospital of Lower South Side"
                      }
                  },
                  {
                      "url": "http://hl7.org/fhir/StructureDefinition/patient-religion",
                      "valueCodeableConcept": {
                          "coding": [
                              {
                                  "code": "1002",
                                  "display": "African Religions",
                                  "system": "http://terminology.hl7.org/CodeSystem/v3-ReligiousAffiliation"
                              }
                          ]
                      }
                  },
                  {
                      "url": "http://hl7.org/fhir/us/core/StructureDefinition/us-core-ethnicity",
                      "extension": [
                          {
                              "url": "ombCategory",
                              "valueCoding": {
                                  "code": "2186-5",
                                  "display": "Non Hispanic or Latino",
                                  "system": "urn:oid:2.16.840.1.113883.6.238"
                              }
                          },
                          {
                              "url": "text",
                              "valueString": "Non Hispanic or Latino"
                          }
                      ]
                  },
                  {
                      "url": "http://hl7.org/fhir/StructureDefinition/patient-citizenship",
                      "extension": [
                          {
                              "url": "code",
                              "valueCodeableConcept": {
                                  "coding": [
                                      {
                                          "code": "US",
                                          "display": "United States of America",
                                          "system": "urn:iso:std:iso:3166"
                                      }
                                  ],
                                  "text": "United States of America"
                              }
                          }
                      ]
                  },
                  {
                      "url": "http://hl7.org/fhir/StructureDefinition/patient-citizenship",
                      "extension": [
                          {
                              "url": "code",
                              "valueCodeableConcept": {
                                  "coding": [
                                      {
                                          "code": "CA",
                                          "display": "Canada",
                                          "system": "urn:iso:std:iso:3166"
                                      }
                                  ],
                                  "text": "Canada"
                              }
                          }
                      ]
                  }
              ],
              "contact": [
                  {
                      "name": {
                          "family": "Abbot",
                          "given": [
                              "Adam",
                              "A"
                          ],
                          "suffix": [
                              "III",
                              "PHD"
                          ],
                          "prefix": [
                              "DR"
                          ],
                          "use": "official"
                      },
                      "address": {
                          "line": [
                              "1000 Hospital Lane",
                              "Ste.123"
                          ],
                          "city": "Ann Arbor ",
                          "state": "MI",
                          "postalCode": "99999",
                          "country": "USA",
                          "use": "work"
                      },
                      "telecom": [
                          {
                              "value": "(626)555-1234",
                              "use": "work",
                              "system": "phone"
                          }
                      ],
                      "relationship": [
                          {
                              "coding": [
                                  {
                                      "code": "C",
                                      "display": "Emergency Contact",
                                      "system": "http://terminology.hl7.org/CodeSystem/v2-0131"
                                  }
                              ]
                          }
                      ]
                  }
              ]
          },
          "request": {
              "method": "PUT",
              "url": "Patient/9e909e52-61a1-be50-1878-a12ef8c36346"
          }
      },
      {
          "fullUrl": "urn:uuid:4ad7c7d0-b69a-0653-9ea9-0979b8a66b39",
          "resource": {
              "resourceType": "Account",
              "id": "4ad7c7d0-b69a-0653-9ea9-0979b8a66b39",
              "identifier": [
                  {
                      "value": "4000776",
                      "type": {
                          "coding": [
                              {
                                  "code": "VN",
                                  "system": "http://terminology.hl7.org/CodeSystem/v2-0203",
                                  "display": "Visit number"
                              }
                          ]
                      },
                      "system": "urn:oid:1.3.6.1.4.1.44750.1.2.2",
                      "assigner": {
                          "reference": "Organization/816e4ec3-f5a6-5969-08c8-a71ef576263e"
                      },
                      "period": {
                          "start": "1924-10-11",
                          "end": "1924-10-12"
                      }
                  }
              ],
              "status": "active",
              "subject": [
                  {
                      "reference": "Patient/9e909e52-61a1-be50-1878-a12ef8c36346"
                  }
              ],
              "guarantor": [
                  {
                      "party": {
                          "reference": "RelatedPerson/4a430522-2a0e-3e39-878a-49e1182a4d08"
                      },
                      "onHold": false,
                      "period": {
                          "start": "2001-04-10",
                          "end": "2001-04-15"
                      }
                  }
              ]
          },
          "request": {
              "method": "PUT",
              "url": "Account/4ad7c7d0-b69a-0653-9ea9-0979b8a66b39"
          }
      },
      {
          "fullUrl": "urn:uuid:816e4ec3-f5a6-5969-08c8-a71ef576263e",
          "resource": {
              "resourceType": "Organization",
              "id": "816e4ec3-f5a6-5969-08c8-a71ef576263e",
              "identifier": [
                  {
                      "value": "AccMgr",
                      "system": "http://example.com/v2-to-fhir-converter/Identifier/AccMgr"
                  },
                  {
                      "value": "urn:oid:1.3.6.1.4.1.44750.1.2.2",
                      "system": "urn:ietf:rfc:3986",
                      "type": {
                          "coding": [
                              {
                                  "code": "ISO",
                                  "display": "An International Standards Organization Object Identifier (OID), in accordance with ISO/IEC 8824. Formatted as decimal digits separated by periods; recommended limit of 64 characters",
                                  "system": "http://terminology.hl7.org/CodeSystem/v2-0301"
                              }
                          ]
                      }
                  }
              ]
          },
          "request": {
              "method": "PUT",
              "url": "Organization/816e4ec3-f5a6-5969-08c8-a71ef576263e"
          }
      },
      {
          "fullUrl": "urn:uuid:4a430522-2a0e-3e39-878a-49e1182a4d08",
          "resource": {
              "resourceType": "RelatedPerson",
              "id": "4a430522-2a0e-3e39-878a-49e1182a4d08",
              "identifier": [
                  {
                      "value": "1516",
                      "type": {
                          "coding": [
                              {
                                  "code": "MR",
                                  "system": "http://terminology.hl7.org/CodeSystem/v2-0203",
                                  "display": "Medical record number"
                              }
                          ]
                      },
                      "system": "http://example.com/v2-to-fhir-converter/Identifier/test",
                      "period": {
                          "start": "1924-10-11",
                          "end": "1924-10-12"
                      }
                  },
                  {
                      "value": "55121",
                      "type": {
                          "coding": [
                              {
                                  "code": "FI",
                                  "system": "http://terminology.hl7.org/CodeSystem/v2-0203",
                                  "display": "Facility ID"
                              }
                          ]
                      }
                  },
                  {
                      "value": "G-SSN-12",
                      "type": {
                          "coding": [
                              {
                                  "code": "SB",
                                  "system": "http://terminology.hl7.org/CodeSystem/v2-0203",
                                  "display": "Social Beneficiary Identifier"
                              }
                          ]
                      },
                      "system": "http://hl7.org/fhir/sid/us-ssn"
                  }
              ],
              "relationship": [
                  {
                      "coding": [
                          {
                              "code": "BRO",
                              "display": "brother",
                              "system": "http://terminology.hl7.org/CodeSystem/v3-RoleCode"
                          }
                      ]
                  }
              ],
              "address": [
                  {
                      "line": [
                          "1619 SOUTH UNIVERSITY"
                      ],
                      "city": "MADISON",
                      "state": "WI",
                      "postalCode": "53703",
                      "country": "US"
                  }
              ],
              "telecom": [
                  {
                      "value": "8484",
                      "system": "email",
                      "use": "home"
                  },
                  {
                      "value": "717171",
                      "system": "phone",
                      "use": "home"
                  },
                  {
                      "value": "021212",
                      "system": "other",
                      "use": "work"
                  }
              ],
              "name": [
                  {
                      "family": "RADIANT",
                      "given": [
                          "LUCY"
                      ]
                  }
              ],
              "gender": "male",
              "birthDate": "2001-04-12",
              "communication": [
                  {
                      "language": {
                          "coding": [
                              {
                                  "code": "de",
                                  "display": "German",
                                  "system": "urn:ietf:bcp:47"
                              }
                          ]
                      },
                      "preferred": true
                  }
              ],
              "patient": {
                  "reference": "Patient/9e909e52-61a1-be50-1878-a12ef8c36346"
              }
          },
          "request": {
              "method": "PUT",
              "url": "RelatedPerson/4a430522-2a0e-3e39-878a-49e1182a4d08"
          }
      },
      {
          "fullUrl": "urn:uuid:b3ad3a9f-d4f6-4638-0a09-2da771733488",
          "resource": {
              "resourceType": "Organization",
              "id": "b3ad3a9f-d4f6-4638-0a09-2da771733488",
              "identifier": [
                  {
                      "value": "test1",
                      "system": "http://example.com/v2-to-fhir-converter/Identifier/test1"
                  },
                  {
                      "value": "2.16.1",
                      "system": "http://example.com/v2-to-fhir-converter/Identifier/HCD",
                      "type": {
                          "coding": [
                              {
                                  "code": "HCD",
                                  "display": "The CEN Healthcare Coding Scheme Designator",
                                  "system": "http://terminology.hl7.org/CodeSystem/v2-0301"
                              }
                          ]
                      }
                  }
              ]
          },
          "request": {
              "method": "PUT",
              "url": "Organization/b3ad3a9f-d4f6-4638-0a09-2da771733488"
          }
      },
      {
          "fullUrl": "urn:uuid:f3954ae4-dec6-f114-1b9e-3a8a85d93f99",
          "resource": {
              "resourceType": "Organization",
              "id": "f3954ae4-dec6-f114-1b9e-3a8a85d93f99",
              "identifier": [
                  {
                      "value": "NTH",
                      "system": "http://example.com/v2-to-fhir-converter/Identifier/NTH"
                  },
                  {
                      "value": "rt23",
                      "system": "http://example.com/v2-to-fhir-converter/Identifier/HCD",
                      "type": {
                          "coding": [
                              {
                                  "code": "HCD",
                                  "display": "The CEN Healthcare Coding Scheme Designator",
                                  "system": "http://terminology.hl7.org/CodeSystem/v2-0301"
                              }
                          ]
                      }
                  }
              ]
          },
          "request": {
              "method": "PUT",
              "url": "Organization/f3954ae4-dec6-f114-1b9e-3a8a85d93f99"
          }
      },
      {
          "fullUrl": "urn:uuid:62b2e1ee-a272-4ffe-692e-a1fbfd49af6a",
          "resource": {
              "resourceType": "RelatedPerson",
              "id": "62b2e1ee-a272-4ffe-692e-a1fbfd49af6a",
              "identifier": [
                  {
                      "value": "1212121",
                      "type": {
                          "coding": [
                              {
                                  "code": "AND",
                                  "system": "http://terminology.hl7.org/CodeSystem/v2-0203",
                                  "display": "Account number debitor"
                              }
                          ]
                      },
                      "system": "http://example.com/v2-to-fhir-converter/Identifier/HCD",
                      "assigner": {
                          "reference": "Organization/f3954ae4-dec6-f114-1b9e-3a8a85d93f99"
                      },
                      "period": {
                          "start": "1924-10-11",
                          "end": "1924-10-12"
                      }
                  }
              ],
              "relationship": [
                  {
                      "coding": [
                          {
                              "code": "MTH",
                              "system": "http://terminology.hl7.org/CodeSystem/v3-RoleCode"
                          }
                      ]
                  }
              ],
              "patient": {
                  "reference": "Patient/9e909e52-61a1-be50-1878-a12ef8c36346"
              }
          },
          "request": {
              "method": "PUT",
              "url": "RelatedPerson/62b2e1ee-a272-4ffe-692e-a1fbfd49af6a"
          }
      },
      {
          "fullUrl": "urn:uuid:d00df304-17fa-8d9a-bd02-3276b1781ea1",
          "resource": {
              "resourceType": "Practitioner",
              "id": "d00df304-17fa-8d9a-bd02-3276b1781ea1",
              "identifier": [
                  {
                      "value": "0210"
                  }
              ],
              "name": [
                  {
                      "family": "ATTEND",
                      "given": [
                          "AARON",
                          "A"
                      ]
                  }
              ]
          },
          "request": {
              "method": "PUT",
              "url": "Practitioner/d00df304-17fa-8d9a-bd02-3276b1781ea1"
          }
      },
      {
          "fullUrl": "urn:uuid:21d5ab8b-8f3d-4fd9-f1c4-6f32568b0ae9",
          "resource": {
              "resourceType": "Practitioner",
              "id": "21d5ab8b-8f3d-4fd9-f1c4-6f32568b0ae9",
              "identifier": [
                  {
                      "value": "0310"
                  }
              ],
              "name": [
                  {
                      "family": "REFER",
                      "given": [
                          "LINDA",
                          "C"
                      ]
                  }
              ]
          },
          "request": {
              "method": "PUT",
              "url": "Practitioner/21d5ab8b-8f3d-4fd9-f1c4-6f32568b0ae9"
          }
      },
      {
          "fullUrl": "urn:uuid:6c138e7c-e841-af07-8948-d01692bd2739",
          "resource": {
              "resourceType": "Practitioner",
              "id": "6c138e7c-e841-af07-8948-d01692bd2739",
              "identifier": [
                  {
                      "value": "03410"
                  }
              ],
              "name": [
                  {
                      "family": "ADMIT",
                      "given": [
                          "LINDA",
                          "C"
                      ]
                  }
              ]
          },
          "request": {
              "method": "PUT",
              "url": "Practitioner/6c138e7c-e841-af07-8948-d01692bd2739"
          }
      },
      {
          "fullUrl": "urn:uuid:4683678a-6244-d9d8-3643-bd5af6862624",
          "resource": {
              "resourceType": "Location",
              "id": "4683678a-6244-d9d8-3643-bd5af6862624",
              "name": "LABUnit01",
              "mode": "instance",
              "description": "LABUnit01--Room01--GHH",
              "physicalType": {
                  "coding": [
                      {
                          "system": "http://terminology.hl7.org/CodeSystem/location-physical-type",
                          "code": "lvl"
                      }
                  ]
              }
          },
          "request": {
              "method": "PUT",
              "url": "Location/4683678a-6244-d9d8-3643-bd5af6862624"
          }
      },
      {
          "fullUrl": "urn:uuid:9e8ac770-5a35-5cd9-6a6b-02c1fa87b25b",
          "resource": {
              "resourceType": "Location",
              "id": "9e8ac770-5a35-5cd9-6a6b-02c1fa87b25b",
              "partOf": {
                  "reference": "Location/4683678a-6244-d9d8-3643-bd5af6862624"
              },
              "name": "Room01",
              "mode": "instance",
              "description": "LABUnit01--Room01--GHH",
              "physicalType": {
                  "coding": [
                      {
                          "system": "http://terminology.hl7.org/CodeSystem/location-physical-type",
                          "code": "ro"
                      }
                  ]
              }
          },
          "request": {
              "method": "PUT",
              "url": "Location/9e8ac770-5a35-5cd9-6a6b-02c1fa87b25b"
          }
      },
      {
          "fullUrl": "urn:uuid:5178e3a0-3de3-daeb-e7bf-97824ca7fade",
          "resource": {
              "resourceType": "Location",
              "id": "5178e3a0-3de3-daeb-e7bf-97824ca7fade",
              "name": "GHH",
              "mode": "instance",
              "description": "LABUnit01--Room01--GHH",
              "physicalType": {
                  "coding": [
                      {
                          "system": "http://terminology.hl7.org/CodeSystem/location-physical-type",
                          "code": "si"
                      }
                  ]
              }
          },
          "request": {
              "method": "PUT",
              "url": "Location/5178e3a0-3de3-daeb-e7bf-97824ca7fade"
          }
      },
      {
          "fullUrl": "urn:uuid:b3e7e8ab-7696-b555-ad2d-db9566b2a249",
          "resource": {
              "resourceType": "Location",
              "id": "b3e7e8ab-7696-b555-ad2d-db9566b2a249",
              "name": "TraumaCentre",
              "mode": "instance",
              "description": "TraumaCentre--ROOM1--2.16.840.1.113883.4.642.1.1108--ISO--GHH1",
              "physicalType": {
                  "coding": [
                      {
                          "system": "http://terminology.hl7.org/CodeSystem/location-physical-type",
                          "code": "lvl"
                      }
                  ]
              }
          },
          "request": {
              "method": "PUT",
              "url": "Location/b3e7e8ab-7696-b555-ad2d-db9566b2a249"
          }
      },
      {
          "fullUrl": "urn:uuid:a84e4df0-81ee-5e6e-3cf5-8ae8e203702c",
          "resource": {
              "resourceType": "Location",
              "id": "a84e4df0-81ee-5e6e-3cf5-8ae8e203702c",
              "partOf": {
                  "reference": "Location/b3e7e8ab-7696-b555-ad2d-db9566b2a249"
              },
              "name": "ROOM1",
              "identifier": [
                  {
                      "value": "urn:oid:2.16.840.1.113883.4.642.1.1108",
                      "system": "urn:ietf:rfc:3986"
                  }
              ],
              "mode": "instance",
              "description": "TraumaCentre--ROOM1--2.16.840.1.113883.4.642.1.1108--ISO--GHH1",
              "physicalType": {
                  "coding": [
                      {
                          "system": "http://terminology.hl7.org/CodeSystem/location-physical-type",
                          "code": "ro"
                      }
                  ]
              }
          },
          "request": {
              "method": "PUT",
              "url": "Location/a84e4df0-81ee-5e6e-3cf5-8ae8e203702c"
          }
      },
      {
          "fullUrl": "urn:uuid:ac02d40f-1a1d-6502-6fd4-80c4432fded9",
          "resource": {
              "resourceType": "Location",
              "id": "ac02d40f-1a1d-6502-6fd4-80c4432fded9",
              "name": "GHH1",
              "mode": "instance",
              "description": "TraumaCentre--ROOM1--2.16.840.1.113883.4.642.1.1108--ISO--GHH1",
              "physicalType": {
                  "coding": [
                      {
                          "system": "http://terminology.hl7.org/CodeSystem/location-physical-type",
                          "code": "si"
                      }
                  ]
              }
          },
          "request": {
              "method": "PUT",
              "url": "Location/ac02d40f-1a1d-6502-6fd4-80c4432fded9"
          }
      },
      {
          "fullUrl": "urn:uuid:da6f322f-ef5e-4f2c-c1f8-6e38dffbf995",
          "resource": {
              "resourceType": "Encounter",
              "id": "da6f322f-ef5e-4f2c-c1f8-6e38dffbf995",
              "class": {
                  "code": "AMB",
                  "display": "ambulatory",
                  "system": "http://terminology.hl7.org/CodeSystem/v3-ActCode"
              },
              "status": "in-progress",
              "location": [
                  {
                      "status": "active",
                      "location": {
                          "reference": "Location/4683678a-6244-d9d8-3643-bd5af6862624"
                      }
                  },
                  {
                      "status": "completed",
                      "location": {
                          "reference": "Location/b3e7e8ab-7696-b555-ad2d-db9566b2a249"
                      }
                  }
              ],
              "participant": [
                  {
                      "type": [
                          {
                              "coding": [
                                  {
                                      "code": "ATND",
                                      "system": "http://terminology.hl7.org/CodeSystem/v3-ParticipationType",
                                      "display": "attender"
                                  }
                              ]
                          }
                      ],
                      "individual": {
                          "reference": "Practitioner/d00df304-17fa-8d9a-bd02-3276b1781ea1"
                      }
                  },
                  {
                      "type": [
                          {
                              "coding": [
                                  {
                                      "code": "REF",
                                      "system": "http://terminology.hl7.org/CodeSystem/v3-ParticipationType"
                                  }
                              ],
                              "text": "referrer"
                          }
                      ],
                      "individual": {
                          "reference": "Practitioner/21d5ab8b-8f3d-4fd9-f1c4-6f32568b0ae9"
                      }
                  },
                  {
                      "type": [
                          {
                              "coding": [
                                  {
                                      "code": "ADM",
                                      "system": "http://terminology.hl7.org/CodeSystem/v3-ParticipationType"
                                  }
                              ],
                              "text": "admitter"
                          }
                      ],
                      "individual": {
                          "reference": "Practitioner/6c138e7c-e841-af07-8948-d01692bd2739"
                      }
                  }
              ],
              "identifier": [
                  {
                      "value": "5001",
                      "system": "http://example.com/v2-to-fhir-converter/Identifier/AccMgr",
                      "type": {
                          "coding": [
                              {
                                  "code": "VN",
                                  "system": "http://terminology.hl7.org/CodeSystem/v2-0203"
                              }
                          ],
                          "text": "visit number"
                      }
                  }
              ],
              "period": {
                  "start": "2021-10-20T14:41:00+05:30"
              },
              "text": {
                  "status": "generated",
                  "div": "<div xmlns=\"http://www.w3.org/1999/xhtml\"><p><span>Visit Description: </span></p></div>"
              },
              "account": [
                  {
                      "reference": "Account/4ad7c7d0-b69a-0653-9ea9-0979b8a66b39"
                  }
              ],
              "subject": {
                  "reference": "Patient/9e909e52-61a1-be50-1878-a12ef8c36346"
              },
              "diagnosis": [
                  {
                      "condition": {
                          "reference": "Condition/e06055fc-0230-24ef-7d66-7ae83cafb322"
                      },
                      "use": {
                          "coding": [
                              {
                                  "code": "DD",
                                  "display": "Discharge Diagnosis",
                                  "system": "http://terminology.hl7.org/CodeSystem/diagnosis-role"
                              }
                          ]
                      },
                      "rank": 1
                  }
              ]
          },
          "request": {
              "method": "PUT",
              "url": "Encounter/da6f322f-ef5e-4f2c-c1f8-6e38dffbf995"
          }
      },
      {
          "fullUrl": "urn:uuid:6415af3e-e19f-4ebe-e028-68273aa308ff",
          "resource": {
              "resourceType": "AllergyIntolerance",
              "id": "6415af3e-e19f-4ebe-e028-68273aa308ff",
              "category": [
                  "food"
              ],
              "type": "allergy",
              "code": {
                  "coding": [
                      {
                          "code": "12345",
                          "display": "Peanut Allergy",
                          "system": "http://example.com/v2-to-fhir-converter/CodeSystem/L"
                      }
                  ]
              },
              "reaction": [
                  {
                      "manifestation": [
                          {
                              "text": "moderate"
                          }
                      ],
                      "onset": "2021-01-21"
                  }
              ],
              "criticality": "low",
              "clinicalStatus": {
                  "coding": [
                      {
                          "code": "active",
                          "display": "Active",
                          "system": "http://terminology.hl7.org/CodeSystem/allergyintolerance-clinical"
                      }
                  ]
              },
              "patient": {
                  "reference": "Patient/9e909e52-61a1-be50-1878-a12ef8c36346"
              }
          },
          "request": {
              "method": "PUT",
              "url": "AllergyIntolerance/6415af3e-e19f-4ebe-e028-68273aa308ff"
          }
      },
      {
          "fullUrl": "urn:uuid:dfab6985-a691-c4f5-d2b2-6481fdfd59e4",
          "resource": {
              "resourceType": "Coverage",
              "id": "dfab6985-a691-c4f5-d2b2-6481fdfd59e4",
              "class": [
                  {
                      "value": "BAV",
                      "name": "Blue Advantage HMO",
                      "type": {
                          "coding": [
                              {
                                  "system": "http://terminology.hl7.org/CodeSystem/coverage-class",
                                  "code": "plan",
                                  "display": "Plan"
                              }
                          ]
                      }
                  },
                  {
                      "value": "Grp-12345",
                      "name": "BCBS HMO",
                      "type": {
                          "coding": [
                              {
                                  "system": "http://terminology.hl7.org/CodeSystem/coverage-class",
                                  "code": "group",
                                  "display": "Group"
                              }
                          ]
                      }
                  }
              ],
              "network": "Blue Advantage HMO",
              "period": {
                  "start": "1998-11-01"
              },
              "type": {
                  "coding": [
                      {
                          "code": "HMO",
                          "display": "health maintenance organization policy",
                          "system": "http://terminology.hl7.org/CodeSystem/v3-ActCode"
                      }
                  ]
              },
              "identifier": [
                  {
                      "value": "548851236L",
                      "type": {
                          "coding": [
                              {
                                  "code": "PLN",
                                  "display": "Policy Number",
                                  "system": "http://example.com/CodeSystem/additional-identifier"
                              }
                          ]
                      },
                      "system": "http://example.com/v2-to-fhir-converter/Identifier/policy-id"
                  },
                  {
                      "value": "Medicare-12345",
                      "type": {
                          "coding": [
                              {
                                  "code": "MC",
                                  "display": "Patient's Medicare number",
                                  "system": "http://terminology.hl7.org/CodeSystem/v2-0203"
                              }
                          ]
                      },
                      "system": "http://hl7.org/fhir/sid/us-medicare"
                  },
                  {
                      "value": "MB-12345",
                      "type": {
                          "coding": [
                              {
                                  "code": "MB",
                                  "system": "http://terminology.hl7.org/CodeSystem/v2-0203",
                                  "display": "Member Number"
                              }
                          ]
                      },
                      "system": "urn:oid:2.16.840.1.113883.1.5"
                  }
              ],
              "costToBeneficiary": [
                  {
                      "type": {
                          "coding": [
                              {
                                  "code": "DC",
                                  "display": "direct unit cost",
                                  "system": "http://terminology.hl7.org/CodeSystem/v2-0205"
                              }
                          ]
                      },
                      "valueMoney": {
                          "value": 150,
                          "currency": "USD"
                      }
                  }
              ],
              "subscriberId": "HMO-12345",
              "status": "active",
              "beneficiary": {
                  "reference": "Patient/9e909e52-61a1-be50-1878-a12ef8c36346"
              },
              "payor": [
                  {
                      "reference": "Organization/04a2a5f2-c971-1e42-e788-250ea487a889"
                  }
              ],
              "policyHolder": {
                  "reference": "Organization/0f21af2c-9880-54cb-14a5-5493a766da42"
              },
              "subscriber": {
                  "reference": "RelatedPerson/fd1eed45-4ccb-bb7c-d157-58eb0366d777"
              },
              "relationship": {
                  "coding": [
                      {
                          "code": "spouse",
                          "display": "Spouse",
                          "system": "http://terminology.hl7.org/CodeSystem/subscriber-relationship"
                      }
                  ]
              }
          },
          "request": {
              "method": "PUT",
              "url": "Coverage/dfab6985-a691-c4f5-d2b2-6481fdfd59e4"
          }
      },
      {
          "fullUrl": "urn:uuid:04a2a5f2-c971-1e42-e788-250ea487a889",
          "resource": {
              "resourceType": "Organization",
              "id": "04a2a5f2-c971-1e42-e788-250ea487a889",
              "address": [
                  {
                      "line": [
                          "1979 MILKY WAY"
                      ],
                      "city": "VERONA",
                      "state": "WI",
                      "postalCode": "53593",
                      "country": "US"
                  }
              ],
              "contact": [
                  {
                      "name": {
                          "family": "Roger",
                          "given": [
                              "Dann"
                          ]
                      }
                  }
              ],
              "telecom": [
                  {
                      "value": "(555)555-5555",
                      "system": "phone"
                  }
              ],
              "identifier": [
                  {
                      "value": "Org-12345",
                      "type": {
                          "coding": [
                              {
                                  "code": "NIIP",
                                  "system": "http://terminology.hl7.org/CodeSystem/v2-0203",
                                  "display": "National Insurance Payor Identifier (Payor)"
                              }
                          ]
                      },
                      "system": "urn:oid:2.16.840.1.113883.1.1"
                  }
              ],
              "name": "Blue Cross Blue Shield of Texas"
          },
          "request": {
              "method": "PUT",
              "url": "Organization/04a2a5f2-c971-1e42-e788-250ea487a889"
          }
      },
      {
          "fullUrl": "urn:uuid:0f21af2c-9880-54cb-14a5-5493a766da42",
          "resource": {
              "resourceType": "Organization",
              "id": "0f21af2c-9880-54cb-14a5-5493a766da42",
              "address": [
                  {
                      "line": [
                          "2000 MILKY WAY"
                      ],
                      "city": "VERONA",
                      "state": "WI",
                      "postalCode": "53593",
                      "country": "US"
                  }
              ],
              "identifier": [
                  {
                      "value": "Tel-12345",
                      "type": {
                          "coding": [
                              {
                                  "code": "EN",
                                  "system": "http://terminology.hl7.org/CodeSystem/v2-0203",
                                  "display": "Employer number"
                              }
                          ]
                      },
                      "system": "urn:oid:2.16.840.1.113883.1.2"
                  }
              ],
              "name": "Telstra",
              "contact": [
                  {
                      "name": {
                          "family": "Richard",
                          "given": [
                              "Paul"
                          ]
                      },
                      "telecom": [
                          {
                              "value": "(555)555-1234",
                              "system": "phone"
                          }
                      ]
                  }
              ],
              "telecom": [
                  {
                      "value": "(555)123-5678",
                      "system": "phone"
                  }
              ]
          },
          "request": {
              "method": "PUT",
              "url": "Organization/0f21af2c-9880-54cb-14a5-5493a766da42"
          }
      },
      {
          "fullUrl": "urn:uuid:fd1eed45-4ccb-bb7c-d157-58eb0366d777",
          "resource": {
              "resourceType": "RelatedPerson",
              "id": "fd1eed45-4ccb-bb7c-d157-58eb0366d777",
              "identifier": [
                  {
                      "value": "HMO-12345",
                      "type": {
                          "coding": [
                              {
                                  "code": "NI",
                                  "system": "http://terminology.hl7.org/CodeSystem/v2-0203",
                                  "display": "National unique individual identifier"
                              }
                          ]
                      },
                      "system": "urn:oid:2.16.840.1.113883.1.3"
                  },
                  {
                      "value": "EI-12345",
                      "type": {
                          "coding": [
                              {
                                  "code": "EI",
                                  "system": "http://terminology.hl7.org/CodeSystem/v2-0203",
                                  "display": "Employee number"
                              }
                          ]
                      },
                      "system": "urn:oid:2.16.840.1.113883.1.4"
                  },
                  {
                      "value": "425-57-9745",
                      "type": {
                          "coding": [
                              {
                                  "code": "SS",
                                  "display": "Social Security number",
                                  "system": "http://terminology.hl7.org/CodeSystem/v2-0203"
                              }
                          ]
                      },
                      "system": "http://hl7.org/fhir/sid/us-ssn"
                  }
              ],
              "relationship": [
                  {
                      "coding": [
                          {
                              "code": "SPS",
                              "display": "spouse",
                              "system": "http://terminology.hl7.org/CodeSystem/v3-RoleCode"
                          }
                      ]
                  }
              ],
              "address": [
                  {
                      "line": [
                          "3857 Velvet Treasure Terrace"
                      ],
                      "city": "Midnight",
                      "state": "NC",
                      "postalCode": "27878",
                      "country": "US"
                  }
              ],
              "name": [
                  {
                      "family": "Doe",
                      "given": [
                          "Rosallie",
                          "John"
                      ],
                      "suffix": [
                          "III",
                          "Bachelors"
                      ],
                      "prefix": [
                          "Mrs."
                      ],
                      "use": "official"
                  }
              ],
              "gender": "female",
              "birthDate": "1975-02-28",
              "patient": {
                  "reference": "Patient/9e909e52-61a1-be50-1878-a12ef8c36346"
              },
              "telecom": [
                  {
                      "value": "(555)123-1234",
                      "system": "phone"
                  }
              ],
              "communication": [
                  {
                      "language": {
                          "coding": [
                              {
                                  "code": "en",
                                  "display": "English"
                              }
                          ]
                      },
                      "preferred": true
                  }
              ]
          },
          "request": {
              "method": "PUT",
              "url": "RelatedPerson/fd1eed45-4ccb-bb7c-d157-58eb0366d777"
          }
      },
      {
          "fullUrl": "urn:uuid:0bf0c9dd-ca57-7366-1557-e073ee1f717a",
          "resource": {
              "resourceType": "ServiceRequest",
              "id": "0bf0c9dd-ca57-7366-1557-e073ee1f717a",
              "identifier": [
                  {
                      "value": "PAI-8.1",
                      "type": {
                          "coding": [
                              {
                                  "code": "PLAC",
                                  "system": "http://terminology.hl7.org/CodeSystem/v2-0203"
                              }
                          ]
                      }
                  },
                  {
                      "value": "FAI-8.2",
                      "type": {
                          "coding": [
                              {
                                  "code": "FILL",
                                  "system": "http://terminology.hl7.org/CodeSystem/v2-0203"
                              }
                          ]
                      }
                  },
                  {
                      "type": {
                          "coding": [
                              {
                                  "code": "PS-31"
                              }
                          ]
                      }
                  }
              ],
              "status": "active",
              "intent": "order",
              "subject": {
                  "reference": "Patient/9e909e52-61a1-be50-1878-a12ef8c36346"
              }
          },
          "request": {
              "method": "PUT",
              "url": "ServiceRequest/0bf0c9dd-ca57-7366-1557-e073ee1f717a"
          }
      },
      {
          "fullUrl": "urn:uuid:20d84998-5ed2-d428-4ff3-fbeb9a9054a6",
          "resource": {
              "resourceType": "ServiceRequest",
              "id": "20d84998-5ed2-d428-4ff3-fbeb9a9054a6",
              "status": "active",
              "intent": "order",
              "identifier": [
                  {
                      "value": "1101",
                      "system": "http://example.com/v2-to-fhir-converter/Identifier/GHHPlacer",
                      "type": {
                          "coding": [
                              {
                                  "code": "PLAC",
                                  "system": "http://terminology.hl7.org/CodeSystem/v2-0203"
                              }
                          ]
                      }
                  },
                  {
                      "value": "1201",
                      "system": "http://example.com/v2-to-fhir-converter/Identifier/GHHFiller",
                      "type": {
                          "coding": [
                              {
                                  "code": "FILL",
                                  "system": "http://terminology.hl7.org/CodeSystem/v2-0203"
                              }
                          ]
                      }
                  }
              ],
              "authoredOn": "2021-10-20T14:41:00+05:30",
              "basedOn": [
                  {
                      "reference": "ServiceRequest/0bf0c9dd-ca57-7366-1557-e073ee1f717a"
                  }
              ],
              "locationCode": [
                  {
                      "coding": [
                          {
                              "code": "OF",
                              "display": "Outpatient facility",
                              "system": "http://terminology.hl7.org/CodeSystem/v3-RoleCode"
                          }
                      ]
                  }
              ],
              "code": {
                  "coding": [
                      {
                          "code": "57698-3",
                          "display": "Lipid panel with direct LDL - Serum or Plasma",
                          "system": "http://loinc.org"
                      }
                  ]
              },
              "subject": {
                  "reference": "Patient/9e909e52-61a1-be50-1878-a12ef8c36346"
              },
              "encounter": {
                  "reference": "Encounter/da6f322f-ef5e-4f2c-c1f8-6e38dffbf995"
              },
              "requester": {
                  "reference": "PractitionerRole/d4536528-5e14-2c7a-8d87-c0dcd7311649"
              },
              "specimen": [
                  {
                      "reference": "Specimen/b3a1bcae-087f-966b-7cfd-fc61a168d02a"
                  }
              ],
              "note": [
                  {
                      "text": "Urgent"
                  },
                  {
                      "text": "Fasting Sugar"
                  }
              ],
              "reasonReference": [
                  {
                      "reference": "Condition/e06055fc-0230-24ef-7d66-7ae83cafb322"
                  }
              ],
              "asNeededCodeableConcept": {
                  "text": "Pain"
              },
              "quantityQuantity": {
                  "value": 1
              },
              "occurrenceTiming": {
                  "code": {
                      "coding": [
                          {
                              "code": "Once"
                          }
                      ]
                  },
                  "repeat": {
                      "period": 1,
                      "periodUnit": "d",
                      "when": [
                          "AC"
                      ],
                      "offset": 60,
                      "boundsDuration": {
                          "value": 1,
                          "unit": "Day",
                          "code": "d",
                          "system": "http://unitsofmeasure.org"
                      },
                      "duration": 15,
                      "durationUnit": "min",
                      "count": 1
                  }
              },
              "priority": "routine"
          },
          "request": {
              "method": "PUT",
              "url": "ServiceRequest/20d84998-5ed2-d428-4ff3-fbeb9a9054a6"
          }
      },
      {
          "fullUrl": "urn:uuid:8af87360-4a75-1531-6192-9bdbb1b0351c",
          "resource": {
              "resourceType": "Practitioner",
              "id": "8af87360-4a75-1531-6192-9bdbb1b0351c",
              "identifier": [
                  {
                      "value": "005454"
                  }
              ],
              "name": [
                  {
                      "family": "LAB",
                      "given": [
                          "ROBIN",
                          "B"
                      ]
                  }
              ]
          },
          "request": {
              "method": "PUT",
              "url": "Practitioner/8af87360-4a75-1531-6192-9bdbb1b0351c"
          }
      },
      {
          "fullUrl": "urn:uuid:d4536528-5e14-2c7a-8d87-c0dcd7311649",
          "resource": {
              "resourceType": "PractitionerRole",
              "id": "d4536528-5e14-2c7a-8d87-c0dcd7311649",
              "code": [
                  {
                      "coding": [
                          {
                              "code": "OP",
                              "display": "Ordering Provider",
                              "system": "http://terminology.hl7.org/CodeSystem/v2-0443"
                          }
                      ]
                  }
              ],
              "practitioner": {
                  "reference": "Practitioner/8af87360-4a75-1531-6192-9bdbb1b0351c"
              }
          },
          "request": {
              "method": "PUT",
              "url": "PractitionerRole/d4536528-5e14-2c7a-8d87-c0dcd7311649"
          }
      },
      {
          "fullUrl": "urn:uuid:b3a1bcae-087f-966b-7cfd-fc61a168d02a",
          "resource": {
              "resourceType": "Specimen",
              "id": "b3a1bcae-087f-966b-7cfd-fc61a168d02a",
              "collection": {
                  "collectedDateTime": "2021-10-20T15:15:00+05:30"
              },
              "request": [
                  {
                      "reference": "ServiceRequest/20d84998-5ed2-d428-4ff3-fbeb9a9054a6"
                  }
              ]
          },
          "request": {
              "method": "PUT",
              "url": "Specimen/b3a1bcae-087f-966b-7cfd-fc61a168d02a"
          }
      },
      {
          "fullUrl": "urn:uuid:e06055fc-0230-24ef-7d66-7ae83cafb322",
          "resource": {
              "resourceType": "Condition",
              "id": "e06055fc-0230-24ef-7d66-7ae83cafb322",
              "code": {
                  "coding": [
                      {
                          "code": "E10.9",
                          "display": "Diabetes Mellitus Type 1",
                          "system": "http://hl7.org/fhir/sid/icd-10"
                      }
                  ],
                  "text": "Diabetes"
              },
              "onsetDateTime": "2020-05-01T15:45:09+05:30",
              "identifier": [
                  {
                      "value": "DG1002"
                  }
              ],
              "asserter": {
                  "reference": "Practitioner/8af87360-4a75-1531-6192-9bdbb1b0351c"
              },
              "subject": {
                  "reference": "Patient/9e909e52-61a1-be50-1878-a12ef8c36346"
              },
              "extension": [
                  {
                      "url": "http://hl7.org/fhir/StructureDefinition/condition-assertedDate",
                      "valueDateTime": "2020-05-01T16:45:15+05:30"
                  }
              ]
          },
          "request": {
              "method": "PUT",
              "url": "Condition/e06055fc-0230-24ef-7d66-7ae83cafb322"
          }
      },
      {
          "fullUrl": "urn:uuid:e82402a9-b2d1-2a28-3250-c099d5a77bf7",
          "resource": {
              "resourceType": "Organization",
              "id": "e82402a9-b2d1-2a28-3250-c099d5a77bf7",
              "identifier": [
                  {
                      "value": "PERSt",
                      "system": "http://example.com/v2-to-fhir-converter/Identifier/PERSt"
                  },
                  {
                      "value": "1.23",
                      "system": "http://example.com/v2-to-fhir-converter/Identifier/HCD",
                      "type": {
                          "coding": [
                              {
                                  "code": "HCD",
                                  "display": "The CEN Healthcare Coding Scheme Designator",
                                  "system": "http://terminology.hl7.org/CodeSystem/v2-0301"
                              }
                          ]
                      }
                  }
              ]
          },
          "request": {
              "method": "PUT",
              "url": "Organization/e82402a9-b2d1-2a28-3250-c099d5a77bf7"
          }
      },
      {
          "fullUrl": "urn:uuid:ce70e6c3-c190-121d-c251-e4bae5cde6a1",
          "resource": {
              "resourceType": "Practitioner",
              "id": "ce70e6c3-c190-121d-c251-e4bae5cde6a1",
              "identifier": [
                  {
                      "value": "1134",
                      "system": "http://example.com/v2-to-fhir-converter/Identifier/HCD",
                      "assigner": {
                          "reference": "Organization/e82402a9-b2d1-2a28-3250-c099d5a77bf7"
                      },
                      "type": {
                          "coding": [
                              {
                                  "code": "BR",
                                  "display": "Birth registry number",
                                  "system": "http://terminology.hl7.org/CodeSystem/v2-0203"
                              }
                          ]
                      }
                  }
              ],
              "name": [
                  {
                      "family": "Aly",
                      "given": [
                          "Zafar",
                          "Mahendra"
                      ],
                      "suffix": [
                          "JR",
                          "MD",
                          "Al"
                      ],
                      "prefix": [
                          "Dr."
                      ],
                      "period": {
                          "start": "1924-10-10",
                          "end": "1924-10-15"
                      }
                  }
              ]
          },
          "request": {
              "method": "PUT",
              "url": "Practitioner/ce70e6c3-c190-121d-c251-e4bae5cde6a1"
          }
      },
      {
          "fullUrl": "urn:uuid:88a53755-c972-6904-b4ce-8884b84ddc2e",
          "resource": {
              "resourceType": "PractitionerRole",
              "id": "88a53755-c972-6904-b4ce-8884b84ddc2e",
              "code": [
                  {
                      "coding": [
                          {
                              "code": "RO",
                              "display": "Responsible Observer",
                              "system": "http://terminology.hl7.org/CodeSystem/v2-0443"
                          }
                      ]
                  }
              ],
              "practitioner": {
                  "reference": "Practitioner/ce70e6c3-c190-121d-c251-e4bae5cde6a1"
              }
          },
          "request": {
              "method": "PUT",
              "url": "PractitionerRole/88a53755-c972-6904-b4ce-8884b84ddc2e"
          }
      },
      {
          "fullUrl": "urn:uuid:960162f4-e8c5-e229-eb52-e6f3f6224edc",
          "resource": {
              "resourceType": "Device",
              "id": "960162f4-e8c5-e229-eb52-e6f3f6224edc",
              "identifier": [
                  {
                      "value": "EI12.3",
                      "system": "urn:uuid:426d2726-51fc-89fe-a946-8596e80a80eb",
                      "type": {
                          "coding": [
                              {
                                  "code": "GUID",
                                  "display": "The DCE Universal Unique Identifier, in accordance with RFC 4122. Recommended format is 32 hexadecimal digits separated by hyphens, in the digit grouping 8-4-4-4-12",
                                  "system": "http://terminology.hl7.org/CodeSystem/v2-0301"
                              }
                          ]
                      }
                  },
                  {
                      "system": "urn:oid:1.3.6.1.4.1.44750.1.2.2",
                      "type": {
                          "coding": [
                              {
                                  "code": "ISO",
                                  "display": "An International Standards Organization Object Identifier (OID), in accordance with ISO/IEC 8824. Formatted as decimal digits separated by periods; recommended limit of 64 characters",
                                  "system": "http://terminology.hl7.org/CodeSystem/v2-0301"
                              }
                          ]
                      }
                  }
              ]
          },
          "request": {
              "method": "PUT",
              "url": "Device/960162f4-e8c5-e229-eb52-e6f3f6224edc"
          }
      },
      {
          "fullUrl": "urn:uuid:45f65e47-46c4-1a54-f9fb-1321258e79b2",
          "resource": {
              "resourceType": "Practitioner",
              "id": "45f65e47-46c4-1a54-f9fb-1321258e79b2",
              "identifier": [
                  {
                      "type": {
                          "coding": [
                              {
                                  "code": "MD-25"
                              }
                          ]
                      }
                  }
              ]
          },
          "request": {
              "method": "PUT",
              "url": "Practitioner/45f65e47-46c4-1a54-f9fb-1321258e79b2"
          }
      },
      {
          "fullUrl": "urn:uuid:090ea2e4-0a3a-eb7f-8f9f-16dd7d13f7f3",
          "resource": {
              "resourceType": "PractitionerRole",
              "id": "090ea2e4-0a3a-eb7f-8f9f-16dd7d13f7f3",
              "code": [
                  {
                      "coding": [
                          {
                              "code": "MDIR",
                              "display": "Medical Director",
                              "system": "http://terminology.hl7.org/CodeSystem/v2-0443"
                          }
                      ]
                  }
              ],
              "practitioner": {
                  "reference": "Practitioner/45f65e47-46c4-1a54-f9fb-1321258e79b2"
              },
              "organization": {
                  "reference": "Organization/471d566b-0070-ed72-9053-acae6a39acb6"
              }
          },
          "request": {
              "method": "PUT",
              "url": "PractitionerRole/090ea2e4-0a3a-eb7f-8f9f-16dd7d13f7f3"
          }
      },
      {
          "fullUrl": "urn:uuid:471d566b-0070-ed72-9053-acae6a39acb6",
          "resource": {
              "resourceType": "Organization",
              "id": "471d566b-0070-ed72-9053-acae6a39acb6",
              "name": "State Hygienic Laboratory",
              "identifier": [
                  {
                      "value": "16D0648109",
                      "type": {
                          "coding": [
                              {
                                  "code": "FI",
                                  "system": "http://terminology.hl7.org/CodeSystem/v2-0203"
                              }
                          ]
                      }
                  }
              ],
              "address": [
                  {
                      "line": [
                          "State Hygienic Laboratory",
                          "UI Research Park -Coralville"
                      ],
                      "city": "Iowa City",
                      "state": "IA",
                      "postalCode": "52242-5002",
                      "country": "USA",
                      "use": "work"
                  }
              ]
          },
          "request": {
              "method": "PUT",
              "url": "Organization/471d566b-0070-ed72-9053-acae6a39acb6"
          }
      },
      {
          "fullUrl": "urn:uuid:16335be6-44e0-0cc2-9a7f-17c89e266592",
          "resource": {
              "resourceType": "Observation",
              "id": "16335be6-44e0-0cc2-9a7f-17c89e266592",
              "identifier": [
                  {
                      "value": "EI21",
                      "system": "http://example.com/v2-to-fhir-converter/Identifier/OII"
                  },
                  {
                      "type": {
                          "coding": [
                              {
                                  "code": "FILL"
                              }
                          ]
                      }
                  }
              ],
              "status": "preliminary",
              "code": {
                  "coding": [
                      {
                          "code": "625-4",
                          "display": "Bacteria identified in Stool by Culture",
                          "system": "http://example.com/v2-to-fhir-converter/CodeSystem/XYZ",
                          "version": "2.33"
                      }
                  ],
                  "text": "result1"
              },
              "basedOn": [
                  {
                      "reference": "ServiceRequest/20d84998-5ed2-d428-4ff3-fbeb9a9054a6"
                  }
              ],
              "valueCodeableConcept": {
                  "coding": [
                      {
                          "code": "27268008",
                          "display": "Salmonella",
                          "system": "http://snomed.info/sct"
                      }
                  ],
                  "text": "Salmonella species"
              },
              "referenceRange": [
                  {
                      "text": "70-80"
                  }
              ],
              "effectiveDateTime": "2012-03-01",
              "method": {
                  "text": "Bacterial Culture"
              },
              "device": {
                  "reference": "Device/960162f4-e8c5-e229-eb52-e6f3f6224edc"
              },
              "bodySite": {
                  "coding": [
                      {
                          "code": "BU",
                          "display": "Observation site",
                          "system": "http://example.com/v2-to-fhir-converter/CodeSystem/E5"
                      }
                  ]
              },
              "performer": [
                  {
                      "reference": "PractitionerRole/88a53755-c972-6904-b4ce-8884b84ddc2e"
                  },
                  {
                      "reference": "PractitionerRole/090ea2e4-0a3a-eb7f-8f9f-16dd7d13f7f3"
                  }
              ],
              "interpretation": [
                  {
                      "coding": [
                          {
                              "code": "A",
                              "display": "Abnormal",
                              "system": "http://terminology.hl7.org/CodeSystem/v3-ObservationInterpretation",
                              "version": "2.5"
                          }
                      ]
                  }
              ],
              "subject": {
                  "reference": "Patient/9e909e52-61a1-be50-1878-a12ef8c36346"
              },
              "extension": [
                  {
                      "url": "http://example.com/v2-to-fhir-converter/Observation_Status",
                      "valueCodeableConcept": {
                          "coding": [
                              {
                                  "code": "P",
                                  "display": "Preliminary",
                                  "system": "http://terminology.hl7.org/CodeSystem/v2-0085"
                              }
                          ],
                          "text": "Preliminary"
                      }
                  }
              ],
              "note": [
                  {
                      "text": "No Antibodies Detected",
                      "time": "2020-10-10T18:15:00+05:30",
                      "authorReference": {
                          "reference": "Practitioner/ca6d10cc-e8a7-9d21-bd61-ec6d1db557c2"
                      }
                  }
              ]
          },
          "request": {
              "method": "PUT",
              "url": "Observation/16335be6-44e0-0cc2-9a7f-17c89e266592"
          }
      },
      {
          "fullUrl": "urn:uuid:ca6d10cc-e8a7-9d21-bd61-ec6d1db557c2",
          "resource": {
              "resourceType": "Practitioner",
              "id": "ca6d10cc-e8a7-9d21-bd61-ec6d1db557c2",
              "identifier": [
                  {
                      "value": "MLEE"
                  }
              ],
              "name": [
                  {
                      "family": "ATTEND",
                      "given": [
                          "AARON",
                          "A"
                      ],
                      "suffix": [
                          "MD"
                      ]
                  }
              ]
          },
          "request": {
              "method": "PUT",
              "url": "Practitioner/ca6d10cc-e8a7-9d21-bd61-ec6d1db557c2"
          }
      },
      {
          "fullUrl": "urn:uuid:257786a3-0c2e-44c7-69ea-3456e7152e68",
          "resource": {
              "resourceType": "DiagnosticReport",
              "id": "257786a3-0c2e-44c7-69ea-3456e7152e68",
              "code": {
                  "coding": [
                      {
                          "code": "1063-7",
                          "display": "Serum or Plasma",
                          "system": "http://example.com/v2-to-fhir-converter/CodeSystem/XYZ",
                          "version": "2.33"
                      }
                  ],
                  "text": "result1"
              },
              "basedOn": [
                  {
                      "reference": "ServiceRequest/20d84998-5ed2-d428-4ff3-fbeb9a9054a6"
                  }
              ],
              "status": "unknown",
              "presentedForm": [
                  {
                      "contentType": "image/pict",
                      "url": "https://testurl.com"
                  }
              ],
              "subject": {
                  "reference": "Patient/9e909e52-61a1-be50-1878-a12ef8c36346"
              }
          },
          "request": {
              "method": "PUT",
              "url": "DiagnosticReport/257786a3-0c2e-44c7-69ea-3456e7152e68"
          }
      },
      {
          "fullUrl": "urn:uuid:93cb07c2-034f-56b1-9a47-558f231eeea0",
          "resource": {
              "resourceType": "Specimen",
              "id": "93cb07c2-034f-56b1-9a47-558f231eeea0",
              "identifier": [
                  {
                      "value": "2012545",
                      "type": {
                          "coding": [
                              {
                                  "code": "PGN",
                                  "system": "http://terminology.hl7.org/CodeSystem/v2-0203"
                              }
                          ]
                      }
                  },
                  {
                      "value": "2012999999",
                      "type": {
                          "coding": [
                              {
                                  "code": "FGN",
                                  "system": "http://terminology.hl7.org/CodeSystem/v2-0203"
                              }
                          ]
                      }
                  },
                  {
                      "value": "OSI-31",
                      "type": {
                          "coding": [
                              {
                                  "code": "PI",
                                  "system": "http://terminology.hl7.org/CodeSystem/v2-0203",
                                  "display": "Patient internal identifier"
                              }
                          ]
                      },
                      "system": "urn:uuid:426d2726-51fc-89fe-a946-8596e80a80eb",
                      "assigner": {
                          "reference": "Organization/0912ab5e-fd38-78ec-6eb8-13abac5db6a5"
                      }
                  },
                  {
                      "value": "ShipID-32",
                      "system": "urn:oid:1.3.6.1.4.1.44750.1.2.2",
                      "type": {
                          "coding": [
                              {
                                  "code": "SHIP",
                                  "display": "Shipment ID",
                                  "system": "http://example.com/v2-to-fhir-converter/CodeSystem/identifier-type-code"
                              }
                          ]
                      }
                  }
              ],
              "type": {
                  "coding": [
                      {
                          "code": "ASERU",
                          "display": "Serum",
                          "system": "http://terminology.hl7.org/CodeSystem/v2-0487"
                      },
                      {
                          "code": "FUR",
                          "system": "http://terminology.hl7.org/CodeSystem/v2-0487"
                      }
                  ],
                  "text": "Blood"
              },
              "collection": {
                  "quantity": {
                      "value": 40,
                      "unit": "lbs"
                  },
                  "bodySite": {
                      "coding": [
                          {
                              "code": "BAP",
                              "system": "http://example.com/v2-to-fhir-converter/CodeSystem/HL70488"
                          }
                      ],
                      "text": "Specimen source site"
                  },
                  "method": {
                      "coding": [
                          {
                              "code": "BCAE",
                              "system": "http://terminology.hl7.org/CodeSystem/v2-0488"
                          }
                      ]
                  },
                  "collectedPeriod": {
                      "start": "2011-01-04T04:04:28+05:30",
                      "end": "2011-11-04T04:04:28+05:30"
                  },
                  "extension": [
                      {
                          "url": "http://hl7.org/fhir/StructureDefinition/specimen-specialHandling",
                          "valueCodeableConcept": {
                              "coding": [
                                  {
                                      "code": "AMB",
                                      "display": "Ambient Temperature",
                                      "system": "http://terminology.hl7.org/CodeSystem/v2-0376"
                                  },
                                  {
                                      "code": "DRY",
                                      "display": "dry",
                                      "system": "http://terminology.hl7.org/CodeSystem/v2-0376"
                                  }
                              ]
                          }
                      }
                  ]
              },
              "receivedTime": "2012-03-01",
              "container": [
                  {
                      "identifier": [
                          {
                              "value": "A59032"
                          }
                      ],
                      "capacity": {
                          "value": 10,
                          "unit": "ML"
                      },
                      "additiveCodeableConcept": {
                          "coding": [
                              {
                                  "code": "STUTM",
                                  "display": "Stuart transport medium",
                                  "system": "http://terminology.hl7.org/CodeSystem/v2-0371",
                                  "version": "20"
                              },
                              {
                                  "code": "PHENOL",
                                  "display": "Stool",
                                  "system": "http://terminology.hl7.org/CodeSystem/v2-0371"
                              }
                          ]
                      },
                      "type": {
                          "coding": [
                              {
                                  "code": "T-container",
                                  "display": "ContainerType",
                                  "system": "http://example.com/v2-to-fhir-converter/CodeSystem/ABC"
                              }
                          ]
                      },
                      "specimenQuantity": {
                          "value": 5,
                          "unit": "ML"
                      }
                  }
              ],
              "status": "available",
              "condition": [
                  {
                      "coding": [
                          {
                              "code": "AUT",
                              "display": "Autolyzed",
                              "system": "http://terminology.hl7.org/CodeSystem/v2-0493"
                          },
                          {
                              "code": "CLOT",
                              "display": "CLOT",
                              "system": "http://terminology.hl7.org/CodeSystem/v2-0493"
                          }
                      ]
                  },
                  {
                      "coding": [
                          {
                              "code": "HEM",
                              "display": "HEM",
                              "system": "http://terminology.hl7.org/CodeSystem/v2-0493"
                          }
                      ]
                  }
              ],
              "accessionIdentifier": {
                  "value": "AI-30",
                  "type": {
                      "coding": [
                          {
                              "code": "PI",
                              "system": "http://terminology.hl7.org/CodeSystem/v2-0203",
                              "display": "Patient internal identifier"
                          }
                      ]
                  },
                  "system": "urn:oid:1.3.6.1.4.1.44750.1.2.2",
                  "assigner": {
                      "reference": "Organization/b2686a80-120d-ef7a-b107-2a6c1a5c98ff"
                  }
              },
              "note": [
                  {
                      "text": "This is a specimen resource"
                  }
              ],
              "request": [
                  {
                      "reference": "ServiceRequest/20d84998-5ed2-d428-4ff3-fbeb9a9054a6"
                  }
              ],
              "parent": [
                  {
                      "reference": "Specimen/0755f744-dafd-776b-bff7-2d023e54406e"
                  }
              ]
          },
          "request": {
              "method": "PUT",
              "url": "Specimen/93cb07c2-034f-56b1-9a47-558f231eeea0"
          }
      },
      {
          "fullUrl": "urn:uuid:9216aed5-efd7-bd84-23b9-aca219d8b23b",
          "resource": {
              "resourceType": "DiagnosticReport",
              "id": "9216aed5-efd7-bd84-23b9-aca219d8b23b",
              "identifier": [
                  {
                      "value": "40bcbe96bcbf8cda8b07403263b92cb4",
                      "system": "http://example.com/v2-to-fhir-converter/Identifier/3DHISTECH_SLDID"
                  },
                  {
                      "type": {
                          "coding": [
                              {
                                  "code": "FILL"
                              }
                          ]
                      }
                  }
              ],
              "code": {
                  "coding": [
                      {
                          "code": "3DHISTH_SLD",
                          "display": "3DHISTECH Digital Slide",
                          "system": "http://example.com/v2-to-fhir-converter/CodeSystem/L"
                      }
                  ]
              },
              "status": "unknown",
              "presentedForm": [
                  {
                      "contentType": "image/MRXS",
                      "url": "http://172.16.237.4/CaseCenter/index.php?ContainerType=CaseView&ContainerID=0&SlideID=40bcbe96bcbf8cda8b07403263b92cb4"
                  }
              ],
              "subject": {
                  "reference": "Patient/9e909e52-61a1-be50-1878-a12ef8c36346"
              },
              "specimen": [
                  {
                      "reference": "Specimen/93cb07c2-034f-56b1-9a47-558f231eeea0"
                  }
              ]
          },
          "request": {
              "method": "PUT",
              "url": "DiagnosticReport/9216aed5-efd7-bd84-23b9-aca219d8b23b"
          }
      },
      {
          "fullUrl": "urn:uuid:0755f744-dafd-776b-bff7-2d023e54406e",
          "resource": {
              "resourceType": "Specimen",
              "id": "0755f744-dafd-776b-bff7-2d023e54406e",
              "identifier": [
                  {
                      "value": "PAI12",
                      "type": {
                          "coding": [
                              {
                                  "code": "PGN",
                                  "system": "http://terminology.hl7.org/CodeSystem/v2-0203"
                              }
                          ]
                      }
                  }
              ]
          },
          "request": {
              "method": "PUT",
              "url": "Specimen/0755f744-dafd-776b-bff7-2d023e54406e"
          }
      },
      {
          "fullUrl": "urn:uuid:b2686a80-120d-ef7a-b107-2a6c1a5c98ff",
          "resource": {
              "resourceType": "Organization",
              "id": "b2686a80-120d-ef7a-b107-2a6c1a5c98ff",
              "identifier": [
                  {
                      "value": "IA PHIMS Stage",
                      "system": "http://example.com/v2-to-fhir-converter/Identifier/IA-PHIMS-Stage"
                  },
                  {
                      "value": "urn:oid:1.3.6.1.4.1.44750.1.2.2",
                      "system": "urn:ietf:rfc:3986",
                      "type": {
                          "coding": [
                              {
                                  "code": "ISO",
                                  "display": "An International Standards Organization Object Identifier (OID), in accordance with ISO/IEC 8824. Formatted as decimal digits separated by periods; recommended limit of 64 characters",
                                  "system": "http://terminology.hl7.org/CodeSystem/v2-0301"
                              }
                          ]
                      }
                  }
              ]
          },
          "request": {
              "method": "PUT",
              "url": "Organization/b2686a80-120d-ef7a-b107-2a6c1a5c98ff"
          }
      },
      {
          "fullUrl": "urn:uuid:0912ab5e-fd38-78ec-6eb8-13abac5db6a5",
          "resource": {
              "resourceType": "Organization",
              "id": "0912ab5e-fd38-78ec-6eb8-13abac5db6a5",
              "identifier": [
                  {
                      "value": "IPHIMS Stage",
                      "system": "http://example.com/v2-to-fhir-converter/Identifier/IPHIMS-Stage"
                  },
                  {
                      "value": "urn:uuid:426d2726-51fc-89fe-a946-8596e80a80eb",
                      "system": "urn:ietf:rfc:3986",
                      "type": {
                          "coding": [
                              {
                                  "code": "GUID",
                                  "display": "The DCE Universal Unique Identifier, in accordance with RFC 4122. Recommended format is 32 hexadecimal digits separated by hyphens, in the digit grouping 8-4-4-4-12",
                                  "system": "http://terminology.hl7.org/CodeSystem/v2-0301"
                              }
                          ]
                      }
                  }
              ]
          },
          "request": {
              "method": "PUT",
              "url": "Organization/0912ab5e-fd38-78ec-6eb8-13abac5db6a5"
          }
      },
      {
          "fullUrl": "urn:uuid:4355ddc5-5edc-38ea-65e6-cd3479bcd9f5",
          "resource": {
              "resourceType": "Observation",
              "id": "4355ddc5-5edc-38ea-65e6-cd3479bcd9f5",
              "status": "unknown",
              "code": {
                  "coding": [
                      {
                          "code": "8867-4",
                          "display": "Bacteria identified",
                          "system": "http://loinc.org",
                          "version": "2.33"
                      }
                  ],
                  "text": "result1"
              },
              "component": [
                  {
                      "code": {
                          "coding": [
                              {
                                  "code": "8867-4",
                                  "display": "Bacteria identified",
                                  "system": "http://loinc.org",
                                  "version": "2.33"
                              }
                          ],
                          "text": "result1"
                      },
                      "valueQuantity": {
                          "value": 27
                      }
                  },
                  {
                      "code": {
                          "coding": [
                              {
                                  "code": "8867-4",
                                  "display": "Bacteria identified",
                                  "system": "http://loinc.org",
                                  "version": "2.33"
                              }
                          ],
                          "text": "result1"
                      },
                      "valueQuantity": {
                          "value": 25
                      }
                  }
              ],
              "subject": {
                  "reference": "Patient/9e909e52-61a1-be50-1878-a12ef8c36346"
              },
              "specimen": {
                  "reference": "Specimen/93cb07c2-034f-56b1-9a47-558f231eeea0"
              },
              "extension": [
                  {
                      "url": "http://example.com/v2-to-fhir-converter/Observation_Status",
                      "valueCodeableConcept": {
                          "coding": [
                              {
                                  "code": "I",
                                  "display": "In Process",
                                  "system": "http://terminology.hl7.org/CodeSystem/v2-0085"
                              }
                          ],
                          "text": "In Process"
                      }
                  }
              ]
          },
          "request": {
              "method": "PUT",
              "url": "Observation/4355ddc5-5edc-38ea-65e6-cd3479bcd9f5"
          }
      },
      {
          "fullUrl": "urn:uuid:ce04b188-4d90-7a2a-faca-d5dc62ec53ca",
          "resource": {
              "resourceType": "Account",
              "id": "ce04b188-4d90-7a2a-faca-d5dc62ec53ca",
              "identifier": [
                  {
                      "value": "AI168",
                      "type": {
                          "coding": [
                              {
                                  "code": "MR",
                                  "system": "http://terminology.hl7.org/CodeSystem/v2-0203",
                                  "display": "Medical record number"
                              }
                          ]
                      },
                      "system": "http://example.com/v2-to-fhir-converter/Identifier/DNS"
                  }
              ],
              "status": "active"
          },
          "request": {
              "method": "PUT",
              "url": "Account/ce04b188-4d90-7a2a-faca-d5dc62ec53ca"
          }
      },
      {
          "fullUrl": "urn:uuid:efc256b2-6f47-d905-3279-bea236bf89bf",
          "resource": {
              "resourceType": "ChargeItem",
              "id": "efc256b2-6f47-d905-3279-bea236bf89bf",
              "status": "unknown",
              "identifier": [
                  {
                      "value": "12345",
                      "system": "http://example.com/v2-to-fhir-converter/Identifier/L",
                      "type": {
                          "coding": [
                              {
                                  "system": "http://example.com/v2-to-fhir-converter/CodeSystem/identifier-type-code",
                                  "code": "TID",
                                  "display": "ChargeItem Transaction ID"
                              }
                          ]
                      }
                  }
              ],
              "occurrenceDateTime": "2019-11-22",
              "enteredDate": "2019-11-22",
              "code": {
                  "coding": [
                      {
                          "code": "71045",
                          "display": "Xray exam chest 1 view",
                          "system": "http://www.ama-assn.org/go/cpt"
                      }
                  ]
              },
              "quantity": {
                  "value": 2
              },
              "priceOverride": {
                  "value": 100,
                  "currency": "USD"
              },
              "reason": [
                  {
                      "coding": [
                          {
                              "code": "29857009",
                              "display": "Chest pain",
                              "system": "http://snomed.info/sct"
                          }
                      ]
                  },
                  {
                      "coding": [
                          {
                              "code": "68235000",
                              "display": "Nasal congestion",
                              "system": "http://snomed.info/sct"
                          }
                      ]
                  }
              ],
              "subject": {
                  "reference": "Patient/9e909e52-61a1-be50-1878-a12ef8c36346"
              },
              "account": [
                  {
                      "reference": "Account/4ad7c7d0-b69a-0653-9ea9-0979b8a66b39"
                  },
                  {
                      "reference": "Account/ce04b188-4d90-7a2a-faca-d5dc62ec53ca"
                  }
              ],
              "context": {
                  "reference": "Encounter/da6f322f-ef5e-4f2c-c1f8-6e38dffbf995"
              },
              "costCenter": {
                  "reference": "Organization/4082dc60-f9b6-5d4a-1ef2-5a40f7454e4b"
              },
              "performer": [
                  {
                      "actor": {
                          "reference": "Practitioner/3ec3c243-2f18-287a-4275-a062f0131a03"
                      }
                  }
              ],
              "enterer": {
                  "reference": "Practitioner/e43414a7-79a4-70bb-e4d0-245f330edfa6"
              },
              "service": [
                  {
                      "reference": "Procedure/42d212a7-51b3-ff63-59e9-c2e76dc3fb9f",
                      "type": "Procedure"
                  },
                  {
                      "reference": "MedicationDispense/89aec882-37e4-c3f0-bfb6-3e61fae267ea",
                      "type": "MedicationDispense"
                  }
              ],
              "performingOrganization": {
                  "reference": "Organization/3b0fa4d6-84b9-6c3e-c81d-231c9f16330a"
              },
              "requestingOrganization": {
                  "reference": "Organization/379abbe1-0596-62f8-5218-4f988127cd70"
              },
              "productReference": {
                  "reference": "Device/2676707e-6e0a-3a9d-9b51-1b035b7f5f1f"
              }
          },
          "request": {
              "method": "PUT",
              "url": "ChargeItem/efc256b2-6f47-d905-3279-bea236bf89bf"
          }
      },
      {
          "fullUrl": "urn:uuid:4082dc60-f9b6-5d4a-1ef2-5a40f7454e4b",
          "resource": {
              "resourceType": "Organization",
              "id": "4082dc60-f9b6-5d4a-1ef2-5a40f7454e4b",
              "identifier": [
                  {
                      "value": "RAD-1",
                      "system": "http://example.com/v2-to-fhir-converter/Identifier/L"
                  }
              ],
              "name": "Radiology Deptt"
          },
          "request": {
              "method": "PUT",
              "url": "Organization/4082dc60-f9b6-5d4a-1ef2-5a40f7454e4b"
          }
      },
      {
          "fullUrl": "urn:uuid:3ec3c243-2f18-287a-4275-a062f0131a03",
          "resource": {
              "resourceType": "Practitioner",
              "id": "3ec3c243-2f18-287a-4275-a062f0131a03",
              "identifier": [
                  {
                      "value": "9941339108",
                      "system": "urn:oid:2.16.840.1.113883.4.6",
                      "type": {
                          "coding": [
                              {
                                  "code": "NPI",
                                  "display": "National provider identifier",
                                  "system": "http://terminology.hl7.org/CodeSystem/v2-0203"
                              }
                          ]
                      }
                  }
              ],
              "name": [
                  {
                      "family": "Smith",
                      "given": [
                          "Adam"
                      ]
                  }
              ]
          },
          "request": {
              "method": "PUT",
              "url": "Practitioner/3ec3c243-2f18-287a-4275-a062f0131a03"
          }
      },
      {
          "fullUrl": "urn:uuid:e43414a7-79a4-70bb-e4d0-245f330edfa6",
          "resource": {
              "resourceType": "Practitioner",
              "id": "e43414a7-79a4-70bb-e4d0-245f330edfa6",
              "identifier": [
                  {
                      "value": "9941339116",
                      "system": "urn:oid:2.16.840.1.113883.4.6",
                      "type": {
                          "coding": [
                              {
                                  "code": "NPI",
                                  "display": "National provider identifier",
                                  "system": "http://terminology.hl7.org/CodeSystem/v2-0203"
                              }
                          ]
                      }
                  }
              ],
              "name": [
                  {
                      "family": "Mellie",
                      "given": [
                          "John"
                      ]
                  }
              ]
          },
          "request": {
              "method": "PUT",
              "url": "Practitioner/e43414a7-79a4-70bb-e4d0-245f330edfa6"
          }
      },
      {
          "fullUrl": "urn:uuid:42d212a7-51b3-ff63-59e9-c2e76dc3fb9f",
          "resource": {
              "resourceType": "Procedure",
              "id": "42d212a7-51b3-ff63-59e9-c2e76dc3fb9f",
              "code": {
                  "coding": [
                      {
                          "code": "71045",
                          "display": "Xray exam chest 1 view",
                          "system": "http://www.ama-assn.org/go/cpt"
                      }
                  ]
              },
              "status": "unknown",
              "subject": {
                  "reference": "Patient/9e909e52-61a1-be50-1878-a12ef8c36346"
              }
          },
          "request": {
              "method": "PUT",
              "url": "Procedure/42d212a7-51b3-ff63-59e9-c2e76dc3fb9f"
          }
      },
      {
          "fullUrl": "urn:uuid:89aec882-37e4-c3f0-bfb6-3e61fae267ea",
          "resource": {
              "resourceType": "MedicationDispense",
              "id": "89aec882-37e4-c3f0-bfb6-3e61fae267ea",
              "quantity": {
                  "value": 5,
                  "unit": "Capsule"
              },
              "authorizingPrescription": [
                  {
                      "identifier": {
                          "value": "PN-12345",
                          "type": {
                              "coding": [
                                  {
                                      "system": "http://example.com/v2-to-fhir-converter/CodeSystem/identifier-type-code",
                                      "code": "PRN",
                                      "display": "Prescription Number"
                                  }
                              ]
                          }
                      },
                      "type": "MedicationRequest"
                  }
              ],
              "status": "unknown",
              "subject": {
                  "reference": "Patient/9e909e52-61a1-be50-1878-a12ef8c36346"
              },
              "medicationCodeableConcept": {
                  "coding": [
                      {
                          "code": "0182-1061-05",
                          "display": "ASPIRIN EC",
                          "system": "http://hl7.org/fhir/sid/ndc"
                      }
                  ]
              }
          },
          "request": {
              "method": "PUT",
              "url": "MedicationDispense/89aec882-37e4-c3f0-bfb6-3e61fae267ea"
          }
      },
      {
          "fullUrl": "urn:uuid:3b0fa4d6-84b9-6c3e-c81d-231c9f16330a",
          "resource": {
              "resourceType": "Organization",
              "id": "3b0fa4d6-84b9-6c3e-c81d-231c9f16330a",
              "name": "Good Health Hospital",
              "identifier": [
                  {
                      "value": "544",
                      "type": {
                          "coding": [
                              {
                                  "code": "XX",
                                  "system": "http://terminology.hl7.org/CodeSystem/v2-0203"
                              }
                          ]
                      }
                  }
              ]
          },
          "request": {
              "method": "PUT",
              "url": "Organization/3b0fa4d6-84b9-6c3e-c81d-231c9f16330a"
          }
      },
      {
          "fullUrl": "urn:uuid:379abbe1-0596-62f8-5218-4f988127cd70",
          "resource": {
              "resourceType": "Organization",
              "id": "379abbe1-0596-62f8-5218-4f988127cd70",
              "name": "GOOD HEALTH HOSPITAL",
              "identifier": [
                  {
                      "value": "123456789"
                  }
              ]
          },
          "request": {
              "method": "PUT",
              "url": "Organization/379abbe1-0596-62f8-5218-4f988127cd70"
          }
      },
      {
          "fullUrl": "urn:uuid:2676707e-6e0a-3a9d-9b51-1b035b7f5f1f",
          "resource": {
              "resourceType": "Device",
              "id": "2676707e-6e0a-3a9d-9b51-1b035b7f5f1f",
              "identifier": [
                  {
                      "value": "Item-12345",
                      "system": "http://example.com/v2-to-fhir-converter/Identifier/L"
                  }
              ],
              "modelNumber": "Model-12345",
              "patient": {
                  "reference": "Patient/9e909e52-61a1-be50-1878-a12ef8c36346"
              }
          },
          "request": {
              "method": "PUT",
              "url": "Device/2676707e-6e0a-3a9d-9b51-1b035b7f5f1f"
          }
      },
      {
          "fullUrl": "urn:uuid:04416b40-122a-dff9-33f8-50643b805a97",
          "resource": {
              "resourceType": "ChargeItem",
              "id": "04416b40-122a-dff9-33f8-50643b805a97",
              "status": "unknown",
              "occurrenceDateTime": "2019-11-22",
              "enteredDate": "2019-11-22",
              "code": {
                  "coding": [
                      {
                          "code": "626.2"
                      }
                  ]
              },
              "quantity": {
                  "value": 1
              },
              "priceOverride": {
                  "value": 120,
                  "currency": "USD"
              },
              "reason": [
                  {
                      "coding": [
                          {
                              "code": "29857009",
                              "display": "Chest pain",
                              "system": "http://snomed.info/sct"
                          }
                      ]
                  }
              ],
              "subject": {
                  "reference": "Patient/9e909e52-61a1-be50-1878-a12ef8c36346"
              },
              "account": [
                  {
                      "reference": "Account/4ad7c7d0-b69a-0653-9ea9-0979b8a66b39"
                  },
                  {
                      "reference": "Account/ce04b188-4d90-7a2a-faca-d5dc62ec53ca"
                  }
              ],
              "context": {
                  "reference": "Encounter/da6f322f-ef5e-4f2c-c1f8-6e38dffbf995"
              },
              "performer": [
                  {
                      "actor": {
                          "reference": "Practitioner/6edf05ac-4023-ee6a-c529-e29ff94fbde6"
                      }
                  }
              ],
              "service": [
                  {
                      "reference": "Procedure/be5b888b-368a-160a-39c7-267e5421e6c5",
                      "type": "Procedure"
                  }
              ]
          },
          "request": {
              "method": "PUT",
              "url": "ChargeItem/04416b40-122a-dff9-33f8-50643b805a97"
          }
      },
      {
          "fullUrl": "urn:uuid:6edf05ac-4023-ee6a-c529-e29ff94fbde6",
          "resource": {
              "resourceType": "Practitioner",
              "id": "6edf05ac-4023-ee6a-c529-e29ff94fbde6"
          },
          "request": {
              "method": "PUT",
              "url": "Practitioner/6edf05ac-4023-ee6a-c529-e29ff94fbde6"
          }
      },
      {
          "fullUrl": "urn:uuid:be5b888b-368a-160a-39c7-267e5421e6c5",
          "resource": {
              "resourceType": "Procedure",
              "id": "be5b888b-368a-160a-39c7-267e5421e6c5",
              "code": {
                  "coding": [
                      {
                          "code": "99011",
                          "display": "first op visit"
                      }
                  ]
              },
              "status": "unknown",
              "subject": {
                  "reference": "Patient/9e909e52-61a1-be50-1878-a12ef8c36346"
              }
          },
          "request": {
              "method": "PUT",
              "url": "Procedure/be5b888b-368a-160a-39c7-267e5421e6c5"
          }
      }
  ]
}