{
    "resourceType": "Bundle",
    "type": "batch",
    "timestamp": "2021-10-20T14:41:00+05:30",
    "identifier": {
        "value": "MSG00019"
    },
    "id": "850fa16f-dec7-80c7-978f-7276e0f16e62",
    "entry": [
        {
            "fullUrl": "urn:uuid:85946184-5877-2309-6765-683c677d000d",
            "resource": {
                "resourceType": "MessageHeader",
                "id": "85946184-5877-2309-6765-683c677d000d",
                "source": {
                    "name": "24GHH",
                    "endpoint": "urn:oid:2.16.840.1.114884.10.20"
                },
                "destination": [
                    {
                        "name": "25GHH",
                        "endpoint": "urn:oid:2.16.840.1.114884.10.23",
                        "receiver": {
                            "reference": "Organization/527280c1-34d1-c639-e9ba-61986d28e266"
                        }
                    }
                ],
                "meta": {
                    "security": [
                        {
                            "display": "SECURITY",
                            "system": "http://example.com/v2-to-fhirconverter/security-label"
                        }
                    ],
                    "tag": [
                        {
                            "code": "P",
                            "system": "http://terminology.hl7.org/CodeSystem/v2-0103"
                        }
                    ]
                },
                "eventCoding": {
                    "code": "O21",
                    "system": "http://terminology.hl7.org/CodeSystem/v2-0003",
                    "display": "OML^O21^OML_O21"
                },
                "language": "en-US",
                "sender": {
                    "reference": "Organization/4356fb81-6ecd-2d70-57b1-47812638e785"
                },
                "responsible": {
                    "reference": "Organization/33532a82-d220-4c0d-1abe-53e48951c201"
                }
            },
            "request": {
                "method": "PUT",
                "url": "MessageHeader/85946184-5877-2309-6765-683c677d000d"
            }
        },
        {
            "fullUrl": "urn:uuid:58988e57-a45e-285b-5942-4480980652df",
            "resource": {
                "resourceType": "Provenance",
                "id": "58988e57-a45e-285b-5942-4480980652df",
                "text": {
                    "status": "generated",
                    "div": "<div xmlns=\"http://www.w3.org/1999/xhtml\"><p><span>Resource bundle generated on 2021-10-29T08:52:34.631Z using Microsoft FHIR Converter.</span><span>Template Version: TEMPLATE_VERSION_PLACEHOLDER.</span><span>Template URL: https://github.com/microsoft/FHIR-Converter/releases/download/vTEMPLATE_VERSION_PLACEHOLDER/Hl7v2DefaultTemplates.tar.gz.</span><span>Root template: OML_O21.</span></p></div>"
                },
                "occurredDateTime": "2021-10-20T14:41:00+05:30",
                "recorded": "2021-10-20T14:41:00+05:30",
                "agent": [
                    {
                        "type": {
                            "coding": [
                                {
                                    "code": "author",
                                    "system": "http://terminology.hl7.org/CodeSystem/provenance-participant-type"
                                }
                            ]
                        },
                        "who": {
                            "reference": "Organization/33532a82-d220-4c0d-1abe-53e48951c201"
                        }
                    }
                ],
                "activity": {
                    "coding": [
                        {
                            "display": "OML^O21^OML_O21"
                        }
                    ]
                },
                "entity": [
                    {
                        "role": "source",
                        "what": {
                            "reference": "Device/ad64f1d1-3e5b-a041-c1b3-3e157882ed69"
                        }
                    }
                ],
                "target": [
                    {
                        "reference": "Bundle/850fa16f-dec7-80c7-978f-7276e0f16e62"
                    }
                ]
            },
            "request": {
                "method": "PUT",
                "url": "Provenance/58988e57-a45e-285b-5942-4480980652df"
            }
        },
        {
            "fullUrl": "urn:uuid:4356fb81-6ecd-2d70-57b1-47812638e785",
            "resource": {
                "resourceType": "Organization",
                "id": "4356fb81-6ecd-2d70-57b1-47812638e785",
                "identifier": [
                    {
                        "value": "GHHSFacility",
                        "system": "http://example.com/v2-to-fhir-converter/assigning-authority-local-system-GHHSFacility"
                    },
                    {
                        "value": "urn:oid:2.16.840.1.122848.1.30",
                        "system": "urn:ietf:rfc:3986",
                        "type": {
                            "coding": [
                                {
                                    "code": "ISO",
                                    "display": "An International Standards Organization Object Identifier (OID), in accordance with ISO/IEC 8824. Formatted as decimal digits separated by periods; recommended limit of 64 characters",
                                    "system": "http://terminology.hl7.org/CodeSystem/v2-0301"
                                }
                            ]
                        }
                    }
                ],
                "partOf": {
                    "reference": "Organization/33532a82-d220-4c0d-1abe-53e48951c201"
                },
                "address": [
                    {
                        "country": "USA"
                    }
                ]
            },
            "request": {
                "method": "PUT",
                "url": "Organization/4356fb81-6ecd-2d70-57b1-47812638e785"
            }
        },
        {
            "fullUrl": "urn:uuid:62781ad6-3896-cb63-0178-ead0c4a432b5",
            "resource": {
                "resourceType": "Organization",
                "id": "62781ad6-3896-cb63-0178-ead0c4a432b5",
                "identifier": [
                    {
                        "value": "GHHRFacility",
                        "system": "http://example.com/v2-to-fhir-converter/assigning-authority-local-system-GHHRFacility"
                    },
                    {
                        "value": "urn:oid:2.16.840.1.1122848.1.32",
                        "system": "urn:ietf:rfc:3986",
                        "type": {
                            "coding": [
                                {
                                    "code": "ISO",
                                    "display": "An International Standards Organization Object Identifier (OID), in accordance with ISO/IEC 8824. Formatted as decimal digits separated by periods; recommended limit of 64 characters",
                                    "system": "http://terminology.hl7.org/CodeSystem/v2-0301"
                                }
                            ]
                        }
                    }
                ],
                "partOf": {
                    "reference": "Organization/527280c1-34d1-c639-e9ba-61986d28e266"
                },
                "address": [
                    {
                        "country": "USA"
                    }
                ]
            },
            "request": {
                "method": "PUT",
                "url": "Organization/62781ad6-3896-cb63-0178-ead0c4a432b5"
            }
        },
        {
            "fullUrl": "urn:uuid:33532a82-d220-4c0d-1abe-53e48951c201",
            "resource": {
                "resourceType": "Organization",
                "id": "33532a82-d220-4c0d-1abe-53e48951c201",
                "name": "22 GHH Inc."
            },
            "request": {
                "method": "PUT",
                "url": "Organization/33532a82-d220-4c0d-1abe-53e48951c201"
            }
        },
        {
            "fullUrl": "urn:uuid:527280c1-34d1-c639-e9ba-61986d28e266",
            "resource": {
                "resourceType": "Organization",
                "id": "527280c1-34d1-c639-e9ba-61986d28e266",
                "name": "23 GHH Inc."
            },
            "request": {
                "method": "PUT",
                "url": "Organization/527280c1-34d1-c639-e9ba-61986d28e266"
            }
        },
        {
            "fullUrl": "urn:uuid:ad64f1d1-3e5b-a041-c1b3-3e157882ed69",
            "resource": {
                "resourceType": "Device",
                "id": "ad64f1d1-3e5b-a041-c1b3-3e157882ed69",
                "identifier": [
                    {
                        "value": "ORDApp"
                    }
                ]
            },
            "request": {
                "method": "PUT",
                "url": "Device/ad64f1d1-3e5b-a041-c1b3-3e157882ed69"
            }
        },
        {
            "fullUrl": "urn:uuid:9e909e52-61a1-be50-1878-a12ef8c36346",
            "resource": {
                "resourceType": "Patient",
                "id": "9e909e52-61a1-be50-1878-a12ef8c36346",
                "identifier": [
                    {
                        "value": "1234567",
                        "type": {
                            "coding": [
                                {
                                    "code": "MR",
                                    "system": "http://terminology.hl7.org/CodeSystem/v2-0203",
                                    "display": "Medical record number"
                                }
                            ]
                        },
                        "system": "http://example.com/v2-to-fhir-converter/assigning-authority-local-system-test",
                        "period": {
                            "start": "1924-10-11",
                            "end": "1924-10-12"
                        }
                    },
                    {
                        "value": "PATID1234",
                        "type": {
                            "coding": [
                                {
                                    "code": "MR",
                                    "system": "http://terminology.hl7.org/CodeSystem/v2-0203",
                                    "display": "Medical record number"
                                }
                            ]
                        },
                        "system": "http://example.com/v2-to-fhir-converter/assigning-authority-universal-system-HCD",
                        "assigner": {
                            "reference": "Organization/b3ad3a9f-d4f6-4638-0a09-2da771733488"
                        }
                    },
                    {
                        "value": "123456789",
                        "type": {
                            "coding": [
                                {
                                    "code": "SS",
                                    "system": "http://terminology.hl7.org/CodeSystem/v2-0203",
                                    "display": "Social Security number"
                                }
                            ]
                        },
                        "system": "http://example.com/v2-to-fhir-converter/assigning-authority-local-system-USSSA"
                    },
                    {
                        "value": "PATID567",
                        "system": "http://example.com/v2-to-fhir-converter/assigning-authority-local-system-test2"
                    },
                    {
                        "value": "PSSN123121234",
                        "type": {
                            "coding": [
                                {
                                    "code": "SB",
                                    "system": "http://terminology.hl7.org/CodeSystem/v2-0203"
                                }
                            ]
                        },
                        "system": "http://hl7.org/fhir/sid/us-ssn"
                    },
                    {
                        "value": "DLN-123",
                        "type": {
                            "coding": [
                                {
                                    "code": "DL"
                                }
                            ]
                        },
                        "system": "http://example.com/v2-to-fhir-converter/CodeSystem/US",
                        "period": {
                            "end": "2001-01-23"
                        }
                    },
                    {
                        "value": "Medicare-12345",
                        "type": {
                            "coding": [
                                {
                                    "code": "MC",
                                    "display": "Patient's Medicare number",
                                    "system": "http://terminology.hl7.org/CodeSystem/v2-0203"
                                }
                            ]
                        },
                        "system": "http://hl7.org/fhir/sid/us-medicare"
                    },
                    {
                        "value": "MI-12345",
                        "type": {
                            "coding": [
                                {
                                    "code": "MI",
                                    "display": "Military ID number",
                                    "system": "http://terminology.hl7.org/CodeSystem/v2-0203"
                                }
                            ]
                        },
                        "system": "http://example.com/v2-to-fhir-converter/identifier-military"
                    },
                    {
                        "value": "MB-12345",
                        "type": {
                            "coding": [
                                {
                                    "code": "MB",
                                    "system": "http://terminology.hl7.org/CodeSystem/v2-0203",
                                    "display": "Member Number"
                                }
                            ]
                        },
                        "system": "urn:oid:2.16.840.1.113883.1.5"
                    }
                ],
                "name": [
                    {
                        "family": "EVERYMAN",
                        "given": [
                            "ADAM",
                            "A",
                            "Addsm"
                        ],
                        "suffix": [
                            "III",
                            "MD",
                            "PF"
                        ],
                        "prefix": [
                            "Dr."
                        ],
                        "use": "usual",
                        "period": {
                            "start": "1924-10-12"
                        }
                    },
                    {
                        "family": "Josh",
                        "given": [
                            "stanley"
                        ],
                        "use": "official",
                        "period": {
                            "start": "1924-10-10",
                            "end": "1924-10-15"
                        }
                    },
                    {
                        "family": "elbert",
                        "given": [
                            "Son"
                        ]
                    }
                ],
                "birthDate": "1988-08-18",
                "_birthDate": {
                    "extension": [
                        {
                            "url": "http://hl7.org/fhir/StructureDefinition/patient-birthTime",
                            "valueDateTime": "1988-08-18T14:41:00+05:30"
                        }
                    ]
                },
                "gender": "male",
                "address": [
                    {
                        "line": [
                            "1000",
                            "Hospital Lane",
                            "Ste. 123",
                            "Near Highway"
                        ],
                        "city": "Ann Arbor ",
                        "state": "MI",
                        "postalCode": "99999",
                        "country": "USA",
                        "type": "postal",
                        "district": "W",
                        "period": {
                            "start": "2000-01-10",
                            "end": "2000-01-20"
                        }
                    }
                ],
                "telecom": [
                    {
                        "value": "2222",
                        "system": "phone",
                        "period": {
                            "start": "2001-01-10",
                            "end": "2002-01-10"
                        },
                        "rank": 18,
                        "use": "home"
                    },
                    {
                        "value": "12121212",
                        "system": "phone",
                        "use": "home"
                    },
                    {
                        "value": "7777",
                        "system": "phone",
                        "use": "work"
                    },
                    {
                        "value": "1111",
                        "system": "other",
                        "use": "work"
                    },
                    {
                        "value": "89898989",
                        "use": "work",
                        "system": "email"
                    }
                ],
                "communication": [
                    {
                        "language": {
                            "coding": [
                                {
                                    "code": "ar",
                                    "display": "Arabic",
                                    "system": "urn:ietf:bcp:47",
                                    "version": "v2"
                                },
                                {
                                    "code": "en",
                                    "display": "English",
                                    "system": "urn:ietf:bcp:47",
                                    "version": "v2.1"
                                }
                            ],
                            "text": "TextInEnglish"
                        },
                        "preferred": true
                    }
                ],
                "maritalStatus": {
                    "coding": [
                        {
                            "code": "M",
                            "display": "Married",
                            "system": "http://terminology.hl7.org/CodeSystem/v3-MaritalStatus"
                        }
                    ]
                },
                "multipleBirthInteger": 2,
                "deceasedDateTime": "2008-08-25T15:31:30+05:30",
                "meta": {
                    "lastUpdated": "2005-01-10T04:05:14+05:30"
                },
                "extension": [
                    {
                        "url": "http://hl7.org/fhir/us/core/StructureDefinition/us-core-race",
                        "extension": [
                            {
                                "url": "ombCategory",
                                "valueCoding": {
                                    "code": "2106-3",
                                    "display": "White",
                                    "system": "urn:oid:2.16.840.1.113883.6.238"
                                }
                            },
                            {
                                "url": "ombCategory",
                                "valueCoding": {
                                    "code": "2028-9",
                                    "display": "Asian",
                                    "system": "urn:oid:2.16.840.1.113883.6.238"
                                }
                            },
                            {
                                "url": "text",
                                "valueString": "White+Asian"
                            }
                        ]
                    },
                    {
                        "url": "http://hl7.org/fhir/StructureDefinition/patient-mothersMaidenName",
                        "valueString": "SMITH--Angela--L"
                    },
                    {
                        "url": "http://hl7.org/fhir/StructureDefinition/patient-birthPlace",
                        "valueAddress": {
                            "text": "St. Francis Community Hospital of Lower South Side"
                        }
                    },
                    {
                        "url": "http://hl7.org/fhir/StructureDefinition/patient-religion",
                        "valueCodeableConcept": {
                            "coding": [
                                {
                                    "code": "1002",
                                    "display": "African Religions",
                                    "system": "http://terminology.hl7.org/CodeSystem/v3-ReligiousAffiliation"
                                }
                            ]
                        }
                    },
                    {
                        "url": "http://hl7.org/fhir/us/core/StructureDefinition/us-core-ethnicity",
                        "extension": [
                            {
                                "url": "ombCategory",
                                "valueCoding": {
                                    "code": "2186-5",
                                    "display": "Non Hispanic or Latino",
                                    "system": "urn:oid:2.16.840.1.113883.6.238"
                                }
                            },
                            {
                                "url": "text",
                                "valueString": "Non Hispanic or Latino"
                            }
                        ]
                    },
                    {
                        "url": "http://hl7.org/fhir/StructureDefinition/patient-citizenship",
                        "extension": [
                            {
                                "url": "code",
                                "valueCodeableConcept": {
                                    "coding": [
                                        {
                                            "code": "US",
                                            "display": "United States of America",
                                            "system": "urn:iso:std:iso:3166"
                                        }
                                    ],
                                    "text": "United States of America"
                                }
                            }
                        ]
                    },
                    {
                        "url": "http://hl7.org/fhir/StructureDefinition/patient-citizenship",
                        "extension": [
                            {
                                "url": "code",
                                "valueCodeableConcept": {
                                    "coding": [
                                        {
                                            "code": "CA",
                                            "display": "Canada",
                                            "system": "urn:iso:std:iso:3166"
                                        }
                                    ],
                                    "text": "Canada"
                                }
                            }
                        ]
                    }
                ],
                "contact": [
                    {
                        "name": {
                            "family": "Abbot",
                            "given": [
                                "Adam",
                                "A"
                            ],
                            "suffix": [
                                "III",
                                "PHD"
                            ],
                            "prefix": [
                                "DR"
                            ],
                            "use": "official"
                        },
                        "address": {
                            "line": [
                                "1000 Hospital Lane",
                                "Ste.123"
                            ],
                            "city": "Ann Arbor ",
                            "state": "MI",
                            "postalCode": "99999",
                            "country": "USA",
                            "use": "work"
                        },
                        "telecom": [
                            {
                                "value": "(626)555-1234",
                                "use": "work",
                                "system": "phone"
                            }
                        ],
                        "relationship": [
                            {
                                "coding": [
                                    {
                                        "code": "C",
                                        "display": "Emergency Contact",
                                        "system": "http://terminology.hl7.org/CodeSystem/v2-0131"
                                    }
                                ]
                            }
                        ]
                    }
                ]
            },
            "request": {
                "method": "PUT",
                "url": "Patient/9e909e52-61a1-be50-1878-a12ef8c36346"
            }
        },
        {
            "fullUrl": "urn:uuid:78295402-9b84-4829-b945-502ab3402de5",
            "resource": {
                "resourceType": "Account",
                "id": "78295402-9b84-4829-b945-502ab3402de5",
                "identifier": [
                    {
                        "value": "4000776",
                        "type": {
                            "coding": [
                                {
                                    "code": "VN",
                                    "system": "http://terminology.hl7.org/CodeSystem/v2-0203",
                                    "display": "Visit number"
                                }
                            ]
                        },
                        "system": "urn:oid:2.4",
                        "assigner": {
                            "reference": "Organization/9d4c8327-8a28-8152-1898-8251baa707b7"
                        },
                        "period": {
                            "start": "1924-10-11",
                            "end": "1924-10-12"
                        }
                    }
                ],
                "status": "active",
                "subject": [
                    {
                        "reference": "Patient/9e909e52-61a1-be50-1878-a12ef8c36346"
                    }
                ],
                "guarantor": [
                    {
                        "party": {
                            "reference": "RelatedPerson/e42e5df9-fef2-9072-3b17-3f2475927f98"
                        },
                        "onHold": false,
                        "period": {
                            "start": "2016-01-01"
                        }
                    }
                ]
            },
            "request": {
                "method": "PUT",
                "url": "Account/78295402-9b84-4829-b945-502ab3402de5"
            }
        },
        {
            "fullUrl": "urn:uuid:9d4c8327-8a28-8152-1898-8251baa707b7",
            "resource": {
                "resourceType": "Organization",
                "id": "9d4c8327-8a28-8152-1898-8251baa707b7",
                "identifier": [
                    {
                        "value": "AccMgr",
                        "system": "http://example.com/v2-to-fhir-converter/assigning-authority-local-system-AccMgr"
                    },
                    {
                        "value": "urn:oid:2.4",
                        "system": "urn:ietf:rfc:3986",
                        "type": {
                            "coding": [
                                {
                                    "code": "ISO",
                                    "display": "An International Standards Organization Object Identifier (OID), in accordance with ISO/IEC 8824. Formatted as decimal digits separated by periods; recommended limit of 64 characters",
                                    "system": "http://terminology.hl7.org/CodeSystem/v2-0301"
                                }
                            ]
                        }
                    }
                ]
            },
            "request": {
                "method": "PUT",
                "url": "Organization/9d4c8327-8a28-8152-1898-8251baa707b7"
            }
        },
        {
            "fullUrl": "urn:uuid:e42e5df9-fef2-9072-3b17-3f2475927f98",
            "resource": {
                "resourceType": "RelatedPerson",
                "id": "e42e5df9-fef2-9072-3b17-3f2475927f98",
                "identifier": [
                    {
                        "value": "1516",
                        "type": {
                            "coding": [
                                {
                                    "code": "LN",
                                    "system": "http://terminology.hl7.org/CodeSystem/v2-0203",
                                    "display": "License number"
                                }
                            ]
                        }
                    },
                    {
                        "value": "19290207",
                        "type": {
                            "coding": [
                                {
                                    "code": "EI",
                                    "system": "http://terminology.hl7.org/CodeSystem/v2-0203",
                                    "display": "Employee number"
                                }
                            ]
                        }
                    },
                    {
                        "value": "2245367687",
                        "type": {
                            "coding": [
                                {
                                    "code": "SB",
                                    "system": "http://terminology.hl7.org/CodeSystem/v2-0203"
                                }
                            ]
                        },
                        "system": "http://hl7.org/fhir/sid/us-ssn"
                    }
                ],
                "relationship": [
                    {
                        "coding": [
                            {
                                "code": "MTH",
                                "display": "mother",
                                "system": "http://terminology.hl7.org/CodeSystem/v3-RoleCode"
                            }
                        ]
                    }
                ],
                "address": [
                    {
                        "line": [
                            "1619 SOUTH UNIVERSITY"
                        ],
                        "city": "MADISON",
                        "state": "WI",
                        "postalCode": "53703",
                        "country": "US"
                    }
                ],
                "telecom": [
                    {
                        "value": "(608)251-7777",
                        "system": "phone",
                        "use": "home"
                    },
                    {
                        "value": "(608)2517777",
                        "system": "phone",
                        "use": "work"
                    }
                ],
                "name": [
                    {
                        "family": "RADIANT",
                        "given": [
                            "LUCY"
                        ]
                    }
                ],
                "gender": "female",
                "birthDate": "2001-04-12",
                "patient": {
                    "reference": "Patient/9e909e52-61a1-be50-1878-a12ef8c36346"
                }
            },
            "request": {
                "method": "PUT",
                "url": "RelatedPerson/e42e5df9-fef2-9072-3b17-3f2475927f98"
            }
        },
        {
            "fullUrl": "urn:uuid:b3ad3a9f-d4f6-4638-0a09-2da771733488",
            "resource": {
                "resourceType": "Organization",
                "id": "b3ad3a9f-d4f6-4638-0a09-2da771733488",
                "identifier": [
                    {
                        "value": "test1",
                        "system": "http://example.com/v2-to-fhir-converter/assigning-authority-local-system-test1"
                    },
                    {
                        "value": "2.16.1",
                        "system": "http://example.com/v2-to-fhir-converter/assigning-authority-universal-system-HCD",
                        "type": {
                            "coding": [
                                {
                                    "code": "HCD",
                                    "display": "The CEN Healthcare Coding Scheme Designator",
                                    "system": "http://terminology.hl7.org/CodeSystem/v2-0301"
                                }
                            ]
                        }
                    }
                ]
            },
            "request": {
                "method": "PUT",
                "url": "Organization/b3ad3a9f-d4f6-4638-0a09-2da771733488"
            }
        },
        {
            "fullUrl": "urn:uuid:f3954ae4-dec6-f114-1b9e-3a8a85d93f99",
            "resource": {
                "resourceType": "Organization",
                "id": "f3954ae4-dec6-f114-1b9e-3a8a85d93f99",
                "identifier": [
                    {
                        "value": "NTH",
                        "system": "http://example.com/v2-to-fhir-converter/assigning-authority-local-system-NTH"
                    },
                    {
                        "value": "rt23",
                        "system": "http://example.com/v2-to-fhir-converter/assigning-authority-universal-system-HCD",
                        "type": {
                            "coding": [
                                {
                                    "code": "HCD",
                                    "display": "The CEN Healthcare Coding Scheme Designator",
                                    "system": "http://terminology.hl7.org/CodeSystem/v2-0301"
                                }
                            ]
                        }
                    }
                ]
            },
            "request": {
                "method": "PUT",
                "url": "Organization/f3954ae4-dec6-f114-1b9e-3a8a85d93f99"
            }
        },
        {
            "fullUrl": "urn:uuid:62b2e1ee-a272-4ffe-692e-a1fbfd49af6a",
            "resource": {
                "resourceType": "RelatedPerson",
                "id": "62b2e1ee-a272-4ffe-692e-a1fbfd49af6a",
                "identifier": [
                    {
                        "value": "1212121",
                        "type": {
                            "coding": [
                                {
                                    "code": "AND",
                                    "system": "http://terminology.hl7.org/CodeSystem/v2-0203",
                                    "display": "Account number debitor"
                                }
                            ]
                        },
                        "system": "http://example.com/v2-to-fhir-converter/assigning-authority-universal-system-HCD",
                        "assigner": {
                            "reference": "Organization/f3954ae4-dec6-f114-1b9e-3a8a85d93f99"
                        },
                        "period": {
                            "start": "1924-10-11",
                            "end": "1924-10-12"
                        }
                    }
                ],
                "relationship": [
                    {
                        "coding": [
                            {
                                "code": "MTH",
                                "system": "http://terminology.hl7.org/CodeSystem/v3-RoleCode"
                            }
                        ]
                    }
                ],
                "patient": {
                    "reference": "Patient/9e909e52-61a1-be50-1878-a12ef8c36346"
                }
            },
            "request": {
                "method": "PUT",
                "url": "RelatedPerson/62b2e1ee-a272-4ffe-692e-a1fbfd49af6a"
            }
        },
        {
            "fullUrl": "urn:uuid:d00df304-17fa-8d9a-bd02-3276b1781ea1",
            "resource": {
                "resourceType": "Practitioner",
                "id": "d00df304-17fa-8d9a-bd02-3276b1781ea1",
                "identifier": [
                    {
                        "value": "0210"
                    }
                ],
                "name": [
                    {
                        "family": "ATTEND",
                        "given": [
                            "AARON",
                            "A"
                        ]
                    }
                ]
            },
            "request": {
                "method": "PUT",
                "url": "Practitioner/d00df304-17fa-8d9a-bd02-3276b1781ea1"
            }
        },
        {
            "fullUrl": "urn:uuid:21d5ab8b-8f3d-4fd9-f1c4-6f32568b0ae9",
            "resource": {
                "resourceType": "Practitioner",
                "id": "21d5ab8b-8f3d-4fd9-f1c4-6f32568b0ae9",
                "identifier": [
                    {
                        "value": "0310"
                    }
                ],
                "name": [
                    {
                        "family": "REFER",
                        "given": [
                            "LINDA",
                            "C"
                        ]
                    }
                ]
            },
            "request": {
                "method": "PUT",
                "url": "Practitioner/21d5ab8b-8f3d-4fd9-f1c4-6f32568b0ae9"
            }
        },
        {
            "fullUrl": "urn:uuid:6c138e7c-e841-af07-8948-d01692bd2739",
            "resource": {
                "resourceType": "Practitioner",
                "id": "6c138e7c-e841-af07-8948-d01692bd2739",
                "identifier": [
                    {
                        "value": "03410"
                    }
                ],
                "name": [
                    {
                        "family": "ADMIT",
                        "given": [
                            "LINDA",
                            "C"
                        ]
                    }
                ]
            },
            "request": {
                "method": "PUT",
                "url": "Practitioner/6c138e7c-e841-af07-8948-d01692bd2739"
            }
        },
        {
            "fullUrl": "urn:uuid:ed401da2-2b32-f3d0-d128-9766ac20c0ad",
            "resource": {
                "resourceType": "Location",
                "id": "ed401da2-2b32-f3d0-d128-9766ac20c0ad",
                "name": "LABUnit01",
                "mode": "instance",
                "description": "LABUnit01--Room01--GHH",
                "physicalType": {
                    "coding": [
                        {
                            "system": "http://terminology.hl7.org/CodeSystem/location-physical-type",
                            "code": "lvl"
                        }
                    ]
                }
            },
            "request": {
                "method": "PUT",
                "url": "Location/ed401da2-2b32-f3d0-d128-9766ac20c0ad"
            }
        },
        {
            "fullUrl": "urn:uuid:ee586d80-706a-5933-8500-a8026c48fb27",
            "resource": {
                "resourceType": "Location",
                "id": "ee586d80-706a-5933-8500-a8026c48fb27",
                "partOf": {
                    "reference": "Location/ed401da2-2b32-f3d0-d128-9766ac20c0ad"
                },
                "name": "Room01",
                "mode": "instance",
                "description": "LABUnit01--Room01--GHH",
                "physicalType": {
                    "coding": [
                        {
                            "system": "http://terminology.hl7.org/CodeSystem/location-physical-type",
                            "code": "ro"
                        }
                    ]
                }
            },
            "request": {
                "method": "PUT",
                "url": "Location/ee586d80-706a-5933-8500-a8026c48fb27"
            }
        },
        {
            "fullUrl": "urn:uuid:3ffd504f-44ae-ce29-6fc0-6baf5bc0a821",
            "resource": {
                "resourceType": "Location",
                "id": "3ffd504f-44ae-ce29-6fc0-6baf5bc0a821",
                "name": "GHH",
                "mode": "instance",
                "description": "LABUnit01--Room01--GHH",
                "physicalType": {
                    "coding": [
                        {
                            "system": "http://terminology.hl7.org/CodeSystem/location-physical-type",
                            "code": "si"
                        }
                    ]
                }
            },
            "request": {
                "method": "PUT",
                "url": "Location/3ffd504f-44ae-ce29-6fc0-6baf5bc0a821"
            }
        },
        {
            "fullUrl": "urn:uuid:5357a3e3-2c50-7c10-6b22-00b646c8b396",
            "resource": {
                "resourceType": "Location",
                "id": "5357a3e3-2c50-7c10-6b22-00b646c8b396",
                "name": "TraumaCentre",
                "mode": "instance",
                "description": "TraumaCentre--ROOM1--2.16.840.1.113883.4.642.1.1108--ISO--GHH1",
                "physicalType": {
                    "coding": [
                        {
                            "system": "http://terminology.hl7.org/CodeSystem/location-physical-type",
                            "code": "lvl"
                        }
                    ]
                }
            },
            "request": {
                "method": "PUT",
                "url": "Location/5357a3e3-2c50-7c10-6b22-00b646c8b396"
            }
        },
        {
            "fullUrl": "urn:uuid:c7f1b9ec-ffd8-321e-ad87-abafc1c1a333",
            "resource": {
                "resourceType": "Location",
                "id": "c7f1b9ec-ffd8-321e-ad87-abafc1c1a333",
                "partOf": {
                    "reference": "Location/5357a3e3-2c50-7c10-6b22-00b646c8b396"
                },
                "name": "ROOM1",
                "identifier": [
                    {
                        "value": "urn:oid:2.16.840.1.113883.4.642.1.1108",
                        "system": "urn:ietf:rfc:3986"
                    }
                ],
                "mode": "instance",
                "description": "TraumaCentre--ROOM1--2.16.840.1.113883.4.642.1.1108--ISO--GHH1",
                "physicalType": {
                    "coding": [
                        {
                            "system": "http://terminology.hl7.org/CodeSystem/location-physical-type",
                            "code": "ro"
                        }
                    ]
                }
            },
            "request": {
                "method": "PUT",
                "url": "Location/c7f1b9ec-ffd8-321e-ad87-abafc1c1a333"
            }
        },
        {
            "fullUrl": "urn:uuid:e9bd830d-8f94-01b9-7562-854da22940d3",
            "resource": {
                "resourceType": "Location",
                "id": "e9bd830d-8f94-01b9-7562-854da22940d3",
                "name": "GHH1",
                "mode": "instance",
                "description": "TraumaCentre--ROOM1--2.16.840.1.113883.4.642.1.1108--ISO--GHH1",
                "physicalType": {
                    "coding": [
                        {
                            "system": "http://terminology.hl7.org/CodeSystem/location-physical-type",
                            "code": "si"
                        }
                    ]
                }
            },
            "request": {
                "method": "PUT",
                "url": "Location/e9bd830d-8f94-01b9-7562-854da22940d3"
            }
        },
        {
            "fullUrl": "urn:uuid:da6f322f-ef5e-4f2c-c1f8-6e38dffbf995",
            "resource": {
                "resourceType": "Encounter",
                "id": "da6f322f-ef5e-4f2c-c1f8-6e38dffbf995",
                "class": {
                    "code": "AMB",
                    "display": "ambulatory",
                    "system": "http://terminology.hl7.org/CodeSystem/v3-ActCode"
                },
                "status": "in-progress",
                "location": [
                    {
                        "status": "active",
                        "location": {
                            "reference": "Location/ed401da2-2b32-f3d0-d128-9766ac20c0ad"
                        }
                    },
                    {
                        "status": "completed",
                        "location": {
                            "reference": "Location/5357a3e3-2c50-7c10-6b22-00b646c8b396"
                        },
                        "extension": [
                            {
                                "url": "http://hl7.org/fhir/uv/v2mappings/StructureDefinition/temporary-location",
                                "valueBoolean": false
                            }
                        ]
                    }
                ],
                "participant": [
                    {
                        "type": [
                            {
                                "coding": [
                                    {
                                        "code": "ATND",
                                        "system": "http://terminology.hl7.org/CodeSystem/v3-ParticipationType",
                                        "display": "attender"
                                    }
                                ]
                            }
                        ],
                        "individual": {
                            "reference": "Practitioner/d00df304-17fa-8d9a-bd02-3276b1781ea1"
                        }
                    },
                    {
                        "type": [
                            {
                                "coding": [
                                    {
                                        "code": "REF",
                                        "system": "http://terminology.hl7.org/CodeSystem/v3-ParticipationType"
                                    }
                                ],
                                "text": "referrer"
                            }
                        ],
                        "individual": {
                            "reference": "Practitioner/21d5ab8b-8f3d-4fd9-f1c4-6f32568b0ae9"
                        }
                    },
                    {
                        "type": [
                            {
                                "coding": [
                                    {
                                        "code": "ADM",
                                        "system": "http://terminology.hl7.org/CodeSystem/v3-ParticipationType"
                                    }
                                ],
                                "text": "admitter"
                            }
                        ],
                        "individual": {
                            "reference": "Practitioner/6c138e7c-e841-af07-8948-d01692bd2739"
                        }
                    }
                ],
                "identifier": [
                    {
                        "value": "5001",
                        "system": "http://example.com/v2-to-fhir-converter/assigning-authority-local-system-AccMgr",
                        "type": {
                            "coding": [
                                {
                                    "code": "VN",
                                    "system": "http://terminology.hl7.org/CodeSystem/v2-0203"
                                }
                            ],
                            "text": "visit number"
                        }
                    }
                ],
                "period": {
                    "start": "2021-10-20T14:41:00+05:30"
                },
                "text": {
                    "status": "generated",
                    "div": "<div xmlns=\"http://www.w3.org/1999/xhtml\"><p><span>Visit Description: </span></p></div>"
                },
                "subject": {
                    "reference": "Patient/9e909e52-61a1-be50-1878-a12ef8c36346"
                },
                "diagnosis": [
                    {
                        "condition": {
                            "reference": "Condition/e06055fc-0230-24ef-7d66-7ae83cafb322"
                        },
                        "use": {
                            "coding": [
                                {
                                    "code": "DD",
                                    "display": "Discharge Diagnosis",
                                    "system": "http://terminology.hl7.org/CodeSystem/diagnosis-role"
                                }
                            ]
                        },
                        "rank": 1
                    }
                ]
            },
            "request": {
                "method": "PUT",
                "url": "Encounter/da6f322f-ef5e-4f2c-c1f8-6e38dffbf995"
            }
        },
        {
            "fullUrl": "urn:uuid:6415af3e-e19f-4ebe-e028-68273aa308ff",
            "resource": {
                "resourceType": "AllergyIntolerance",
                "id": "6415af3e-e19f-4ebe-e028-68273aa308ff",
                "category": [
                    "food"
                ],
                "type": "allergy",
                "code": {
                    "coding": [
                        {
                            "code": "12345",
                            "display": "Peanut Allergy",
                            "system": "http://example.com/v2-to-fhir-converter/CodeSystem/L"
                        }
                    ]
                },
                "reaction": [
                    {
                        "manifestation": [
                            {
                                "text": "moderate"
                            }
                        ],
                        "onset": "2021-01-21"
                    }
                ],
                "criticality": "low",
                "clinicalStatus": {
                    "coding": [
                        {
                            "code": "active",
                            "display": "Active",
                            "system": "http://terminology.hl7.org/CodeSystem/allergyintolerance-clinical"
                        }
                    ]
                },
                "patient": {
                    "reference": "Patient/9e909e52-61a1-be50-1878-a12ef8c36346"
                }
            },
            "request": {
                "method": "PUT",
                "url": "AllergyIntolerance/6415af3e-e19f-4ebe-e028-68273aa308ff"
            }
        },
        {
            "fullUrl": "urn:uuid:dfab6985-a691-c4f5-d2b2-6481fdfd59e4",
            "resource": {
                "resourceType": "Coverage",
                "id": "dfab6985-a691-c4f5-d2b2-6481fdfd59e4",
                "class": [
                    {
                        "value": "BAV",
                        "name": "Blue Advantage HMO",
                        "type": {
                            "coding": [
                                {
                                    "system": "http://terminology.hl7.org/CodeSystem/coverage-class",
                                    "code": "plan",
                                    "display": "Plan"
                                }
                            ]
                        }
                    },
                    {
                        "value": "Grp-12345",
                        "name": "BCBS HMO",
                        "type": {
                            "coding": [
                                {
                                    "system": "http://terminology.hl7.org/CodeSystem/coverage-class",
                                    "code": "group",
                                    "display": "Group"
                                }
                            ]
                        }
                    }
                ],
                "network": "Blue Advantage HMO",
                "period": {
                    "start": "1998-11-01"
                },
                "type": {
                    "coding": [
                        {
                            "code": "HMO",
                            "display": "health maintenance organization policy",
                            "system": "http://terminology.hl7.org/CodeSystem/v3-ActCode"
                        }
                    ]
                },
                "identifier": [
                    {
                        "value": "548851236L",
                        "type": {
                            "coding": [
                                {
                                    "code": "PLN",
                                    "display": "Policy Number",
                                    "system": "http://example.com/CodeSystem/additional-identifier"
                                }
                            ]
                        },
                        "system": "http://www.examplehealthplan.com/fhir/policyidentifier"
                    },
                    {
                        "value": "Medicare-12345",
                        "type": {
                            "coding": [
                                {
                                    "code": "MC",
                                    "display": "Patient's Medicare number",
                                    "system": "http://terminology.hl7.org/CodeSystem/v2-0203"
                                }
                            ]
                        },
                        "system": "http://hl7.org/fhir/sid/us-medicare"
                    },
                    {
                        "value": "MB-12345",
                        "type": {
                            "coding": [
                                {
                                    "code": "MB",
                                    "system": "http://terminology.hl7.org/CodeSystem/v2-0203",
                                    "display": "Member Number"
                                }
                            ]
                        },
                        "system": "urn:oid:2.16.840.1.113883.1.5"
                    }
                ],
                "costToBeneficiary": [
                    {
                        "type": {
                            "coding": [
                                {
                                    "code": "DC",
                                    "display": "direct unit cost",
                                    "system": "http://terminology.hl7.org/CodeSystem/v2-0205"
                                }
                            ]
                        },
                        "valueMoney": {
                            "value": 150,
                            "currency": "USD"
                        }
                    }
                ],
                "subscriberId": "HMO-12345",
                "status": "active",
                "beneficiary": {
                    "reference": "Patient/9e909e52-61a1-be50-1878-a12ef8c36346"
                },
                "payor": [
                    {
                        "reference": "Organization/04a2a5f2-c971-1e42-e788-250ea487a889"
                    }
                ],
                "policyHolder": {
                    "reference": "Organization/0f21af2c-9880-54cb-14a5-5493a766da42"
                },
                "subscriber": {
                    "reference": "RelatedPerson/fd1eed45-4ccb-bb7c-d157-58eb0366d777"
                },
                "relationship": {
                    "coding": [
                        {
                            "code": "spouse",
                            "display": "Spouse",
                            "system": "http://terminology.hl7.org/CodeSystem/subscriber-relationship"
                        }
                    ]
                }
            },
            "request": {
                "method": "PUT",
                "url": "Coverage/dfab6985-a691-c4f5-d2b2-6481fdfd59e4"
            }
        },
        {
            "fullUrl": "urn:uuid:04a2a5f2-c971-1e42-e788-250ea487a889",
            "resource": {
                "resourceType": "Organization",
                "id": "04a2a5f2-c971-1e42-e788-250ea487a889",
                "address": [
                    {
                        "line": [
                            "1979 MILKY WAY"
                        ],
                        "city": "VERONA",
                        "state": "WI",
                        "postalCode": "53593",
                        "country": "US"
                    }
                ],
                "contact": [
                    {
                        "name": {
                            "family": "Roger",
                            "given": [
                                "Dann"
                            ]
                        }
                    }
                ],
                "telecom": [
                    {
                        "value": "(555)555-5555",
                        "system": "phone"
                    }
                ],
                "identifier": [
                    {
                        "value": "Org-12345",
                        "type": {
                            "coding": [
                                {
                                    "code": "NIIP",
                                    "system": "http://terminology.hl7.org/CodeSystem/v2-0203",
                                    "display": "National Insurance Payor Identifier (Payor)"
                                }
                            ]
                        },
                        "system": "urn:oid:2.16.840.1.113883.1.1"
                    }
                ],
                "name": "Blue Cross Blue Shield of Texas"
            },
            "request": {
                "method": "PUT",
                "url": "Organization/04a2a5f2-c971-1e42-e788-250ea487a889"
            }
        },
        {
            "fullUrl": "urn:uuid:0f21af2c-9880-54cb-14a5-5493a766da42",
            "resource": {
                "resourceType": "Organization",
                "id": "0f21af2c-9880-54cb-14a5-5493a766da42",
                "address": [
                    {
                        "line": [
                            "2000 MILKY WAY"
                        ],
                        "city": "VERONA",
                        "state": "WI",
                        "postalCode": "53593",
                        "country": "US"
                    }
                ],
                "identifier": [
                    {
                        "value": "Tel-12345",
                        "type": {
                            "coding": [
                                {
                                    "code": "EN",
                                    "system": "http://terminology.hl7.org/CodeSystem/v2-0203",
                                    "display": "Employer number"
                                }
                            ]
                        },
                        "system": "urn:oid:2.16.840.1.113883.1.2"
                    }
                ],
                "name": "Telstra",
                "contact": [
                    {
                        "name": {
                            "family": "Richard",
                            "given": [
                                "Paul"
                            ]
                        },
                        "telecom": [
                            {
                                "value": "(555)555-1234",
                                "system": "phone"
                            }
                        ]
                    }
                ],
                "telecom": [
                    {
                        "value": "(555)123-5678",
                        "system": "phone"
                    }
                ]
            },
            "request": {
                "method": "PUT",
                "url": "Organization/0f21af2c-9880-54cb-14a5-5493a766da42"
            }
        },
        {
            "fullUrl": "urn:uuid:fd1eed45-4ccb-bb7c-d157-58eb0366d777",
            "resource": {
                "resourceType": "RelatedPerson",
                "id": "fd1eed45-4ccb-bb7c-d157-58eb0366d777",
                "identifier": [
                    {
                        "value": "HMO-12345",
                        "type": {
                            "coding": [
                                {
                                    "code": "NI",
                                    "system": "http://terminology.hl7.org/CodeSystem/v2-0203",
                                    "display": "National unique individual identifier"
                                }
                            ]
                        },
                        "system": "urn:oid:2.16.840.1.113883.1.3"
                    },
                    {
                        "value": "EI-12345",
                        "type": {
                            "coding": [
                                {
                                    "code": "EI",
                                    "system": "http://terminology.hl7.org/CodeSystem/v2-0203",
                                    "display": "Employee number"
                                }
                            ]
                        },
                        "system": "urn:oid:2.16.840.1.113883.1.4"
                    },
                    {
                        "value": "425-57-9745",
                        "type": {
                            "coding": [
                                {
                                    "code": "SS",
                                    "display": "Social Security number",
                                    "system": "http://terminology.hl7.org/CodeSystem/v2-0203"
                                }
                            ]
                        },
                        "system": "http://hl7.org/fhir/sid/us-ssn"
                    }
                ],
                "relationship": [
                    {
                        "coding": [
                            {
                                "code": "SPS",
                                "display": "spouse",
                                "system": "http://terminology.hl7.org/CodeSystem/v3-RoleCode"
                            }
                        ]
                    }
                ],
                "address": [
                    {
                        "line": [
                            "3857 Velvet Treasure Terrace"
                        ],
                        "city": "Midnight",
                        "state": "NC",
                        "postalCode": "27878",
                        "country": "US"
                    }
                ],
                "name": [
                    {
                        "family": "Doe",
                        "given": [
                            "Rosallie",
                            "John"
                        ],
                        "suffix": [
                            "III",
                            "Bachelors"
                        ],
                        "prefix": [
                            "Mrs."
                        ],
                        "use": "official"
                    }
                ],
                "gender": "female",
                "birthDate": "1975-02-28",
                "patient": {
                    "reference": "Patient/9e909e52-61a1-be50-1878-a12ef8c36346"
                },
                "telecom": [
                    {
                        "value": "(555)123-1234",
                        "system": "phone"
                    }
                ],
                "communication": [
                    {
                        "language": {
                            "coding": [
                                {
                                    "code": "en",
                                    "display": "English"
                                }
                            ]
                        },
                        "preferred": true
                    }
                ]
            },
            "request": {
                "method": "PUT",
                "url": "RelatedPerson/fd1eed45-4ccb-bb7c-d157-58eb0366d777"
            }
        },
        {
            "fullUrl": "urn:uuid:3622230f-85a9-b313-e26b-eabfc755e34f",
            "resource": {
                "resourceType": "ServiceRequest",
                "id": "3622230f-85a9-b313-e26b-eabfc755e34f",
                "status": "active",
                "intent": "order",
                "identifier": [
                    {
                        "value": "1101",
                        "system": "http://example.com/v2-to-fhir-converter/local-entity-identifier-GHHPlacer",
                        "type": {
                            "coding": [
                                {
                                    "code": "PLAC",
                                    "system": "http://terminology.hl7.org/CodeSystem/v2-0203"
                                }
                            ]
                        }
                    },
                    {
                        "value": "1201",
                        "system": "http://example.com/v2-to-fhir-converter/local-entity-identifier-GHHFiller",
                        "type": {
                            "coding": [
                                {
                                    "code": "FILL",
                                    "system": "http://terminology.hl7.org/CodeSystem/v2-0203"
                                }
                            ]
                        }
                    }
                ],
                "authoredOn": "2021-10-20T14:41:00+05:30",
                "locationCode": [
                    {
                        "coding": [
                            {
                                "code": "OF",
                                "display": "Outpatient facility",
                                "system": "http://terminology.hl7.org/CodeSystem/v3-RoleCode"
                            }
                        ]
                    }
                ],
                "code": {
                    "coding": [
                        {
                            "code": "57698-3",
                            "display": "Lipid panel with direct LDL - Serum or Plasma",
                            "system": "http://loinc.org"
                        }
                    ]
                },
                "subject": {
                    "reference": "Patient/9e909e52-61a1-be50-1878-a12ef8c36346"
                },
                "requester": {
                    "reference": "PractitionerRole/d4536528-5e14-2c7a-8d87-c0dcd7311649"
                },
                "specimen": [
                    {
                        "reference": "Specimen/b3a1bcae-087f-966b-7cfd-fc61a168d02a"
                    }
                ],
                "note": [
                    {
                        "text": "Urgent"
                    },
                    {
                        "text": "Fasting Sugar"
                    }
                ],
                "reasonReference": [
                    {
                        "reference": "Condition/e06055fc-0230-24ef-7d66-7ae83cafb322"
                    }
                ],
                "asNeededCodeableConcept": {
                    "text": "Pain"
                },
                "quantityQuantity": {
                    "value": 1
                },
                "occurrenceTiming": {
                    "code": {
                        "coding": [
                            {
                                "code": "Once"
                            }
                        ]
                    },
                    "repeat": {
                        "period": 1,
                        "periodUnit": "d",
                        "when": [
                            "AC"
                        ],
                        "offset": 60,
                        "boundsDuration": {
                            "value": 1,
                            "unit": "Day",
                            "code": "d",
                            "system": "http://unitsofmeasure.org"
                        },
                        "duration": 15,
                        "durationUnit": "min",
                        "count": 1
                    }
                },
                "priority": "routine"
            },
            "request": {
                "method": "PUT",
                "url": "ServiceRequest/3622230f-85a9-b313-e26b-eabfc755e34f"
            }
        },
        {
            "fullUrl": "urn:uuid:8af87360-4a75-1531-6192-9bdbb1b0351c",
            "resource": {
                "resourceType": "Practitioner",
                "id": "8af87360-4a75-1531-6192-9bdbb1b0351c",
                "identifier": [
                    {
                        "value": "005454"
                    }
                ],
                "name": [
                    {
                        "family": "LAB",
                        "given": [
                            "ROBIN",
                            "B"
                        ]
                    }
                ]
            },
            "request": {
                "method": "PUT",
                "url": "Practitioner/8af87360-4a75-1531-6192-9bdbb1b0351c"
            }
        },
        {
            "fullUrl": "urn:uuid:d4536528-5e14-2c7a-8d87-c0dcd7311649",
            "resource": {
                "resourceType": "PractitionerRole",
                "id": "d4536528-5e14-2c7a-8d87-c0dcd7311649",
                "practitioner": {
                    "reference": "Practitioner/8af87360-4a75-1531-6192-9bdbb1b0351c"
                }
            },
            "request": {
                "method": "PUT",
                "url": "PractitionerRole/d4536528-5e14-2c7a-8d87-c0dcd7311649"
            }
        },
        {
            "fullUrl": "urn:uuid:b3a1bcae-087f-966b-7cfd-fc61a168d02a",
            "resource": {
                "resourceType": "Specimen",
                "id": "b3a1bcae-087f-966b-7cfd-fc61a168d02a",
                "collection": {
                    "collectedDateTime": "2021-10-20T15:15:00+05:30"
                }
            },
            "request": {
                "method": "PUT",
                "url": "Specimen/b3a1bcae-087f-966b-7cfd-fc61a168d02a"
            }
        },
        {
            "fullUrl": "urn:uuid:e06055fc-0230-24ef-7d66-7ae83cafb322",
            "resource": {
                "resourceType": "Condition",
                "id": "e06055fc-0230-24ef-7d66-7ae83cafb322",
                "code": {
                    "coding": [
                        {
                            "code": "E10.9",
                            "display": "Diabetes Mellitus Type 1",
                            "system": "http://hl7.org/fhir/sid/icd-10"
                        }
                    ],
                    "text": "Diabetes"
                },
                "onsetDateTime": "2020-05-01T15:45:09+05:30",
                "identifier": [
                    {
                        "value": "DG1002"
                    }
                ],
                "asserter": {
                    "reference": "Practitioner/8af87360-4a75-1531-6192-9bdbb1b0351c"
                },
                "subject": {
                    "reference": "Patient/9e909e52-61a1-be50-1878-a12ef8c36346"
                },
                "extension": [
                    {
                        "url": "http://hl7.org/fhir/StructureDefinition/condition-assertedDate",
                        "valueDateTime": "2020-05-01T16:45:15+05:30"
                    }
                ]
            },
            "request": {
                "method": "PUT",
                "url": "Condition/e06055fc-0230-24ef-7d66-7ae83cafb322"
            }
        },
        {
            "fullUrl": "urn:uuid:e82402a9-b2d1-2a28-3250-c099d5a77bf7",
            "resource": {
                "resourceType": "Organization",
                "id": "e82402a9-b2d1-2a28-3250-c099d5a77bf7",
                "identifier": [
                    {
                        "value": "PERSt",
                        "system": "http://example.com/v2-to-fhir-converter/assigning-authority-local-system-PERSt"
                    },
                    {
                        "value": "1.23",
                        "system": "http://example.com/v2-to-fhir-converter/assigning-authority-universal-system-HCD",
                        "type": {
                            "coding": [
                                {
                                    "code": "HCD",
                                    "display": "The CEN Healthcare Coding Scheme Designator",
                                    "system": "http://terminology.hl7.org/CodeSystem/v2-0301"
                                }
                            ]
                        }
                    }
                ]
            },
            "request": {
                "method": "PUT",
                "url": "Organization/e82402a9-b2d1-2a28-3250-c099d5a77bf7"
            }
        },
        {
            "fullUrl": "urn:uuid:ce70e6c3-c190-121d-c251-e4bae5cde6a1",
            "resource": {
                "resourceType": "Practitioner",
                "id": "ce70e6c3-c190-121d-c251-e4bae5cde6a1",
                "identifier": [
                    {
                        "value": "1134",
                        "system": "http://example.com/v2-to-fhir-converter/assigning-authority-universal-system-HCD",
                        "assigner": {
                            "reference": "Organization/e82402a9-b2d1-2a28-3250-c099d5a77bf7"
                        },
                        "type": {
                            "coding": [
                                {
                                    "code": "BR",
                                    "display": "Birth registry number",
                                    "system": "http://terminology.hl7.org/CodeSystem/v2-0203"
                                }
                            ]
                        }
                    }
                ],
                "name": [
                    {
                        "family": "Aly",
                        "given": [
                            "Zafar",
                            "Mahendra"
                        ],
                        "suffix": [
                            "JR",
                            "MD",
                            "Al"
                        ],
                        "prefix": [
                            "Dr."
                        ],
                        "period": {
                            "start": "1924-10-10",
                            "end": "1924-10-15"
                        }
                    }
                ]
            },
            "request": {
                "method": "PUT",
                "url": "Practitioner/ce70e6c3-c190-121d-c251-e4bae5cde6a1"
            }
        },
        {
            "fullUrl": "urn:uuid:88a53755-c972-6904-b4ce-8884b84ddc2e",
            "resource": {
                "resourceType": "PractitionerRole",
                "id": "88a53755-c972-6904-b4ce-8884b84ddc2e",
                "code": [
                    {
                        "coding": [
                            {
                                "code": "ResponsibleObserver",
                                "system": "http://example.com/v2-to-fhir-converter/PractitionerRole"
                            }
                        ]
                    }
                ],
                "practitioner": {
                    "reference": "Practitioner/ce70e6c3-c190-121d-c251-e4bae5cde6a1"
                }
            },
            "request": {
                "method": "PUT",
                "url": "PractitionerRole/88a53755-c972-6904-b4ce-8884b84ddc2e"
            }
        },
        {
            "fullUrl": "urn:uuid:fe0adb86-ebe9-6479-0055-9db8dc1ff99a",
            "resource": {
                "resourceType": "Device",
                "id": "fe0adb86-ebe9-6479-0055-9db8dc1ff99a",
                "identifier": [
                    {
                        "value": "EI12.3",
                        "system": "urn:uuid:UI2",
                        "type": {
                            "coding": [
                                {
                                    "code": "GUID",
                                    "display": "Same as UUID.",
                                    "system": "http://terminology.hl7.org/CodeSystem/v2-0301"
                                }
                            ]
                        }
                    },
                    {
                        "system": "urn:oid:UI1",
                        "type": {
                            "coding": [
                                {
                                    "code": "ISO",
                                    "display": "An International Standards Organization Object Identifier (OID), in accordance with ISO/IEC 8824. Formatted as decimal digits separated by periods; recommended limit of 64 characters",
                                    "system": "http://terminology.hl7.org/CodeSystem/v2-0301"
                                }
                            ]
                        }
                    }
                ]
            },
            "request": {
                "method": "PUT",
                "url": "Device/fe0adb86-ebe9-6479-0055-9db8dc1ff99a"
            }
        },
        {
            "fullUrl": "urn:uuid:45f65e47-46c4-1a54-f9fb-1321258e79b2",
            "resource": {
                "resourceType": "Practitioner",
                "id": "45f65e47-46c4-1a54-f9fb-1321258e79b2",
                "identifier": [
                    {
                        "type": {
                            "coding": [
                                {
                                    "code": "MD-25"
                                }
                            ]
                        }
                    }
                ]
            },
            "request": {
                "method": "PUT",
                "url": "Practitioner/45f65e47-46c4-1a54-f9fb-1321258e79b2"
            }
        },
        {
            "fullUrl": "urn:uuid:090ea2e4-0a3a-eb7f-8f9f-16dd7d13f7f3",
            "resource": {
                "resourceType": "PractitionerRole",
                "id": "090ea2e4-0a3a-eb7f-8f9f-16dd7d13f7f3",
                "code": [
                    {
                        "coding": [
                            {
                                "code": "LabMedicalDirector",
                                "system": "http://example.com/v2-to-fhir-converter/PractitionerRole"
                            }
                        ]
                    }
                ],
                "practitioner": {
                    "reference": "Practitioner/45f65e47-46c4-1a54-f9fb-1321258e79b2"
                },
                "organization": {
                    "reference": "Organization/08c155be-912e-af06-d464-5b6bb63d660f"
                }
            },
            "request": {
                "method": "PUT",
                "url": "PractitionerRole/090ea2e4-0a3a-eb7f-8f9f-16dd7d13f7f3"
            }
        },
        {
            "fullUrl": "urn:uuid:08c155be-912e-af06-d464-5b6bb63d660f",
            "resource": {
                "resourceType": "Organization",
                "id": "08c155be-912e-af06-d464-5b6bb63d660f",
                "name": "State Hygienic Laboratory",
                "identifier": [
                    {
                        "value": "16D0648109",
                        "type": {
                            "coding": [
                                {
                                    "code": "FI",
                                    "system": "http://terminology.hl7.org/CodeSystem/v2-0203"
                                }
                            ]
                        }
                    }
                ],
                "address": [
                    {
                        "line": [
                            "State Hygienic Laboratory",
                            "UI Research Park -Coralville"
                        ],
                        "city": "Iowa City",
                        "state": "IA",
                        "postalCode": "52242-5002",
                        "country": "USA",
                        "use": "work"
                    }
                ]
            },
            "request": {
                "method": "PUT",
                "url": "Organization/08c155be-912e-af06-d464-5b6bb63d660f"
            }
        },
        {
            "fullUrl": "urn:uuid:07fd2dd3-dbd6-5bb1-cfda-02226795d9a0",
            "resource": {
                "resourceType": "Observation",
                "id": "07fd2dd3-dbd6-5bb1-cfda-02226795d9a0",
                "identifier": [
                    {
                        "value": "EI21",
                        "system": "http://example.com/v2-to-fhir-converter/local-entity-identifier-OII"
                    },
                    {
                        "type": {
                            "coding": [
                                {
                                    "code": "FILL"
                                }
                            ]
                        }
                    }
                ],
                "status": "preliminary",
                "code": {
                    "coding": [
                        {
                            "code": "625-4",
                            "display": "Bacteria identified in Stool by Culture",
                            "system": "http://example.com/v2-to-fhir-converter/CodeSystem/XYZ",
                            "version": "2.33"
                        }
                    ],
                    "text": "result1"
                },
                "basedOn": [
                    {
                        "reference": "ServiceRequest/3622230f-85a9-b313-e26b-eabfc755e34f"
                    }
                ],
                "valueCodeableConcept": {
                    "coding": [
                        {
                            "code": "27268008",
                            "display": "Salmonella",
                            "system": "http://snomed.info/sct",
                            "version": "20090731"
                        }
                    ],
                    "text": "Salmonella species"
                },
                "referenceRange": [
                    {
                        "text": "70-80"
                    }
                ],
                "effectiveDateTime": "2012-03-01",
                "method": {
                    "text": "Bacterial Culture"
                },
                "device": {
                    "reference": "Device/fe0adb86-ebe9-6479-0055-9db8dc1ff99a"
                },
                "bodySite": {
                    "coding": [
                        {
                            "code": "BU",
                            "display": "Observation site",
                            "system": "http://example.com/v2-to-fhir-converter/CodeSystem/E5"
                        }
                    ]
                },
                "performer": [
                    {
                        "reference": "PractitionerRole/88a53755-c972-6904-b4ce-8884b84ddc2e"
                    },
                    {
                        "reference": "PractitionerRole/090ea2e4-0a3a-eb7f-8f9f-16dd7d13f7f3"
                    }
                ],
                "interpretation": [
                    {
                        "coding": [
                            {
                                "code": "A",
                                "display": "Abnormal",
                                "system": "http://terminology.hl7.org/CodeSystem/v3-ObservationInterpretation",
                                "version": "2.5"
                            }
                        ]
                    }
                ],
                "subject": {
                    "reference": "Patient/9e909e52-61a1-be50-1878-a12ef8c36346"
                },
                "extension": [
                    {
                        "url": "http://example.com/v2-to-fhir-converter/Observation_Status",
                        "valueCodeableConcept": {
                            "coding": [
                                {
                                    "code": "P",
                                    "display": "Preliminary",
                                    "system": "http://terminology.hl7.org/CodeSystem/v2-0085"
                                }
                            ],
                            "text": "Preliminary"
                        }
                    }
                ],
                "note": [
                    {
                        "text": "No Antibodies Detected",
                        "time": "2020-10-10T18:15:00+05:30",
                        "authorReference": {
                            "reference": "Practitioner/ca6d10cc-e8a7-9d21-bd61-ec6d1db557c2"
                        }
                    }
                ]
            },
            "request": {
                "method": "PUT",
                "url": "Observation/07fd2dd3-dbd6-5bb1-cfda-02226795d9a0"
            }
        },
        {
            "fullUrl": "urn:uuid:ca6d10cc-e8a7-9d21-bd61-ec6d1db557c2",
            "resource": {
                "resourceType": "Practitioner",
                "id": "ca6d10cc-e8a7-9d21-bd61-ec6d1db557c2",
                "identifier": [
                    {
                        "value": "MLEE"
                    }
                ],
                "name": [
                    {
                        "family": "ATTEND",
                        "given": [
                            "AARON",
                            "A"
                        ],
                        "suffix": [
                            "MD"
                        ]
                    }
                ]
            },
            "request": {
                "method": "PUT",
                "url": "Practitioner/ca6d10cc-e8a7-9d21-bd61-ec6d1db557c2"
            }
        },
        {
            "fullUrl": "urn:uuid:257786a3-0c2e-44c7-69ea-3456e7152e68",
            "resource": {
                "resourceType": "DiagnosticReport",
                "id": "257786a3-0c2e-44c7-69ea-3456e7152e68",
                "code": {
                    "coding": [
                        {
                            "code": "1063-7",
                            "display": "Serum or Plasma",
                            "system": "http://example.com/v2-to-fhir-converter/CodeSystem/XYZ",
                            "version": "2.33"
                        }
                    ],
                    "text": "result1"
                },
                "basedOn": [
                    {
                        "reference": "ServiceRequest/3622230f-85a9-b313-e26b-eabfc755e34f"
                    }
                ],
                "status": "unknown",
                "presentedForm": [
                    {
                        "contentType": "image/pict",
                        "url": "https://testurl.com"
                    }
                ],
                "subject": {
                    "reference": "Patient/9e909e52-61a1-be50-1878-a12ef8c36346"
                }
            },
            "request": {
                "method": "PUT",
                "url": "DiagnosticReport/257786a3-0c2e-44c7-69ea-3456e7152e68"
            }
        },
        {
            "fullUrl": "urn:uuid:5dccf96a-1490-c206-c930-bded2f3d05fe",
            "resource": {
                "resourceType": "Specimen",
                "id": "5dccf96a-1490-c206-c930-bded2f3d05fe",
                "collection": {
                    "quantity": {
                        "value": 40,
                        "unit": "lbs"
                    },
                    "bodySite": {
                        "coding": [
                            {
                                "code": "BAP",
                                "system": "http://example.com/v2-to-fhir-converter/CodeSystem/HL70488"
                            }
                        ],
                        "text": "Specimen source site"
                    },
                    "method": {
                        "coding": [
                            {
                                "code": "BCAE",
                                "system": "http://terminology.hl7.org/CodeSystem/v2-0488"
                            }
                        ]
                    },
                    "collectedPeriod": {
                        "start": "2011-01-04T04:04:28+05:30",
                        "end": "2011-11-04T04:04:28+05:30"
                    },
                    "extension": [
                        {
                            "url": "http://hl7.org/fhir/StructureDefinition/specimen-specialHandling",
                            "valueCodeableConcept": {
                                "coding": [
                                    {
                                        "code": "AMB",
                                        "display": "Ambient Temperature",
                                        "system": "http://terminology.hl7.org/CodeSystem/v2-0376"
                                    },
                                    {
                                        "code": "DRY",
                                        "display": "dry",
                                        "system": "http://terminology.hl7.org/CodeSystem/v2-0376"
                                    }
                                ]
                            }
                        }
                    ]
                },
                "receivedTime": "2012-03-01",
                "identifier": [
                    {
                        "value": "2012545",
                        "type": {
                            "coding": [
                                {
                                    "code": "PGN",
                                    "system": "http://terminology.hl7.org/CodeSystem/v2-0203"
                                }
                            ]
                        }
                    },
                    {
                        "value": "2012999999",
                        "type": {
                            "coding": [
                                {
                                    "code": "FGN",
                                    "system": "http://terminology.hl7.org/CodeSystem/v2-0203"
                                }
                            ]
                        }
                    },
                    {
                        "value": "OSI-31",
                        "type": {
                            "coding": [
                                {
                                    "code": "PI",
                                    "system": "http://terminology.hl7.org/CodeSystem/v2-0203",
                                    "display": "Patient internal identifier"
                                }
                            ]
                        },
                        "system": "urn:uuid:2.16.840.1.114222",
                        "assigner": {
                            "reference": "Organization/322ca8cf-e43e-973c-3149-9e499675ddca"
                        }
                    },
                    {
                        "value": "ShipID-32",
                        "system": "urn:oid:SID-32",
                        "type": {
                            "coding": [
                                {
                                    "code": "SHIP",
                                    "system": "http://example.com/v2-to-fhir-converter/CodeSystem/additional-identifierType"
                                }
                            ]
                        }
                    }
                ],
                "type": {
                    "coding": [
                        {
                            "code": "ASERU",
                            "display": "Serum",
                            "system": "http://terminology.hl7.org/CodeSystem/v2-0487"
                        },
                        {
                            "code": "FUR",
                            "system": "http://terminology.hl7.org/CodeSystem/v2-0487"
                        }
                    ],
                    "text": "Blood"
                },
                "container": [
                    {
                        "additiveCodeableConcept": {
                            "coding": [
                                {
                                    "code": "STUTM",
                                    "display": "Stuart transport medium",
                                    "system": "http://terminology.hl7.org/CodeSystem/v2-0371",
                                    "version": "20"
                                },
                                {
                                    "code": "PHENOL",
                                    "display": "Stool",
                                    "system": "http://terminology.hl7.org/CodeSystem/v2-0371"
                                }
                            ]
                        },
                        "type": {
                            "coding": [
                                {
                                    "code": "T-container",
                                    "display": "ContainerType",
                                    "system": "http://example.com/v2-to-fhir-converter/CodeSystem/ABC"
                                }
                            ]
                        }
                    }
                ],
                "status": "available",
                "condition": [
                    {
                        "coding": [
                            {
                                "code": "AUT",
                                "display": "Autolyzed",
                                "system": "http://terminology.hl7.org/CodeSystem/v2-0493"
                            },
                            {
                                "code": "CLOT",
                                "display": "CLOT",
                                "system": "http://terminology.hl7.org/CodeSystem/v2-0493"
                            }
                        ]
                    },
                    {
                        "coding": [
                            {
                                "code": "HEM",
                                "display": "HEM",
                                "system": "http://terminology.hl7.org/CodeSystem/v2-0493"
                            }
                        ]
                    }
                ],
                "accessionIdentifier": {
                    "value": "AI-30",
                    "type": {
                        "coding": [
                            {
                                "code": "PI",
                                "system": "http://terminology.hl7.org/CodeSystem/v2-0203",
                                "display": "Patient internal identifier"
                            }
                        ]
                    },
                    "system": "urn:oid:2.16.840.1.114222",
                    "assigner": {
                        "reference": "Organization/f210e7e3-f1e7-297a-9d54-9db2d312cb96"
                    }
                },
                "note": [
                    {
                        "text": "This is a specimen resource"
                    }
                ],
                "request": [
                    {
                        "reference": "ServiceRequest/3622230f-85a9-b313-e26b-eabfc755e34f"
                    }
                ],
                "parent": [
                    {
                        "reference": "Specimen/0755f744-dafd-776b-bff7-2d023e54406e"
                    }
                ]
            },
            "request": {
                "method": "PUT",
                "url": "Specimen/5dccf96a-1490-c206-c930-bded2f3d05fe"
            }
        },
        {
            "fullUrl": "urn:uuid:0755f744-dafd-776b-bff7-2d023e54406e",
            "resource": {
                "resourceType": "Specimen",
                "id": "0755f744-dafd-776b-bff7-2d023e54406e",
                "identifier": [
                    {
                        "value": "PAI12",
                        "type": {
                            "coding": [
                                {
                                    "code": "PGN",
                                    "system": "http://terminology.hl7.org/CodeSystem/v2-0203"
                                }
                            ]
                        }
                    }
                ]
            },
            "request": {
                "method": "PUT",
                "url": "Specimen/0755f744-dafd-776b-bff7-2d023e54406e"
            }
        },
        {
            "fullUrl": "urn:uuid:f210e7e3-f1e7-297a-9d54-9db2d312cb96",
            "resource": {
                "resourceType": "Organization",
                "id": "f210e7e3-f1e7-297a-9d54-9db2d312cb96",
                "identifier": [
                    {
                        "value": "IA PHIMS Stage",
                        "system": "http://example.com/v2-to-fhir-converter/assigning-authority-local-system-IA-PHIMS-Stage"
                    },
                    {
                        "value": "urn:oid:2.16.840.1.114222",
                        "system": "urn:ietf:rfc:3986",
                        "type": {
                            "coding": [
                                {
                                    "code": "ISO",
                                    "display": "An International Standards Organization Object Identifier (OID), in accordance with ISO/IEC 8824. Formatted as decimal digits separated by periods; recommended limit of 64 characters",
                                    "system": "http://terminology.hl7.org/CodeSystem/v2-0301"
                                }
                            ]
                        }
                    }
                ]
            },
            "request": {
                "method": "PUT",
                "url": "Organization/f210e7e3-f1e7-297a-9d54-9db2d312cb96"
            }
        },
        {
            "fullUrl": "urn:uuid:322ca8cf-e43e-973c-3149-9e499675ddca",
            "resource": {
                "resourceType": "Organization",
                "id": "322ca8cf-e43e-973c-3149-9e499675ddca",
                "identifier": [
                    {
                        "value": "IPHIMS Stage",
                        "system": "http://example.com/v2-to-fhir-converter/assigning-authority-local-system-IPHIMS-Stage"
                    },
                    {
                        "value": "urn:uuid:2.16.840.1.114222",
                        "system": "urn:ietf:rfc:3986",
                        "type": {
                            "coding": [
                                {
                                    "code": "GUID",
                                    "display": "Same as UUID.",
                                    "system": "http://terminology.hl7.org/CodeSystem/v2-0301"
                                }
                            ]
                        }
                    }
                ]
            },
            "request": {
                "method": "PUT",
                "url": "Organization/322ca8cf-e43e-973c-3149-9e499675ddca"
            }
        },
        {
            "fullUrl": "urn:uuid:4355ddc5-5edc-38ea-65e6-cd3479bcd9f5",
            "resource": {
                "resourceType": "Observation",
                "id": "4355ddc5-5edc-38ea-65e6-cd3479bcd9f5",
                "status": "unknown",
                "code": {
                    "coding": [
                        {
                            "code": "8867-4",
                            "display": "Bacteria identified",
                            "system": "http://loinc.org",
                            "version": "2.33"
                        }
                    ],
                    "text": "result1"
                },
                "component": [
                    {
                        "code": {
                            "coding": [
                                {
                                    "code": "8867-4",
                                    "display": "Bacteria identified",
                                    "system": "http://loinc.org",
                                    "version": "2.33"
                                }
                            ],
                            "text": "result1"
                        },
                        "valueQuantity": {
                            "value": 27
                        }
                    },
                    {
                        "code": {
                            "coding": [
                                {
                                    "code": "8867-4",
                                    "display": "Bacteria identified",
                                    "system": "http://loinc.org",
                                    "version": "2.33"
                                }
                            ],
                            "text": "result1"
                        },
                        "valueQuantity": {
                            "value": 25
                        }
                    }
                ],
                "subject": {
                    "reference": "Patient/9e909e52-61a1-be50-1878-a12ef8c36346"
                },
                "specimen": {
                    "reference": "Specimen/5dccf96a-1490-c206-c930-bded2f3d05fe"
                },
                "extension": [
                    {
                        "url": "http://example.com/v2-to-fhir-converter/Observation_Status",
                        "valueCodeableConcept": {
                            "coding": [
                                {
                                    "code": "I",
                                    "display": "In Process",
                                    "system": "http://terminology.hl7.org/CodeSystem/v2-0085"
                                }
                            ],
                            "text": "In Process"
                        }
                    }
                ]
            },
            "request": {
                "method": "PUT",
                "url": "Observation/4355ddc5-5edc-38ea-65e6-cd3479bcd9f5"
            }
        }
    ]
}