{
    "resourceType": "Bundle",
    "type": "batch",
    "timestamp": "2021-10-20T11:26:00+02:15",
    "identifier": {
      "value": "MSG00019"
    },
    "id": "850fa16f-dec7-80c7-978f-7276e0f16e62",
    "entry": [
      {
        "fullUrl": "urn:uuid:85946184-5877-2309-6765-683c677d000d",
        "resource": {
          "resourceType": "MessageHeader",
          "id": "85946184-5877-2309-6765-683c677d000d",
          "source": {
            "name": "24GHH",
            "endpoint": "urn:oid:2.16.840.1.114884.10.20",
            "version": "2.4.3.52854",
            "software": "Rhapsody"
          },
          "destination": [
            {
              "name": "25GHH",
              "endpoint": "urn:oid:2.16.840.1.114884.10.23",
              "receiver": {
                "reference": "Organization/527280c1-34d1-c639-e9ba-61986d28e266"
              }
            }
          ],
          "meta": {
            "security": [
              {
                "display": "SECURITY"
              }
            ],
            "tag": [
              {
                "code": "P",
                "system": "http://terminology.hl7.org/CodeSystem/v2-0103"
              }
            ]
          },
          "eventCoding": {
            "code": "O19",
            "system": "http://terminology.hl7.org/CodeSystem/v2-0003",
            "display": "OMG^O19^OMG_O19"
          },
          "language": "en-US",
          "sender": {
            "reference": "Organization/4356fb81-6ecd-2d70-57b1-47812638e785"
          },
          "responsible": {
            "reference": "Organization/33532a82-d220-4c0d-1abe-53e48951c201"
          }
        },
        "request": {
          "method": "PUT",
          "url": "MessageHeader/85946184-5877-2309-6765-683c677d000d"
        }
      },
      {
        "fullUrl": "urn:uuid:58988e57-a45e-285b-5942-4480980652df",
        "resource": {
          "resourceType": "Provenance",
          "id": "58988e57-a45e-285b-5942-4480980652df",
          "text": {
            "status": "generated",
            "div": "<div xmlns=\"http://www.w3.org/1999/xhtml\"><p><span>Resource bundle generated on 2022-03-28T08:45:21.382Z using Microsoft FHIR Converter.</span><span>Template Version: TEMPLATE_VERSION_PLACEHOLDER.</span><span>Template URL: https://github.com/microsoft/FHIR-Converter/releases/download/vTEMPLATE_VERSION_PLACEHOLDER/Hl7v2DefaultTemplates.tar.gz.</span><span>Root template: OMG_O19.</span></p></div>"
          },
          "occurredDateTime": "2021-10-20T11:26:00+02:15",
          "recorded": "2021-10-20T11:26:00+02:15",
          "agent": [
            {
              "type": {
                "coding": [
                  {
                    "code": "author",
                    "system": "http://terminology.hl7.org/CodeSystem/provenance-participant-type"
                  }
                ]
              },
              "who": {
                "reference": "Organization/33532a82-d220-4c0d-1abe-53e48951c201"
              }
            }
          ],
          "activity": {
            "coding": [
              {
                "display": "OMG^O19^OMG_O19"
              }
            ]
          },
          "entity": [
            {
              "role": "source",
              "what": {
                "reference": "Device/ad64f1d1-3e5b-a041-c1b3-3e157882ed69"
              }
            }
          ],
          "target": [
            {
              "reference": "Bundle/850fa16f-dec7-80c7-978f-7276e0f16e62"
            }
          ]
        },
        "request": {
          "method": "PUT",
          "url": "Provenance/58988e57-a45e-285b-5942-4480980652df"
        }
      },
      {
        "fullUrl": "urn:uuid:4356fb81-6ecd-2d70-57b1-47812638e785",
        "resource": {
          "resourceType": "Organization",
          "id": "4356fb81-6ecd-2d70-57b1-47812638e785",
          "identifier": [
            {
              "value": "GHHSFacility",
              "system": "http://example.com/v2-to-fhir-converter/Identifier/GHHSFacility"
            },
            {
              "value": "urn:oid:2.16.840.1.122848.1.30",
              "system": "urn:ietf:rfc:3986",
              "type": {
                "coding": [
                  {
                    "code": "ISO",
                    "display": "An International Standards Organization Object Identifier (OID), in accordance with ISO/IEC 8824. Formatted as decimal digits separated by periods; recommended limit of 64 characters",
                    "system": "http://terminology.hl7.org/CodeSystem/v2-0301"
                  }
                ]
              }
            }
          ],
          "partOf": {
            "reference": "Organization/33532a82-d220-4c0d-1abe-53e48951c201"
          },
          "address": [
            {
              "country": "USA"
            }
          ]
        },
        "request": {
          "method": "PUT",
          "url": "Organization/4356fb81-6ecd-2d70-57b1-47812638e785"
        }
      },
      {
        "fullUrl": "urn:uuid:62781ad6-3896-cb63-0178-ead0c4a432b5",
        "resource": {
          "resourceType": "Organization",
          "id": "62781ad6-3896-cb63-0178-ead0c4a432b5",
          "identifier": [
            {
              "value": "GHHRFacility",
              "system": "http://example.com/v2-to-fhir-converter/Identifier/GHHRFacility"
            },
            {
              "value": "urn:oid:2.16.840.1.1122848.1.32",
              "system": "urn:ietf:rfc:3986",
              "type": {
                "coding": [
                  {
                    "code": "ISO",
                    "display": "An International Standards Organization Object Identifier (OID), in accordance with ISO/IEC 8824. Formatted as decimal digits separated by periods; recommended limit of 64 characters",
                    "system": "http://terminology.hl7.org/CodeSystem/v2-0301"
                  }
                ]
              }
            }
          ],
          "partOf": {
            "reference": "Organization/527280c1-34d1-c639-e9ba-61986d28e266"
          },
          "address": [
            {
              "country": "USA"
            }
          ]
        },
        "request": {
          "method": "PUT",
          "url": "Organization/62781ad6-3896-cb63-0178-ead0c4a432b5"
        }
      },
      {
        "fullUrl": "urn:uuid:33532a82-d220-4c0d-1abe-53e48951c201",
        "resource": {
          "resourceType": "Organization",
          "id": "33532a82-d220-4c0d-1abe-53e48951c201",
          "name": "22 GHH Inc."
        },
        "request": {
          "method": "PUT",
          "url": "Organization/33532a82-d220-4c0d-1abe-53e48951c201"
        }
      },
      {
        "fullUrl": "urn:uuid:527280c1-34d1-c639-e9ba-61986d28e266",
        "resource": {
          "resourceType": "Organization",
          "id": "527280c1-34d1-c639-e9ba-61986d28e266",
          "name": "23 GHH Inc."
        },
        "request": {
          "method": "PUT",
          "url": "Organization/527280c1-34d1-c639-e9ba-61986d28e266"
        }
      },
      {
        "fullUrl": "urn:uuid:ad64f1d1-3e5b-a041-c1b3-3e157882ed69",
        "resource": {
          "resourceType": "Device",
          "id": "ad64f1d1-3e5b-a041-c1b3-3e157882ed69",
          "identifier": [
            {
              "value": "ORDApp"
            }
          ]
        },
        "request": {
          "method": "PUT",
          "url": "Device/ad64f1d1-3e5b-a041-c1b3-3e157882ed69"
        }
      },
      {
        "fullUrl": "urn:uuid:4b549918-a84d-cdaf-e150-c773a5d306e5",
        "resource": {
          "resourceType": "Device",
          "id": "4b549918-a84d-cdaf-e150-c773a5d306e5",
          "manufacturer": "Orion",
          "deviceName": [
            {
              "name": "Rhapsody",
              "type": "manufacturer-name"
            }
          ],
          "version": [
            {
              "value": "2.4.3.52854"
            }
          ],
          "modelNumber": "2.4.3",
          "note": [
            {
              "text": "Testactivity"
            }
          ]
        },
        "request": {
          "method": "PUT",
          "url": "Device/4b549918-a84d-cdaf-e150-c773a5d306e5"
        }
      },
      {
        "fullUrl": "urn:uuid:9e909e52-61a1-be50-1878-a12ef8c36346",
        "resource": {
          "resourceType": "Patient",
          "id": "9e909e52-61a1-be50-1878-a12ef8c36346",
          "identifier": [
            {
              "value": "PATID1234",
              "type": {
                "coding": [
                  {
                    "code": "MR",
                    "system": "http://terminology.hl7.org/CodeSystem/v2-0203",
                    "display": "Medical record number"
                  }
                ]
              },
              "system": "http://example.com/v2-to-fhir-converter/Identifier/HCD",
              "assigner": {
                "reference": "Organization/b3ad3a9f-d4f6-4638-0a09-2da771733488"
              }
            },
            {
              "value": "123456789",
              "type": {
                "coding": [
                  {
                    "code": "SS",
                    "system": "http://terminology.hl7.org/CodeSystem/v2-0203",
                    "display": "Social Security number"
                  }
                ]
              },
              "system": "http://example.com/v2-to-fhir-converter/Identifier/USSSA"
            },
            {
              "value": "PSSN123121234",
              "type": {
                "coding": [
                  {
                    "code": "SB",
                    "system": "http://terminology.hl7.org/CodeSystem/v2-0203"
                  }
                ]
              },
              "system": "http://hl7.org/fhir/sid/us-ssn"
            },
            {
              "value": "Medicare-12345",
              "type": {
                "coding": [
                  {
                    "code": "MC",
                    "display": "Patient's Medicare number",
                    "system": "http://terminology.hl7.org/CodeSystem/v2-0203"
                  }
                ]
              },
              "system": "http://hl7.org/fhir/sid/us-medicare"
            },
            {
              "value": "MI-12345",
              "type": {
                "coding": [
                  {
                    "code": "MI",
                    "display": "Military ID number",
                    "system": "http://terminology.hl7.org/CodeSystem/v2-0203"
                  }
                ]
              },
              "system": "http://example.com/v2-to-fhir-converter/sid/us-military"
            },
            {
              "value": "MB-12345",
              "type": {
                "coding": [
                  {
                    "code": "MB",
                    "system": "http://terminology.hl7.org/CodeSystem/v2-0203",
                    "display": "Member Number"
                  }
                ]
              },
              "system": "urn:oid:2.16.840.1.113883.1.5"
            }
          ],
          "name": [
            {
              "family": "EVERYMAN",
              "given": [
                "ADAM",
                "A"
              ],
              "suffix": [
                "III",
                "MD",
                "PF"
              ],
              "prefix": [
                "Dr."
              ],
              "use": "usual",
              "period": {
                "start": "1924-10-12"
              }
            },
            {
              "family": "Josh",
              "given": [
                "stanley"
              ],
              "use": "official",
              "period": {
                "start": "1924-10-10",
                "end": "1924-10-15"
              }
            }
          ],
          "birthDate": "1988-08-18",
          "_birthDate": {
            "extension": [
              {
                "url": "http://hl7.org/fhir/StructureDefinition/patient-birthTime",
                "valueDateTime": "1988-08-18T11:26:00+02:15"
              }
            ]
          },
          "gender": "male",
          "address": [
            {
              "line": [
                "1000",
                "Hospital Lane",
                "Ste. 123",
                "Near Highway"
              ],
              "city": "Ann Arbor ",
              "state": "MI",
              "postalCode": "99999",
              "country": "USA",
              "type": "postal",
              "district": "W"
            }
          ],
          "telecom": [
            {
              "value": "2222",
              "system": "phone",
              "period": {
                "start": "2001-01-10",
                "end": "2002-01-10"
              },
              "rank": 18,
              "use": "home"
            },
            {
              "value": "12121212",
              "system": "phone",
              "use": "home"
            },
            {
              "value": "7777",
              "system": "phone",
              "use": "work"
            },
            {
              "value": "1111",
              "system": "other",
              "use": "work"
            },
            {
              "value": "89898989",
              "use": "work",
              "system": "email"
            }
          ],
          "communication": [
            {
              "language": {
                "coding": [
                  {
                    "code": "ar",
                    "display": "Arabic",
                    "system": "urn:ietf:bcp:47",
                    "version": "v2"
                  },
                  {
                    "code": "en",
                    "display": "English",
                    "system": "urn:ietf:bcp:47",
                    "version": "v2.1"
                  }
                ],
                "text": "TextInEnglish"
              },
              "preferred": true
            }
          ],
          "maritalStatus": {
            "coding": [
              {
                "code": "M",
                "display": "Married",
                "system": "http://terminology.hl7.org/CodeSystem/v3-MaritalStatus"
              }
            ]
          },
          "multipleBirthInteger": 2,
          "deceasedDateTime": "2008-08-25T11:16:30+01:15",
          "meta": {
            "lastUpdated": "2005-01-10T01:50:14+03:15",
            "security": [
              {
                "code": "LABEL",
                "display": "assign security label",
                "system": "http://terminology.hl7.org/CodeSystem/v3-ActCode"
              },
              {
                "code": "DEMO",
                "display": "all demographic information sensitivity",
                "system": "http://terminology.hl7.org/CodeSystem/v3-ActCode"
              },
              {
                "code": "PRS",
                "display": "patient requested information sensitivity",
                "system": "http://terminology.hl7.org/CodeSystem/v3-ActCode"
              },
              {
                "system": "http://example.com/v2-to-fhir-converter/CodeSystem/additional-security-label",
                "code": "special-access-restriction-instructions",
                "display": "Access restricted to clinicians other than the consulting clinician"
              },
              {
                "extension": [
                  {
                    "url": "http://hl7.org/fhir/uv/v2mappings/StructureDefinition/access-restriction-range",
                    "valuePeriod": {
                      "start": "2021-11-18T10:30:00Z",
                      "end": "2022-11-18T10:30:00Z"
                    }
                  }
                ]
              }
            ]
          },
          "active": true,
          "generalPractitioner": [
            {
              "reference": "Organization/719266ca-c272-9569-a797-c0b3fe3b2c91"
            },
            {
              "reference": "Practitioner/864cd641-6bf0-9def-ae05-da0239bb20a7"
            }
          ],
          "extension": [
            {
              "url": "http://hl7.org/fhir/us/core/StructureDefinition/us-core-race",
              "extension": [
                {
                  "url": "ombCategory",
                  "valueCoding": {
                    "code": "2106-3",
                    "display": "White",
                    "system": "urn:oid:2.16.840.1.113883.6.238"
                  }
                },
                {
                  "url": "ombCategory",
                  "valueCoding": {
                    "code": "2028-9",
                    "display": "Asian",
                    "system": "urn:oid:2.16.840.1.113883.6.238"
                  }
                },
                {
                  "url": "text",
                  "valueString": "White+Asian"
                }
              ]
            },
            {
              "url": "http://hl7.org/fhir/StructureDefinition/patient-mothersMaidenName",
              "valueString": "SMITH--Angela--L"
            },
            {
              "url": "http://hl7.org/fhir/StructureDefinition/patient-birthPlace",
              "valueAddress": {
                "text": "St. Francis Community Hospital of Lower South Side"
              }
            },
            {
              "url": "http://hl7.org/fhir/StructureDefinition/patient-religion",
              "valueCodeableConcept": {
                "coding": [
                  {
                    "code": "1002",
                    "display": "African Religions",
                    "system": "http://terminology.hl7.org/CodeSystem/v3-ReligiousAffiliation"
                  }
                ]
              }
            },
            {
              "url": "http://hl7.org/fhir/us/core/StructureDefinition/us-core-ethnicity",
              "extension": [
                {
                  "url": "ombCategory",
                  "valueCoding": {
                    "code": "2186-5",
                    "display": "Non Hispanic or Latino",
                    "system": "urn:oid:2.16.840.1.113883.6.238"
                  }
                },
                {
                  "url": "text",
                  "valueString": "Non Hispanic or Latino"
                }
              ]
            },
            {
              "url": "http://hl7.org/fhir/StructureDefinition/patient-citizenship",
              "extension": [
                {
                  "url": "code",
                  "valueCodeableConcept": {
                    "coding": [
                      {
                        "code": "US",
                        "display": "United States of America",
                        "system": "urn:iso:std:iso:3166"
                      }
                    ],
                    "text": "United States of America"
                  }
                }
              ]
            },
            {
              "url": "http://hl7.org/fhir/StructureDefinition/patient-citizenship",
              "extension": [
                {
                  "url": "code",
                  "valueCodeableConcept": {
                    "coding": [
                      {
                        "code": "CA",
                        "display": "Canada",
                        "system": "urn:iso:std:iso:3166"
                      }
                    ],
                    "text": "Canada"
                  }
                }
              ]
            },
            {
              "url": "http://hl7.org/fhir/StructureDefinition/patient-congregation",
              "valueString": "Church"
            }
          ],
          "contact": [
            {
              "organization": {
                "reference": "Organization/9cfda40d-ffa1-3bb5-2627-0c0cb5825847"
              }
            },
            {
              "name": {
                "family": "DOE",
                "given": [
                  "MARY"
                ]
              },
              "address": {
                "line": [
                  "115 MAINSTREET"
                ],
                "city": "GOODTOWN",
                "state": "KY",
                "postalCode": "42010",
                "country": "USA"
              },
              "telecom": [
                {
                  "value": "(555) 555-2004",
                  "system": "phone",
                  "use": "home"
                },
                {
                  "value": "(555)555-2005",
                  "system": "phone",
                  "use": "work"
                },
                {
                  "value": "5493275904",
                  "system": "phone"
                },
                {
                  "value": "5492308914",
                  "system": "phone"
                }
              ],
              "period": {
                "start": "2021-01-01",
                "end": "2021-02-01"
              },
              "gender": "female"
            }
          ]
        },
        "request": {
          "method": "PUT",
          "url": "Patient/9e909e52-61a1-be50-1878-a12ef8c36346"
        }
      },
      {
        "fullUrl": "urn:uuid:4ad7c7d0-b69a-0653-9ea9-0979b8a66b39",
        "resource": {
          "resourceType": "Account",
          "id": "4ad7c7d0-b69a-0653-9ea9-0979b8a66b39",
          "identifier": [
            {
              "value": "4000776",
              "type": {
                "coding": [
                  {
                    "code": "VN",
                    "system": "http://terminology.hl7.org/CodeSystem/v2-0203",
                    "display": "Visit number"
                  }
                ]
              },
              "system": "urn:oid:1.3.6.1.4.1.44750.1.2.2",
              "assigner": {
                "reference": "Organization/816e4ec3-f5a6-5969-08c8-a71ef576263e"
              },
              "period": {
                "start": "1924-10-11",
                "end": "1924-10-12"
              }
            }
          ],
          "status": "active",
          "subject": [
            {
              "reference": "Patient/9e909e52-61a1-be50-1878-a12ef8c36346"
            }
          ],
          "guarantor": [
            {
              "party": {
                "reference": "RelatedPerson/e42e5df9-fef2-9072-3b17-3f2475927f98"
              },
              "onHold": false,
              "period": {
                "start": "2016-01-01"
              }
            }
          ],
          "coverage": [
            {
              "coverage": {
                "reference": "Coverage/dfab6985-a691-c4f5-d2b2-6481fdfd59e4"
              }
            }
          ]
        },
        "request": {
          "method": "PUT",
          "url": "Account/4ad7c7d0-b69a-0653-9ea9-0979b8a66b39"
        }
      },
      {
        "fullUrl": "urn:uuid:816e4ec3-f5a6-5969-08c8-a71ef576263e",
        "resource": {
          "resourceType": "Organization",
          "id": "816e4ec3-f5a6-5969-08c8-a71ef576263e",
          "identifier": [
            {
              "value": "AccMgr",
              "system": "http://example.com/v2-to-fhir-converter/Identifier/AccMgr"
            },
            {
              "value": "urn:oid:1.3.6.1.4.1.44750.1.2.2",
              "system": "urn:ietf:rfc:3986",
              "type": {
                "coding": [
                  {
                    "code": "ISO",
                    "display": "An International Standards Organization Object Identifier (OID), in accordance with ISO/IEC 8824. Formatted as decimal digits separated by periods; recommended limit of 64 characters",
                    "system": "http://terminology.hl7.org/CodeSystem/v2-0301"
                  }
                ]
              }
            }
          ]
        },
        "request": {
          "method": "PUT",
          "url": "Organization/816e4ec3-f5a6-5969-08c8-a71ef576263e"
        }
      },
      {
        "fullUrl": "urn:uuid:e42e5df9-fef2-9072-3b17-3f2475927f98",
        "resource": {
          "resourceType": "RelatedPerson",
          "id": "e42e5df9-fef2-9072-3b17-3f2475927f98",
          "identifier": [
            {
              "value": "1516"
            },
            {
              "value": "19290207"
            },
            {
              "value": "2245367687",
              "type": {
                "coding": [
                  {
                    "code": "SB",
                    "system": "http://terminology.hl7.org/CodeSystem/v2-0203",
                    "display": "Social Beneficiary Identifier"
                  }
                ]
              },
              "system": "http://hl7.org/fhir/sid/us-ssn"
            }
          ],
          "relationship": [
            {
              "coding": [
                {
                  "code": "MOT",
                  "display": "MOT"
                }
              ]
            }
          ],
          "address": [
            {
              "line": [
                "1619 SOUTH UNIVERSITY"
              ],
              "city": "MADISON",
              "state": "WI",
              "postalCode": "53703",
              "country": "US"
            }
          ],
          "telecom": [
            {
              "value": "(608)251-7777",
              "system": "phone",
              "use": "home"
            },
            {
              "value": "(608)2517777",
              "system": "phone",
              "use": "work"
            }
          ],
          "name": [
            {
              "family": "RADIANT",
              "given": [
                "LUCY"
              ]
            }
          ],
          "gender": "female",
          "birthDate": "2001-04-12",
          "patient": {
            "reference": "Patient/9e909e52-61a1-be50-1878-a12ef8c36346"
          }
        },
        "request": {
          "method": "PUT",
          "url": "RelatedPerson/e42e5df9-fef2-9072-3b17-3f2475927f98"
        }
      },
      {
        "fullUrl": "urn:uuid:b3ad3a9f-d4f6-4638-0a09-2da771733488",
        "resource": {
          "resourceType": "Organization",
          "id": "b3ad3a9f-d4f6-4638-0a09-2da771733488",
          "identifier": [
            {
              "value": "test1",
              "system": "http://example.com/v2-to-fhir-converter/Identifier/test1"
            },
            {
              "value": "2.16.1",
              "system": "http://example.com/v2-to-fhir-converter/Identifier/HCD",
              "type": {
                "coding": [
                  {
                    "code": "HCD",
                    "display": "The CEN Healthcare Coding Scheme Designator",
                    "system": "http://terminology.hl7.org/CodeSystem/v2-0301"
                  }
                ]
              }
            }
          ]
        },
        "request": {
          "method": "PUT",
          "url": "Organization/b3ad3a9f-d4f6-4638-0a09-2da771733488"
        }
      },
      {
        "fullUrl": "urn:uuid:719266ca-c272-9569-a797-c0b3fe3b2c91",
        "resource": {
          "resourceType": "Organization",
          "id": "719266ca-c272-9569-a797-c0b3fe3b2c91",
          "name": "LINDAS TEST ORGANIZATION",
          "identifier": [
            {
              "value": "SIISCLIENT818"
            }
          ]
        },
        "request": {
          "method": "PUT",
          "url": "Organization/719266ca-c272-9569-a797-c0b3fe3b2c91"
        }
      },
      {
        "fullUrl": "urn:uuid:864cd641-6bf0-9def-ae05-da0239bb20a7",
        "resource": {
          "resourceType": "Practitioner",
          "id": "864cd641-6bf0-9def-ae05-da0239bb20a7",
          "identifier": [
            {
              "type": {
                "coding": [
                  {
                    "code": "MR",
                    "display": "Medical record number",
                    "system": "http://terminology.hl7.org/CodeSystem/v2-0203"
                  }
                ]
              }
            }
          ]
        },
        "request": {
          "method": "PUT",
          "url": "Practitioner/864cd641-6bf0-9def-ae05-da0239bb20a7"
        }
      },
      {
        "fullUrl": "urn:uuid:d00df304-17fa-8d9a-bd02-3276b1781ea1",
        "resource": {
          "resourceType": "Practitioner",
          "id": "d00df304-17fa-8d9a-bd02-3276b1781ea1",
          "identifier": [
            {
              "value": "0210"
            }
          ],
          "name": [
            {
              "family": "ATTEND",
              "given": [
                "AARON",
                "A"
              ]
            }
          ]
        },
        "request": {
          "method": "PUT",
          "url": "Practitioner/d00df304-17fa-8d9a-bd02-3276b1781ea1"
        }
      },
      {
        "fullUrl": "urn:uuid:21d5ab8b-8f3d-4fd9-f1c4-6f32568b0ae9",
        "resource": {
          "resourceType": "Practitioner",
          "id": "21d5ab8b-8f3d-4fd9-f1c4-6f32568b0ae9",
          "identifier": [
            {
              "value": "0310"
            }
          ],
          "name": [
            {
              "family": "REFER",
              "given": [
                "LINDA",
                "C"
              ]
            }
          ]
        },
        "request": {
          "method": "PUT",
          "url": "Practitioner/21d5ab8b-8f3d-4fd9-f1c4-6f32568b0ae9"
        }
      },
      {
        "fullUrl": "urn:uuid:6c138e7c-e841-af07-8948-d01692bd2739",
        "resource": {
          "resourceType": "Practitioner",
          "id": "6c138e7c-e841-af07-8948-d01692bd2739",
          "identifier": [
            {
              "value": "03410"
            }
          ],
          "name": [
            {
              "family": "ADMIT",
              "given": [
                "LINDA",
                "C"
              ]
            }
          ]
        },
        "request": {
          "method": "PUT",
          "url": "Practitioner/6c138e7c-e841-af07-8948-d01692bd2739"
        }
      },
      {
        "fullUrl": "urn:uuid:24d4bddf-a1c3-4dc8-049b-1dda7e5112b6",
        "resource": {
          "resourceType": "Organization",
          "id": "24d4bddf-a1c3-4dc8-049b-1dda7e5112b6",
          "identifier": [
            {
              "value": "TE",
              "system": "http://example.com/v2-to-fhir-converter/Identifier/TE"
            },
            {
              "value": "Provider Master.Community Health and Hospitals",
              "system": "http://example.com/v2-to-fhir-converter/Identifier/DNS",
              "type": {
                "coding": [
                  {
                    "code": "DNS",
                    "display": "An Internet host name, in accordance with RFC 1035; or an IP address. Either in ASCII or as integers, with periods between components (“dotted” notation).",
                    "system": "http://terminology.hl7.org/CodeSystem/v2-0301"
                  }
                ]
              }
            }
          ]
        },
        "request": {
          "method": "PUT",
          "url": "Organization/24d4bddf-a1c3-4dc8-049b-1dda7e5112b6"
        }
      },
      {
        "fullUrl": "urn:uuid:36e3aaa4-569a-7d9d-037f-27235ed05701",
        "resource": {
          "resourceType": "Practitioner",
          "id": "36e3aaa4-569a-7d9d-037f-27235ed05701",
          "identifier": [
            {
              "value": "12188",
              "system": "http://example.com/v2-to-fhir-converter/Identifier/DNS",
              "assigner": {
                "reference": "Organization/24d4bddf-a1c3-4dc8-049b-1dda7e5112b6"
              },
              "type": {
                "coding": [
                  {
                    "code": "DN",
                    "display": "Doctor number",
                    "system": "http://terminology.hl7.org/CodeSystem/v2-0203"
                  }
                ]
              }
            }
          ],
          "name": [
            {
              "family": "Hippocrates",
              "given": [
                "Harold",
                "H"
              ],
              "suffix": [
                "IV",
                "MD"
              ],
              "prefix": [
                "Dr"
              ]
            }
          ]
        },
        "request": {
          "method": "PUT",
          "url": "Practitioner/36e3aaa4-569a-7d9d-037f-27235ed05701"
        }
      },
      {
        "fullUrl": "urn:uuid:4683678a-6244-d9d8-3643-bd5af6862624",
        "resource": {
          "resourceType": "Location",
          "id": "4683678a-6244-d9d8-3643-bd5af6862624",
          "name": "LABUnit01",
          "mode": "instance",
          "description": "LABUnit01--Room01--GHH",
          "physicalType": {
            "coding": [
              {
                "system": "http://terminology.hl7.org/CodeSystem/location-physical-type",
                "code": "lvl"
              }
            ]
          }
        },
        "request": {
          "method": "PUT",
          "url": "Location/4683678a-6244-d9d8-3643-bd5af6862624"
        }
      },
      {
        "fullUrl": "urn:uuid:9e8ac770-5a35-5cd9-6a6b-02c1fa87b25b",
        "resource": {
          "resourceType": "Location",
          "id": "9e8ac770-5a35-5cd9-6a6b-02c1fa87b25b",
          "partOf": {
            "reference": "Location/4683678a-6244-d9d8-3643-bd5af6862624"
          },
          "name": "Room01",
          "mode": "instance",
          "description": "LABUnit01--Room01--GHH",
          "physicalType": {
            "coding": [
              {
                "system": "http://terminology.hl7.org/CodeSystem/location-physical-type",
                "code": "ro"
              }
            ]
          }
        },
        "request": {
          "method": "PUT",
          "url": "Location/9e8ac770-5a35-5cd9-6a6b-02c1fa87b25b"
        }
      },
      {
        "fullUrl": "urn:uuid:5178e3a0-3de3-daeb-e7bf-97824ca7fade",
        "resource": {
          "resourceType": "Location",
          "id": "5178e3a0-3de3-daeb-e7bf-97824ca7fade",
          "name": "GHH",
          "mode": "instance",
          "description": "LABUnit01--Room01--GHH",
          "physicalType": {
            "coding": [
              {
                "system": "http://terminology.hl7.org/CodeSystem/location-physical-type",
                "code": "si"
              }
            ]
          }
        },
        "request": {
          "method": "PUT",
          "url": "Location/5178e3a0-3de3-daeb-e7bf-97824ca7fade"
        }
      },
      {
        "fullUrl": "urn:uuid:502c12bb-692b-055b-2d94-bf9805c5969e",
        "resource": {
          "resourceType": "Location",
          "id": "502c12bb-692b-055b-2d94-bf9805c5969e",
          "name": "TraumaCentre",
          "mode": "instance",
          "description": "TraumaCentre--ROOM1--2.16.840.1.113883.4.642.1.1108--ISO--GHH",
          "physicalType": {
            "coding": [
              {
                "system": "http://terminology.hl7.org/CodeSystem/location-physical-type",
                "code": "lvl"
              }
            ]
          }
        },
        "request": {
          "method": "PUT",
          "url": "Location/502c12bb-692b-055b-2d94-bf9805c5969e"
        }
      },
      {
        "fullUrl": "urn:uuid:a0711476-bfa8-d104-dcc2-9405cb2b0d2f",
        "resource": {
          "resourceType": "Location",
          "id": "a0711476-bfa8-d104-dcc2-9405cb2b0d2f",
          "partOf": {
            "reference": "Location/502c12bb-692b-055b-2d94-bf9805c5969e"
          },
          "name": "ROOM1",
          "identifier": [
            {
              "value": "urn:oid:2.16.840.1.113883.4.642.1.1108",
              "system": "urn:ietf:rfc:3986"
            }
          ],
          "mode": "instance",
          "description": "TraumaCentre--ROOM1--2.16.840.1.113883.4.642.1.1108--ISO--GHH",
          "physicalType": {
            "coding": [
              {
                "system": "http://terminology.hl7.org/CodeSystem/location-physical-type",
                "code": "ro"
              }
            ]
          }
        },
        "request": {
          "method": "PUT",
          "url": "Location/a0711476-bfa8-d104-dcc2-9405cb2b0d2f"
        }
      },
      {
        "fullUrl": "urn:uuid:e51affa4-0bbc-0c87-16df-9011a8afe81f",
        "resource": {
          "resourceType": "Location",
          "id": "e51affa4-0bbc-0c87-16df-9011a8afe81f",
          "name": "GHH",
          "mode": "instance",
          "description": "TraumaCentre--ROOM1--2.16.840.1.113883.4.642.1.1108--ISO--GHH",
          "physicalType": {
            "coding": [
              {
                "system": "http://terminology.hl7.org/CodeSystem/location-physical-type",
                "code": "si"
              }
            ]
          }
        },
        "request": {
          "method": "PUT",
          "url": "Location/e51affa4-0bbc-0c87-16df-9011a8afe81f"
        }
      },
      {
        "fullUrl": "urn:uuid:7242d3ed-13e3-8da7-802d-1902c77245ab",
        "resource": {
          "resourceType": "Location",
          "id": "7242d3ed-13e3-8da7-802d-1902c77245ab",
          "name": "ROOM1",
          "identifier": [
            {
              "value": "urn:oid:2.16.840.1.113883.4.642.1.1108",
              "system": "urn:ietf:rfc:3986"
            }
          ],
          "mode": "instance",
          "description": "ROOM1--2.16.840.1.113883.4.642.1.1108--ISO--BED1--FACILITY1--BUILDING1--FLOOR1",
          "physicalType": {
            "coding": [
              {
                "system": "http://terminology.hl7.org/CodeSystem/location-physical-type",
                "code": "ro"
              }
            ]
          }
        },
        "request": {
          "method": "PUT",
          "url": "Location/7242d3ed-13e3-8da7-802d-1902c77245ab"
        }
      },
      {
        "fullUrl": "urn:uuid:47be8e12-1cd6-f250-d854-0e5c73452a35",
        "resource": {
          "resourceType": "Location",
          "id": "47be8e12-1cd6-f250-d854-0e5c73452a35",
          "partOf": {
            "reference": "Location/7242d3ed-13e3-8da7-802d-1902c77245ab"
          },
          "name": "BED1",
          "mode": "instance",
          "description": "ROOM1--2.16.840.1.113883.4.642.1.1108--ISO--BED1--FACILITY1--BUILDING1--FLOOR1",
          "physicalType": {
            "coding": [
              {
                "system": "http://terminology.hl7.org/CodeSystem/location-physical-type",
                "code": "bd"
              }
            ]
          }
        },
        "request": {
          "method": "PUT",
          "url": "Location/47be8e12-1cd6-f250-d854-0e5c73452a35"
        }
      },
      {
        "fullUrl": "urn:uuid:1bc31588-100d-f6d4-556a-66ea92a026da",
        "resource": {
          "resourceType": "Location",
          "id": "1bc31588-100d-f6d4-556a-66ea92a026da",
          "name": "FACILITY1",
          "mode": "instance",
          "description": "ROOM1--2.16.840.1.113883.4.642.1.1108--ISO--BED1--FACILITY1--BUILDING1--FLOOR1",
          "physicalType": {
            "coding": [
              {
                "system": "http://terminology.hl7.org/CodeSystem/location-physical-type",
                "code": "si"
              }
            ]
          }
        },
        "request": {
          "method": "PUT",
          "url": "Location/1bc31588-100d-f6d4-556a-66ea92a026da"
        }
      },
      {
        "fullUrl": "urn:uuid:f11d29a4-f2b1-cb4d-cdda-1c63370d3168",
        "resource": {
          "resourceType": "Location",
          "id": "f11d29a4-f2b1-cb4d-cdda-1c63370d3168",
          "partOf": {
            "reference": "Location/1bc31588-100d-f6d4-556a-66ea92a026da"
          },
          "name": "BUILDING1",
          "mode": "instance",
          "description": "ROOM1--2.16.840.1.113883.4.642.1.1108--ISO--BED1--FACILITY1--BUILDING1--FLOOR1",
          "physicalType": {
            "coding": [
              {
                "system": "http://terminology.hl7.org/CodeSystem/location-physical-type",
                "code": "bu"
              }
            ]
          }
        },
        "request": {
          "method": "PUT",
          "url": "Location/f11d29a4-f2b1-cb4d-cdda-1c63370d3168"
        }
      },
      {
        "fullUrl": "urn:uuid:2581ba96-39c5-2882-a68d-94d04ab33b5f",
        "resource": {
          "resourceType": "Location",
          "id": "2581ba96-39c5-2882-a68d-94d04ab33b5f",
          "partOf": {
            "reference": "Location/f11d29a4-f2b1-cb4d-cdda-1c63370d3168"
          },
          "name": "FLOOR1",
          "mode": "instance",
          "description": "ROOM1--2.16.840.1.113883.4.642.1.1108--ISO--BED1--FACILITY1--BUILDING1--FLOOR1",
          "physicalType": {
            "coding": [
              {
                "system": "http://terminology.hl7.org/CodeSystem/location-physical-type",
                "code": "lvl"
              }
            ]
          }
        },
        "request": {
          "method": "PUT",
          "url": "Location/2581ba96-39c5-2882-a68d-94d04ab33b5f"
        }
      },
      {
        "fullUrl": "urn:uuid:da6f322f-ef5e-4f2c-c1f8-6e38dffbf995",
        "resource": {
          "resourceType": "Encounter",
          "id": "da6f322f-ef5e-4f2c-c1f8-6e38dffbf995",
          "class": {
            "code": "AMB",
            "display": "ambulatory",
            "system": "http://terminology.hl7.org/CodeSystem/v3-ActCode"
          },
          "status": "in-progress",
          "location": [
            {
              "status": "active",
              "location": {
                "reference": "Location/4683678a-6244-d9d8-3643-bd5af6862624"
              }
            },
            {
              "status": "completed",
              "location": {
                "reference": "Location/502c12bb-692b-055b-2d94-bf9805c5969e"
              }
            },
            {
              "status": "planned",
              "location": {
                "reference": "Location/7242d3ed-13e3-8da7-802d-1902c77245ab"
              }
            }
          ],
          "participant": [
            {
              "type": [
                {
                  "coding": [
                    {
                      "code": "ATND",
                      "system": "http://terminology.hl7.org/CodeSystem/v3-ParticipationType",
                      "display": "attender"
                    }
                  ]
                }
              ],
              "individual": {
                "reference": "Practitioner/d00df304-17fa-8d9a-bd02-3276b1781ea1"
              }
            },
            {
              "type": [
                {
                  "coding": [
                    {
                      "code": "REF",
                      "system": "http://terminology.hl7.org/CodeSystem/v3-ParticipationType"
                    }
                  ],
                  "text": "referrer"
                }
              ],
              "individual": {
                "reference": "Practitioner/21d5ab8b-8f3d-4fd9-f1c4-6f32568b0ae9"
              }
            },
            {
              "type": [
                {
                  "coding": [
                    {
                      "code": "ADM",
                      "system": "http://terminology.hl7.org/CodeSystem/v3-ParticipationType"
                    }
                  ],
                  "text": "admitter"
                }
              ],
              "individual": {
                "reference": "Practitioner/6c138e7c-e841-af07-8948-d01692bd2739"
              }
            },
            {
              "type": [
                {
                  "coding": [
                    {
                      "code": "REF",
                      "system": "http://terminology.hl7.org/CodeSystem/v3-ParticipationType"
                    }
                  ],
                  "text": "referrer"
                }
              ],
              "individual": {
                "reference": "Practitioner/36e3aaa4-569a-7d9d-037f-27235ed05701"
              }
            }
          ],
          "identifier": [
            {
              "value": "5001",
              "system": "http://example.com/v2-to-fhir-converter/Identifier/AccMgr",
              "type": {
                "coding": [
                  {
                    "code": "VN",
                    "system": "http://terminology.hl7.org/CodeSystem/v2-0203"
                  }
                ],
                "text": "visit number"
              }
            }
          ],
          "period": {
            "start": "2021-10-20T11:26:00+02:15"
          },
          "reasonCode": [
            {
              "coding": [
                {
                  "code": "140004",
                  "display": "Chronic pharyngitis",
                  "system": "http://snomed.info/sct"
                }
              ]
            }
          ],
          "length": {
            "value": 2,
            "unit": "d",
            "system": "http://unitsofmeasure.org/"
          },
          "meta": {
            "security": [
              {
                "code": "N",
                "display": "normal",
                "system": "http://terminology.hl7.org/CodeSystem/v3-Confidentiality"
              }
            ]
          },
          "text": {
            "status": "generated",
            "div": "<div xmlns=\"http://www.w3.org/1999/xhtml\"><p><span>Visit Description: Health Checkup</span></p></div>"
          },
          "priority": {
            "coding": [
              {
                "code": "UR",
                "display": "urgent",
                "system": "http://terminology.hl7.org/CodeSystem/v3-ActPriority",
                "version": "V1.2"
              },
              {
                "code": "EL",
                "display": "elective",
                "system": "http://terminology.hl7.org/CodeSystem/v3-ActPriority",
                "version": "V1.3"
              }
            ]
          },
          "account": [
            {
              "reference": "Account/4ad7c7d0-b69a-0653-9ea9-0979b8a66b39"
            }
          ],
          "subject": {
            "reference": "Patient/9e909e52-61a1-be50-1878-a12ef8c36346"
          },
          "extension": [
            {
              "url": "http://hl7.org/fhir/StructureDefinition/encounter-modeOfArrival",
              "valueCoding": {
                "code": "C",
                "display": "Car",
                "system": "http://terminology.hl7.org/CodeSystem/v2-0430"
              }
            }
          ],
          "diagnosis": [
            {
              "condition": {
                "reference": "Condition/5642a2b6-64cb-1aaf-7db0-f7b50da024b8"
              },
              "use": {
                "coding": [
                  {
                    "code": "DD",
                    "display": "Discharge Diagnosis",
                    "system": "http://terminology.hl7.org/CodeSystem/diagnosis-role"
                  }
                ]
              },
              "rank": 1
            },
            {
              "condition": {
                "reference": "Condition/6aa417bb-3fc5-62b0-ec32-70959986e738"
              },
              "use": {
                "coding": [
                  {
                    "code": "DD",
                    "display": "Discharge Diagnosis",
                    "system": "http://terminology.hl7.org/CodeSystem/diagnosis-role"
                  }
                ]
              },
              "rank": 1
            }
          ]
        },
        "request": {
          "method": "PUT",
          "url": "Encounter/da6f322f-ef5e-4f2c-c1f8-6e38dffbf995"
        }
      },
      {
        "fullUrl": "urn:uuid:9cfda40d-ffa1-3bb5-2627-0c0cb5825847",
        "resource": {
          "resourceType": "Organization",
          "id": "9cfda40d-ffa1-3bb5-2627-0c0cb5825847",
          "name": "Bull Run Family Practice",
          "contact": [
            {
              "name": {
                "family": "Smith",
                "given": [
                  "John",
                  "L"
                ]
              },
              "telecom": [
                {
                  "value": "5426387999",
                  "system": "phone"
                }
              ],
              "address": {
                "line": [
                  "115 MAINSTREET"
                ],
                "city": "GOODTOWN",
                "state": "KY",
                "postalCode": "42010",
                "country": "USA"
              }
            }
          ]
        },
        "request": {
          "method": "PUT",
          "url": "Organization/9cfda40d-ffa1-3bb5-2627-0c0cb5825847"
        }
      },
      {
        "fullUrl": "urn:uuid:aaab79ac-3725-fd40-4a95-90cd8e0603f7",
        "resource": {
          "resourceType": "RelatedPerson",
          "id": "aaab79ac-3725-fd40-4a95-90cd8e0603f7",
          "identifier": [
            {
              "value": "1212121",
              "type": {
                "coding": [
                  {
                    "code": "AND",
                    "system": "http://terminology.hl7.org/CodeSystem/v2-0203",
                    "display": "Account number debitor"
                  }
                ]
              },
              "system": "http://example.com/v2-to-fhir-converter/Identifier/HCD",
              "assigner": {
                "reference": "Organization/f3954ae4-dec6-f114-1b9e-3a8a85d93f99"
              },
              "period": {
                "start": "1924-10-11",
                "end": "1924-10-12"
              }
            }
          ],
          "relationship": [
            {
              "coding": [
                {
                  "code": "MTH",
                  "display": "mother",
                  "system": "http://terminology.hl7.org/CodeSystem/v3-RoleCode"
                }
              ]
            },
            {
              "coding": [
                {
                  "code": "MTH",
                  "system": "http://terminology.hl7.org/CodeSystem/v3-RoleCode"
                }
              ]
            }
          ],
          "period": {
            "start": "2021-01-01",
            "end": "2021-02-01"
          },
          "address": [
            {
              "line": [
                "115 MAINSTREET"
              ],
              "city": "GOODTOWN",
              "state": "KY",
              "postalCode": "42010",
              "country": "USA"
            },
            {
              "line": [
                "115 MAINSTREET"
              ],
              "city": "GOODTOWN",
              "state": "KY",
              "postalCode": "42010",
              "country": "USA"
            }
          ],
          "telecom": [
            {
              "value": "(555) 555-2004",
              "system": "phone"
            },
            {
              "value": "(555)555-2005",
              "system": "phone",
              "use": "work"
            },
            {
              "value": "5426387999",
              "system": "phone"
            },
            {
              "value": "5493275904",
              "system": "phone"
            },
            {
              "value": "5492308914",
              "system": "phone"
            }
          ],
          "name": [
            {
              "family": "DOE",
              "given": [
                "MARY"
              ]
            },
            {
              "family": "Smith",
              "given": [
                "John",
                "L"
              ]
            }
          ],
          "gender": "female",
          "patient": {
            "reference": "Patient/9e909e52-61a1-be50-1878-a12ef8c36346"
          }
        },
        "request": {
          "method": "PUT",
          "url": "RelatedPerson/aaab79ac-3725-fd40-4a95-90cd8e0603f7"
        }
      },
      {
        "fullUrl": "urn:uuid:f3954ae4-dec6-f114-1b9e-3a8a85d93f99",
        "resource": {
          "resourceType": "Organization",
          "id": "f3954ae4-dec6-f114-1b9e-3a8a85d93f99",
          "identifier": [
            {
              "value": "NTH",
              "system": "http://example.com/v2-to-fhir-converter/Identifier/NTH"
            },
            {
              "value": "rt23",
              "system": "http://example.com/v2-to-fhir-converter/Identifier/HCD",
              "type": {
                "coding": [
                  {
                    "code": "HCD",
                    "display": "The CEN Healthcare Coding Scheme Designator",
                    "system": "http://terminology.hl7.org/CodeSystem/v2-0301"
                  }
                ]
              }
            }
          ]
        },
        "request": {
          "method": "PUT",
          "url": "Organization/f3954ae4-dec6-f114-1b9e-3a8a85d93f99"
        }
      },
      {
        "fullUrl": "urn:uuid:094b7010-27ec-6a4f-5089-1b2433b7824d",
        "resource": {
          "resourceType": "AllergyIntolerance",
          "id": "094b7010-27ec-6a4f-5089-1b2433b7824d",
          "category": [
            "medication"
          ],
          "type": "allergy",
          "code": {
            "coding": [
              {
                "code": "XYZallergen"
              }
            ]
          },
          "reaction": [
            {
              "manifestation": [
                {
                  "text": "moderate"
                }
              ],
              "onset": "2021-01-21"
            }
          ],
          "criticality": "low",
          "clinicalStatus": {
            "coding": [
              {
                "code": "active",
                "display": "Active",
                "system": "http://terminology.hl7.org/CodeSystem/allergyintolerance-clinical"
              }
            ]
          },
          "patient": {
            "reference": "Patient/9e909e52-61a1-be50-1878-a12ef8c36346"
          }
        },
        "request": {
          "method": "PUT",
          "url": "AllergyIntolerance/094b7010-27ec-6a4f-5089-1b2433b7824d"
        }
      },
      {
        "fullUrl": "urn:uuid:dfab6985-a691-c4f5-d2b2-6481fdfd59e4",
        "resource": {
          "resourceType": "Coverage",
          "id": "dfab6985-a691-c4f5-d2b2-6481fdfd59e4",
          "class": [
            {
              "value": "BAV",
              "name": "Blue Advantage HMO",
              "type": {
                "coding": [
                  {
                    "system": "http://terminology.hl7.org/CodeSystem/coverage-class",
                    "code": "plan",
                    "display": "Plan"
                  }
                ]
              }
            },
            {
              "value": "Grp-12345",
              "name": "BCBS HMO",
              "type": {
                "coding": [
                  {
                    "system": "http://terminology.hl7.org/CodeSystem/coverage-class",
                    "code": "group",
                    "display": "Group"
                  }
                ]
              }
            }
          ],
          "network": "Blue Advantage HMO",
          "period": {
            "start": "1998-11-01"
          },
          "type": {
            "coding": [
              {
                "code": "HMO",
                "display": "health maintenance organization policy",
                "system": "http://terminology.hl7.org/CodeSystem/v3-ActCode"
              }
            ]
          },
          "identifier": [
            {
              "value": "548851236L",
              "type": {
                "coding": [
                  {
                    "code": "PLN",
                    "display": "Policy Number",
                    "system": "http://example.com/CodeSystem/additional-identifier"
                  }
                ]
              },
              "system": "http://example.com/v2-to-fhir-converter/Identifier/policy-id"
            },
            {
              "value": "Medicare-12345",
              "type": {
                "coding": [
                  {
                    "code": "MC",
                    "display": "Patient's Medicare number",
                    "system": "http://terminology.hl7.org/CodeSystem/v2-0203"
                  }
                ]
              },
              "system": "http://hl7.org/fhir/sid/us-medicare"
            },
            {
              "value": "MB-12345",
              "type": {
                "coding": [
                  {
                    "code": "MB",
                    "system": "http://terminology.hl7.org/CodeSystem/v2-0203",
                    "display": "Member Number"
                  }
                ]
              },
              "system": "urn:oid:2.16.840.1.113883.1.5"
            }
          ],
          "costToBeneficiary": [
            {
              "type": {
                "coding": [
                  {
                    "code": "DC",
                    "display": "direct unit cost",
                    "system": "http://terminology.hl7.org/CodeSystem/v2-0205"
                  }
                ]
              },
              "valueMoney": {
                "value": 150,
                "currency": "USD"
              }
            }
          ],
          "subscriberId": "HMO-12345",
          "status": "active",
          "beneficiary": {
            "reference": "Patient/9e909e52-61a1-be50-1878-a12ef8c36346"
          },
          "payor": [
            {
              "reference": "Organization/04a2a5f2-c971-1e42-e788-250ea487a889"
            }
          ],
          "policyHolder": {
            "reference": "Organization/0f21af2c-9880-54cb-14a5-5493a766da42"
          },
          "subscriber": {
            "reference": "RelatedPerson/fd1eed45-4ccb-bb7c-d157-58eb0366d777"
          },
          "relationship": {
            "coding": [
              {
                "code": "spouse",
                "display": "Spouse",
                "system": "http://terminology.hl7.org/CodeSystem/subscriber-relationship"
              }
            ]
          }
        },
        "request": {
          "method": "PUT",
          "url": "Coverage/dfab6985-a691-c4f5-d2b2-6481fdfd59e4"
        }
      },
      {
        "fullUrl": "urn:uuid:04a2a5f2-c971-1e42-e788-250ea487a889",
        "resource": {
          "resourceType": "Organization",
          "id": "04a2a5f2-c971-1e42-e788-250ea487a889",
          "address": [
            {
              "line": [
                "1979 MILKY WAY"
              ],
              "city": "VERONA",
              "state": "WI",
              "postalCode": "53593",
              "country": "US"
            }
          ],
          "contact": [
            {
              "name": {
                "family": "Roger",
                "given": [
                  "Dann"
                ]
              }
            }
          ],
          "telecom": [
            {
              "value": "(555)555-5555",
              "system": "phone"
            }
          ],
          "identifier": [
            {
              "value": "Org-12345",
              "type": {
                "coding": [
                  {
                    "code": "NIIP",
                    "system": "http://terminology.hl7.org/CodeSystem/v2-0203",
                    "display": "National Insurance Payor Identifier (Payor)"
                  }
                ]
              },
              "system": "urn:oid:2.16.840.1.113883.1.1"
            }
          ],
          "name": "Blue Cross Blue Shield of Texas"
        },
        "request": {
          "method": "PUT",
          "url": "Organization/04a2a5f2-c971-1e42-e788-250ea487a889"
        }
      },
      {
        "fullUrl": "urn:uuid:0f21af2c-9880-54cb-14a5-5493a766da42",
        "resource": {
          "resourceType": "Organization",
          "id": "0f21af2c-9880-54cb-14a5-5493a766da42",
          "address": [
            {
              "line": [
                "2000 MILKY WAY"
              ],
              "city": "VERONA",
              "state": "WI",
              "postalCode": "53593",
              "country": "US"
            }
          ],
          "identifier": [
            {
              "value": "Tel-12345",
              "type": {
                "coding": [
                  {
                    "code": "EN",
                    "system": "http://terminology.hl7.org/CodeSystem/v2-0203",
                    "display": "Employer number"
                  }
                ]
              },
              "system": "urn:oid:2.16.840.1.113883.1.2"
            }
          ],
          "name": "Telstra",
          "contact": [
            {
              "name": {
                "family": "Richard",
                "given": [
                  "Paul"
                ]
              },
              "telecom": [
                {
                  "value": "(555)555-1234",
                  "system": "phone"
                }
              ]
            }
          ],
          "telecom": [
            {
              "value": "(555)123-5678",
              "system": "phone"
            }
          ]
        },
        "request": {
          "method": "PUT",
          "url": "Organization/0f21af2c-9880-54cb-14a5-5493a766da42"
        }
      },
      {
        "fullUrl": "urn:uuid:fd1eed45-4ccb-bb7c-d157-58eb0366d777",
        "resource": {
          "resourceType": "RelatedPerson",
          "id": "fd1eed45-4ccb-bb7c-d157-58eb0366d777",
          "identifier": [
            {
              "value": "HMO-12345",
              "type": {
                "coding": [
                  {
                    "code": "NI",
                    "system": "http://terminology.hl7.org/CodeSystem/v2-0203",
                    "display": "National unique individual identifier"
                  }
                ]
              },
              "system": "urn:oid:2.16.840.1.113883.1.3"
            },
            {
              "value": "EI-12345",
              "type": {
                "coding": [
                  {
                    "code": "EI",
                    "system": "http://terminology.hl7.org/CodeSystem/v2-0203",
                    "display": "Employee number"
                  }
                ]
              },
              "system": "urn:oid:2.16.840.1.113883.1.4"
            },
            {
              "value": "425-57-9745",
              "type": {
                "coding": [
                  {
                    "code": "SS",
                    "display": "Social Security number",
                    "system": "http://terminology.hl7.org/CodeSystem/v2-0203"
                  }
                ]
              },
              "system": "http://hl7.org/fhir/sid/us-ssn"
            }
          ],
          "relationship": [
            {
              "coding": [
                {
                  "code": "SPS",
                  "display": "spouse",
                  "system": "http://terminology.hl7.org/CodeSystem/v3-RoleCode"
                }
              ]
            }
          ],
          "address": [
            {
              "line": [
                "3857 Velvet Treasure Terrace"
              ],
              "city": "Midnight",
              "state": "NC",
              "postalCode": "27878",
              "country": "US"
            }
          ],
          "name": [
            {
              "family": "Doe",
              "given": [
                "Rosallie",
                "John"
              ],
              "suffix": [
                "III",
                "Bachelors"
              ],
              "prefix": [
                "Mrs."
              ],
              "use": "official"
            }
          ],
          "gender": "female",
          "birthDate": "1975-02-28",
          "patient": {
            "reference": "Patient/9e909e52-61a1-be50-1878-a12ef8c36346"
          },
          "telecom": [
            {
              "value": "(555)123-1234",
              "system": "phone"
            }
          ],
          "communication": [
            {
              "language": {
                "coding": [
                  {
                    "code": "en",
                    "display": "English"
                  }
                ]
              },
              "preferred": true
            }
          ]
        },
        "request": {
          "method": "PUT",
          "url": "RelatedPerson/fd1eed45-4ccb-bb7c-d157-58eb0366d777"
        }
      },
      {
        "fullUrl": "urn:uuid:1694bdd9-e009-505d-1b38-a011c05aca98",
        "resource": {
          "resourceType": "ServiceRequest",
          "id": "1694bdd9-e009-505d-1b38-a011c05aca98",
          "status": "completed",
          "intent": "order",
          "identifier": [
            {
              "value": "9adf2339de714c6698063e3ddf5d07",
              "system": "http://example.com/v2-to-fhir-converter/Identifier/47371996286d40019903e76ba57e49e8",
              "type": {
                "coding": [
                  {
                    "code": "PGN",
                    "system": "http://terminology.hl7.org/CodeSystem/v2-0203"
                  }
                ]
              }
            }
          ],
          "code": {
            "coding": [
              {
                "code": "57698-3",
                "display": "Lipid panel with direct LDL - Serum or Plasma",
                "system": "http://loinc.org"
              }
            ]
          },
          "subject": {
            "reference": "Patient/9e909e52-61a1-be50-1878-a12ef8c36346"
          },
          "encounter": {
            "reference": "Encounter/da6f322f-ef5e-4f2c-c1f8-6e38dffbf995"
          },
          "requester": {
            "reference": "PractitionerRole/d4536528-5e14-2c7a-8d87-c0dcd7311649"
          },
          "note": [
            {
              "text": "Urgent"
            },
            {
              "text": "Fasting Sugar"
            }
          ],
          "reasonReference": [
            {
              "reference": "Condition/5642a2b6-64cb-1aaf-7db0-f7b50da024b8"
            }
          ],
          "asNeededCodeableConcept": {
            "text": "Pain"
          },
          "quantityQuantity": {
            "value": 1
          },
          "occurrenceTiming": {
            "code": {
              "coding": [
                {
                  "code": "Once"
                }
              ]
            },
            "repeat": {
              "period": 1,
              "periodUnit": "d",
              "when": [
                "AC"
              ],
              "offset": 60,
              "boundsDuration": {
                "value": 1,
                "unit": "Day",
                "code": "d",
                "system": "http://unitsofmeasure.org"
              },
              "duration": 15,
              "durationUnit": "min",
              "count": 1
            }
          },
          "priority": "routine"
        },
        "request": {
          "method": "PUT",
          "url": "ServiceRequest/1694bdd9-e009-505d-1b38-a011c05aca98"
        }
      },
      {
        "fullUrl": "urn:uuid:b95901da-6a01-56d0-8069-ad0dc3127fc4",
        "resource": {
          "resourceType": "Organization",
          "id": "b95901da-6a01-56d0-8069-ad0dc3127fc4",
          "name": "Pathology "
        },
        "request": {
          "method": "PUT",
          "url": "Organization/b95901da-6a01-56d0-8069-ad0dc3127fc4"
        }
      },
      {
        "fullUrl": "urn:uuid:8af87360-4a75-1531-6192-9bdbb1b0351c",
        "resource": {
          "resourceType": "Practitioner",
          "id": "8af87360-4a75-1531-6192-9bdbb1b0351c",
          "identifier": [
            {
              "value": "005454"
            }
          ],
          "name": [
            {
              "family": "LAB",
              "given": [
                "ROBIN",
                "B"
              ]
            }
          ]
        },
        "request": {
          "method": "PUT",
          "url": "Practitioner/8af87360-4a75-1531-6192-9bdbb1b0351c"
        }
      },
      {
        "fullUrl": "urn:uuid:d4536528-5e14-2c7a-8d87-c0dcd7311649",
        "resource": {
          "resourceType": "PractitionerRole",
          "id": "d4536528-5e14-2c7a-8d87-c0dcd7311649",
          "code": [
            {
              "coding": [
                {
                  "code": "OP",
                  "display": "Ordering Provider",
                  "system": "http://terminology.hl7.org/CodeSystem/v2-0443"
                }
              ]
            }
          ],
          "organization": {
            "reference": "Organization/b95901da-6a01-56d0-8069-ad0dc3127fc4"
          },
          "practitioner": {
            "reference": "Practitioner/8af87360-4a75-1531-6192-9bdbb1b0351c"
          }
        },
        "request": {
          "method": "PUT",
          "url": "PractitionerRole/d4536528-5e14-2c7a-8d87-c0dcd7311649"
        }
      },
      {
        "fullUrl": "urn:uuid:9d5cadd9-534d-fcbb-dea8-9d5de0a3e839",
        "resource": {
          "resourceType": "Practitioner",
          "id": "9d5cadd9-534d-fcbb-dea8-9d5de0a3e839",
          "identifier": [
            {
              "value": "005454"
            }
          ],
          "name": [
            {
              "family": "ROBIN"
            }
          ]
        },
        "request": {
          "method": "PUT",
          "url": "Practitioner/9d5cadd9-534d-fcbb-dea8-9d5de0a3e839"
        }
      },
      {
        "fullUrl": "urn:uuid:722995e7-669d-f2a3-a59d-8dcfc7f244e1",
        "resource": {
          "resourceType": "PractitionerRole",
          "id": "722995e7-669d-f2a3-a59d-8dcfc7f244e1",
          "location": [
            {
              "reference": "Location/ed401da2-2b32-f3d0-d128-9766ac20c0ad"
            }
          ],
          "practitioner": {
            "reference": "Practitioner/9d5cadd9-534d-fcbb-dea8-9d5de0a3e839"
          }
        },
        "request": {
          "method": "PUT",
          "url": "PractitionerRole/722995e7-669d-f2a3-a59d-8dcfc7f244e1"
        }
      },
      {
        "fullUrl": "urn:uuid:ed401da2-2b32-f3d0-d128-9766ac20c0ad",
        "resource": {
          "resourceType": "Location",
          "id": "ed401da2-2b32-f3d0-d128-9766ac20c0ad",
          "name": "LABUnit01",
          "mode": "instance",
          "description": "005454--ROBIN--LABUnit01--Room01--GHH",
          "physicalType": {
            "coding": [
              {
                "system": "http://terminology.hl7.org/CodeSystem/location-physical-type",
                "code": "lvl"
              }
            ]
          }
        },
        "request": {
          "method": "PUT",
          "url": "Location/ed401da2-2b32-f3d0-d128-9766ac20c0ad"
        }
      },
      {
        "fullUrl": "urn:uuid:ee586d80-706a-5933-8500-a8026c48fb27",
        "resource": {
          "resourceType": "Location",
          "id": "ee586d80-706a-5933-8500-a8026c48fb27",
          "partOf": {
            "reference": "Location/ed401da2-2b32-f3d0-d128-9766ac20c0ad"
          },
          "name": "Room01",
          "mode": "instance",
          "description": "005454--ROBIN--LABUnit01--Room01--GHH",
          "physicalType": {
            "coding": [
              {
                "system": "http://terminology.hl7.org/CodeSystem/location-physical-type",
                "code": "ro"
              }
            ]
          }
        },
        "request": {
          "method": "PUT",
          "url": "Location/ee586d80-706a-5933-8500-a8026c48fb27"
        }
      },
      {
        "fullUrl": "urn:uuid:3ffd504f-44ae-ce29-6fc0-6baf5bc0a821",
        "resource": {
          "resourceType": "Location",
          "id": "3ffd504f-44ae-ce29-6fc0-6baf5bc0a821",
          "name": "GHH",
          "mode": "instance",
          "description": "005454--ROBIN--LABUnit01--Room01--GHH",
          "physicalType": {
            "coding": [
              {
                "system": "http://terminology.hl7.org/CodeSystem/location-physical-type",
                "code": "si"
              }
            ]
          }
        },
        "request": {
          "method": "PUT",
          "url": "Location/3ffd504f-44ae-ce29-6fc0-6baf5bc0a821"
        }
      },
      {
        "resource": {
          "resourceType": "DiagnosticReport",
          "id": "9c32a0a4-72f4-517f-3269-ddd672f6af57",
          "resultsInterpreter": [
            {
              "reference": "PractitionerRole/722995e7-669d-f2a3-a59d-8dcfc7f244e1"
            }
          ],
          "identifier": [
            {
              "value": "9adf2339de714c6698063e3ddf5d07",
              "system": "http://example.com/v2-to-fhir-converter/Identifier/47371996286d40019903e76ba57e49e8",
              "type": {
                "coding": [
                  {
                    "code": "PGN",
                    "system": "http://terminology.hl7.org/CodeSystem/v2-0203"
                  }
                ]
              }
            }
          ],
          "effectiveDateTime": "2021-10-20T12:00:00+02:15",
          "code": {
            "coding": [
              {
                "code": "57698-3",
                "display": "Lipid panel with direct LDL - Serum or Plasma",
                "system": "http://loinc.org"
              }
            ]
          },
          "status": "registered",
          "subject": {
            "reference": "Patient/9e909e52-61a1-be50-1878-a12ef8c36346"
          },
          "basedOn": [
            {
              "reference": "ServiceRequest/1694bdd9-e009-505d-1b38-a011c05aca98"
            }
          ],
          "result": [
            {
              "reference": "Observation/612c5b43-e253-a3b6-e43e-d2b616f88975"
            }
          ]
        },
        "fullUrl": "urn:uuid:9c32a0a4-72f4-517f-3269-ddd672f6af57",
        "request": {
          "method": "PUT",
          "url": "DiagnosticReport/9c32a0a4-72f4-517f-3269-ddd672f6af57"
        }
      },
      {
        "fullUrl": "urn:uuid:5642a2b6-64cb-1aaf-7db0-f7b50da024b8",
        "resource": {
          "resourceType": "Condition",
          "id": "5642a2b6-64cb-1aaf-7db0-f7b50da024b8",
          "code": {
            "coding": [
              {
                "code": "E10.9",
                "display": "Diabetes Mellitus Type 1",
                "system": "http://hl7.org/fhir/sid/icd-10"
              }
            ],
            "text": "Diabetes"
          },
          "onsetDateTime": "2020-05-01T12:30:09Z",
          "identifier": [
            {
              "value": "DG1002"
            }
          ],
          "asserter": {
            "reference": "Practitioner/8af87360-4a75-1531-6192-9bdbb1b0351c"
          },
          "subject": {
            "reference": "Patient/9e909e52-61a1-be50-1878-a12ef8c36346"
          },
          "encounter": {
            "reference": "Encounter/da6f322f-ef5e-4f2c-c1f8-6e38dffbf995"
          },
          "stage": [
            {
              "assessment": [
                {
                  "reference": "DiagnosticReport/9c32a0a4-72f4-517f-3269-ddd672f6af57"
                }
              ]
            }
          ],
          "extension": [
            {
              "url": "http://hl7.org/fhir/StructureDefinition/condition-assertedDate",
              "valueDateTime": "2020-05-01T13:30:15Z"
            }
          ]
        },
        "request": {
          "method": "PUT",
          "url": "Condition/5642a2b6-64cb-1aaf-7db0-f7b50da024b8"
        }
      },
      {
        "fullUrl": "urn:uuid:248a4d68-4053-9a2a-7104-103d72488298",
        "resource": {
          "resourceType": "DiagnosticReport",
          "id": "248a4d68-4053-9a2a-7104-103d72488298",
          "code": {
            "coding": [
              {
                "code": "3DHIS_LABELAREA",
                "display": "3DHIS L Area Image",
                "system": "http://example.com/v2-to-fhir-converter/CodeSystem/L"
              },
              {
                "code": "S_IMAGE",
                "display": "Supplemental Image",
                "system": "http://example.com/v2-to-fhir-converter/CodeSystem/IHELAW"
              }
            ]
          },
          "basedOn": [
            {
              "reference": "ServiceRequest/1694bdd9-e009-505d-1b38-a011c05aca98"
            }
          ],
          "status": "unknown",
          "presentedForm": [
            {
              "contentType": "image/jpeg",
              "data": "VGhpcyBpcyBhIEJhc2U2NCBzdHJpbmc="
            }
          ],
          "subject": {
            "reference": "Patient/9e909e52-61a1-be50-1878-a12ef8c36346"
          }
        },
        "request": {
          "method": "PUT",
          "url": "DiagnosticReport/248a4d68-4053-9a2a-7104-103d72488298"
        }
      },
      {
        "fullUrl": "urn:uuid:d65fb981-c111-4bb1-b58f-6dde5b80f922",
        "resource": {
          "resourceType": "Device",
          "id": "d65fb981-c111-4bb1-b58f-6dde5b80f922",
          "identifier": [
            {
              "value": "Unknown",
              "system": "http://example.com/v2-to-fhir-converter/Identifier/3DHISTECH"
            },
            {
              "value": "Unknown",
              "system": "http://example.com/v2-to-fhir-converter/Identifier/3DHISTECH"
            }
          ]
        },
        "request": {
          "method": "PUT",
          "url": "Device/d65fb981-c111-4bb1-b58f-6dde5b80f922"
        }
      },
      {
        "fullUrl": "urn:uuid:612c5b43-e253-a3b6-e43e-d2b616f88975",
        "resource": {
          "resourceType": "Observation",
          "id": "612c5b43-e253-a3b6-e43e-d2b616f88975",
          "status": "final",
          "code": {
            "coding": [
              {
                "code": "3DHIS_LABELAREA",
                "display": "3DHIS L Area Image",
                "system": "http://example.com/v2-to-fhir-converter/CodeSystem/L"
              },
              {
                "code": "S_IMAGE",
                "display": "Supplemental Image",
                "system": "http://example.com/v2-to-fhir-converter/CodeSystem/IHELAW"
              }
            ]
          },
          "basedOn": [
            {
              "reference": "ServiceRequest/1694bdd9-e009-505d-1b38-a011c05aca98"
            }
          ],
          "valueCodeableConcept": {
            "coding": [
              {
                "code": "OB-5.1",
                "display": "Test",
                "system": "http://example.com/v2-to-fhir-converter/CodeSystem/XYZ"
              }
            ]
          },
          "device": {
            "reference": "Device/d65fb981-c111-4bb1-b58f-6dde5b80f922"
          },
          "subject": {
            "reference": "Patient/9e909e52-61a1-be50-1878-a12ef8c36346"
          },
          "extension": [
            {
              "url": "http://example.com/v2-to-fhir-converter/Observation_Status",
              "valueCodeableConcept": {
                "coding": [
                  {
                    "code": "F",
                    "display": "Final",
                    "system": "http://terminology.hl7.org/CodeSystem/v2-0085"
                  }
                ],
                "text": "Final"
              }
            }
          ],
          "note": [
            {
              "text": "Note test"
            }
          ]
        },
        "request": {
          "method": "PUT",
          "url": "Observation/612c5b43-e253-a3b6-e43e-d2b616f88975"
        }
      },
      {
        "fullUrl": "urn:uuid:09fbd0b8-9319-3c61-2f84-e6dcb6c6497d",
        "resource": {
          "resourceType": "Specimen",
          "id": "09fbd0b8-9319-3c61-2f84-e6dcb6c6497d",
          "identifier": [
            {
              "value": "2017-PAT-123456-1",
              "type": {
                "coding": [
                  {
                    "code": "PGN",
                    "system": "http://terminology.hl7.org/CodeSystem/v2-0203"
                  }
                ]
              }
            }
          ],
          "type": {
            "coding": [
              {
                "code": "SKBP",
                "display": "Biopsy, Skin",
                "system": "http://terminology.hl7.org/CodeSystem/v2-0487"
              }
            ]
          },
          "container": [
            {
              "identifier": [
                {
                  "value": "2017-PAT-123456-1-2-5"
                }
              ]
            }
          ],
          "accessionIdentifier": {
            "value": "2017-PT-123456",
            "system": "http://example.com/v2-to-fhir-converter/Identifier/L"
          },
          "subject": {
            "reference": "Patient/9e909e52-61a1-be50-1878-a12ef8c36346"
          },
          "request": [
            {
              "reference": "ServiceRequest/1694bdd9-e009-505d-1b38-a011c05aca98"
            }
          ],
          "parent": [
            {
              "reference": "Specimen/29334ec4-0dc0-b4ab-30e9-421cf1a8a35d"
            }
          ]
        },
        "request": {
          "method": "PUT",
          "url": "Specimen/09fbd0b8-9319-3c61-2f84-e6dcb6c6497d"
        }
      },
      {
        "fullUrl": "urn:uuid:9a833409-c3b9-c917-60d3-34e4ddd16254",
        "resource": {
          "resourceType": "DiagnosticReport",
          "id": "9a833409-c3b9-c917-60d3-34e4ddd16254",
          "identifier": [
            {
              "value": "40bcbe96bcbf8cda8b07403263b92cb4",
              "system": "http://example.com/v2-to-fhir-converter/Identifier/3DHISTECH_SLDID"
            },
            {
              "type": {
                "coding": [
                  {
                    "code": "FILL"
                  }
                ]
              }
            }
          ],
          "code": {
            "coding": [
              {
                "code": "3DHISTECH_LD",
                "display": "3DHISTECH Digital Slide",
                "system": "http://example.com/v2-to-fhir-converter/CodeSystem/L"
              }
            ]
          },
          "status": "unknown",
          "presentedForm": [
            {
              "contentType": "image/MRXS",
              "url": "http://172.16.237.4/CaseCenter/index.php?ContainerType=CaseView&ContainerID=0&SlideID=40bcbe96bcbf8cda8b07403263b92cb4"
            }
          ],
          "subject": {
            "reference": "Patient/9e909e52-61a1-be50-1878-a12ef8c36346"
          },
          "specimen": [
            {
              "reference": "Specimen/09fbd0b8-9319-3c61-2f84-e6dcb6c6497d"
            }
          ]
        },
        "request": {
          "method": "PUT",
          "url": "DiagnosticReport/9a833409-c3b9-c917-60d3-34e4ddd16254"
        }
      },
      {
        "fullUrl": "urn:uuid:46cde5f6-db9b-7da4-6316-2aa4cb2d0d97",
        "resource": {
          "resourceType": "DiagnosticReport",
          "id": "46cde5f6-db9b-7da4-6316-2aa4cb2d0d97",
          "code": {
            "coding": [
              {
                "code": "3DHISTECH_THUMBNAIL",
                "display": "3DHISTECH Thumbnail Image",
                "system": "http://example.com/v2-to-fhir-converter/CodeSystem/L"
              },
              {
                "code": "S_IMAGE",
                "display": "Supplemental Image",
                "system": "http://example.com/v2-to-fhir-converter/CodeSystem/IHELAW"
              }
            ]
          },
          "status": "unknown",
          "presentedForm": [
            {
              "contentType": "image/jpeg",
              "data": "VGhpcyBpcyBhIEJhc2U2NCBzdHJpbmc="
            }
          ],
          "subject": {
            "reference": "Patient/9e909e52-61a1-be50-1878-a12ef8c36346"
          },
          "specimen": [
            {
              "reference": "Specimen/09fbd0b8-9319-3c61-2f84-e6dcb6c6497d"
            }
          ]
        },
        "request": {
          "method": "PUT",
          "url": "DiagnosticReport/46cde5f6-db9b-7da4-6316-2aa4cb2d0d97"
        }
      },
      {
        "fullUrl": "urn:uuid:4b4aecbd-d348-bb9b-b5a2-3a23e2ed3a67",
        "resource": {
          "resourceType": "Observation",
          "id": "4b4aecbd-d348-bb9b-b5a2-3a23e2ed3a67",
          "status": "final",
          "code": {
            "coding": [
              {
                "code": "3DHISTECH_THUMBNAIL",
                "display": "3DHISTECH Thumbnail Image",
                "system": "http://example.com/v2-to-fhir-converter/CodeSystem/L"
              },
              {
                "code": "S_IMAGE",
                "display": "Supplemental Image",
                "system": "http://example.com/v2-to-fhir-converter/CodeSystem/IHELAW"
              }
            ]
          },
          "valueString": "Observation value",
          "device": {
            "reference": "Device/d65fb981-c111-4bb1-b58f-6dde5b80f922"
          },
          "subject": {
            "reference": "Patient/9e909e52-61a1-be50-1878-a12ef8c36346"
          },
          "specimen": {
            "reference": "Specimen/09fbd0b8-9319-3c61-2f84-e6dcb6c6497d"
          },
          "extension": [
            {
              "url": "http://example.com/v2-to-fhir-converter/Observation_Status",
              "valueCodeableConcept": {
                "coding": [
                  {
                    "code": "F",
                    "display": "Final",
                    "system": "http://terminology.hl7.org/CodeSystem/v2-0085"
                  }
                ],
                "text": "Final"
              }
            }
          ]
        },
        "request": {
          "method": "PUT",
          "url": "Observation/4b4aecbd-d348-bb9b-b5a2-3a23e2ed3a67"
        }
      },
      {
        "fullUrl": "urn:uuid:29334ec4-0dc0-b4ab-30e9-421cf1a8a35d",
        "resource": {
          "resourceType": "Specimen",
          "id": "29334ec4-0dc0-b4ab-30e9-421cf1a8a35d",
          "identifier": [
            {
              "value": "2017-PAT-123456",
              "type": {
                "coding": [
                  {
                    "code": "PGN",
                    "system": "http://terminology.hl7.org/CodeSystem/v2-0203"
                  }
                ]
              }
            }
          ]
        },
        "request": {
          "method": "PUT",
          "url": "Specimen/29334ec4-0dc0-b4ab-30e9-421cf1a8a35d"
        }
      },
      {
        "fullUrl": "urn:uuid:4c60bf89-5730-fdcb-113f-40b5d9271009",
        "resource": {
          "resourceType": "DiagnosticReport",
          "id": "4c60bf89-5730-fdcb-113f-40b5d9271009",
          "code": {
            "coding": [
              {
                "code": "3DHISTECH_LABELARE",
                "display": "3DHISTECH Label Area Image",
                "system": "http://example.com/v2-to-fhir-converter/CodeSystem/L"
              },
              {
                "code": "S_IMAGE",
                "display": "Supplemental Image",
                "system": "http://example.com/v2-to-fhir-converter/CodeSystem/IHELAW"
              }
            ]
          },
          "status": "unknown",
          "presentedForm": [
            {
              "contentType": "image/jpeg",
              "data": "VGhpcyBpcyBhIEJhc2U2NCBzdHJpbmc="
            }
          ],
          "subject": {
            "reference": "Patient/9e909e52-61a1-be50-1878-a12ef8c36346"
          },
          "specimen": [
            {
              "reference": "Specimen/09fbd0b8-9319-3c61-2f84-e6dcb6c6497d"
            }
          ]
        },
        "request": {
          "method": "PUT",
          "url": "DiagnosticReport/4c60bf89-5730-fdcb-113f-40b5d9271009"
        }
      },
      {
        "fullUrl": "urn:uuid:95061d26-6388-e018-b093-9a687d42b908",
        "resource": {
          "resourceType": "Observation",
          "id": "95061d26-6388-e018-b093-9a687d42b908",
          "status": "final",
          "code": {
            "coding": [
              {
                "code": "3DHISTECH_LABELAREA",
                "display": "3DHISTECH Label Area Image",
                "system": "http://example.com/v2-to-fhir-converter/CodeSystem/L"
              },
              {
                "code": "S_IMAGE",
                "display": "Supplemental Image",
                "system": "http://example.com/v2-to-fhir-converter/CodeSystem/IHELAW"
              }
            ]
          },
          "valueQuantity": {
            "value": 120
          },
          "device": {
            "reference": "Device/d65fb981-c111-4bb1-b58f-6dde5b80f922"
          },
          "subject": {
            "reference": "Patient/9e909e52-61a1-be50-1878-a12ef8c36346"
          },
          "specimen": {
            "reference": "Specimen/09fbd0b8-9319-3c61-2f84-e6dcb6c6497d"
          },
          "extension": [
            {
              "url": "http://example.com/v2-to-fhir-converter/Observation_Status",
              "valueCodeableConcept": {
                "coding": [
                  {
                    "code": "F",
                    "display": "Final",
                    "system": "http://terminology.hl7.org/CodeSystem/v2-0085"
                  }
                ],
                "text": "Final"
              }
            }
          ]
        },
        "request": {
          "method": "PUT",
          "url": "Observation/95061d26-6388-e018-b093-9a687d42b908"
        }
      },
      {
        "fullUrl": "urn:uuid:a8184fb6-764c-fc0d-90c0-e0957879d8b9",
        "resource": {
          "resourceType": "DiagnosticReport",
          "id": "a8184fb6-764c-fc0d-90c0-e0957879d8b9",
          "code": {
            "coding": [
              {
                "code": "3DHISTECH_PREVIEWCAM",
                "display": "3DHISTECH Preview Camera Image",
                "system": "http://example.com/v2-to-fhir-converter/CodeSystem/L"
              },
              {
                "code": "S_IMAGE",
                "display": "Supplemental Image",
                "system": "http://example.com/v2-to-fhir-converter/CodeSystem/IHELAW"
              }
            ]
          },
          "status": "unknown",
          "presentedForm": [
            {
              "contentType": "image/jpeg",
              "data": "VGhpcyBpcyBhIEJhc2U2NCBzdHJpbmc="
            }
          ],
          "subject": {
            "reference": "Patient/9e909e52-61a1-be50-1878-a12ef8c36346"
          },
          "specimen": [
            {
              "reference": "Specimen/09fbd0b8-9319-3c61-2f84-e6dcb6c6497d"
            }
          ]
        },
        "request": {
          "method": "PUT",
          "url": "DiagnosticReport/a8184fb6-764c-fc0d-90c0-e0957879d8b9"
        }
      },
      {
        "fullUrl": "urn:uuid:3b64d540-91b3-7d04-a63a-657c83b60a86",
        "resource": {
          "resourceType": "ServiceRequest",
          "id": "3b64d540-91b3-7d04-a63a-657c83b60a86",
          "status": "completed",
          "intent": "order",
          "identifier": [
            {
              "value": "29adf2339de714c6698063e3ddf5d07",
              "system": "http://example.com/v2-to-fhir-converter/Identifier/47371996286d40019903e76ba57e49e8",
              "type": {
                "coding": [
                  {
                    "code": "PGN",
                    "system": "http://terminology.hl7.org/CodeSystem/v2-0203"
                  }
                ]
              }
            }
          ],
          "code": {
            "coding": [
              {
                "code": "57698-3",
                "display": "Lipid panel with direct LDL",
                "system": "http://loinc.org"
              }
            ]
          },
          "subject": {
            "reference": "Patient/9e909e52-61a1-be50-1878-a12ef8c36346"
          },
          "encounter": {
            "reference": "Encounter/da6f322f-ef5e-4f2c-c1f8-6e38dffbf995"
          },
          "requester": {
            "reference": "PractitionerRole/d4536528-5e14-2c7a-8d87-c0dcd7311649"
          },
          "note": [
            {
              "text": "Urgent"
            },
            {
              "text": "Fasting Sugar"
            }
          ],
          "reasonReference": [
            {
              "reference": "Condition/6aa417bb-3fc5-62b0-ec32-70959986e738"
            }
          ],
          "asNeededCodeableConcept": {
            "text": "Pain"
          },
          "quantityQuantity": {
            "value": 1
          },
          "occurrenceTiming": {
            "code": {
              "coding": [
                {
                  "code": "Once"
                }
              ]
            },
            "repeat": {
              "period": 1,
              "periodUnit": "d",
              "when": [
                "AC"
              ],
              "offset": 60,
              "boundsDuration": {
                "value": 1,
                "unit": "Day",
                "code": "d",
                "system": "http://unitsofmeasure.org"
              },
              "duration": 15,
              "durationUnit": "min",
              "count": 1
            }
          },
          "priority": "routine"
        },
        "request": {
          "method": "PUT",
          "url": "ServiceRequest/3b64d540-91b3-7d04-a63a-657c83b60a86"
        }
      },
      {
        "resource": {
          "resourceType": "DiagnosticReport",
          "id": "96929271-cce5-ac32-9769-cc19a1b4fe23",
          "resultsInterpreter": [
            {
              "reference": "PractitionerRole/722995e7-669d-f2a3-a59d-8dcfc7f244e1"
            }
          ],
          "identifier": [
            {
              "value": "29adf2339de714c6698063e3ddf5d07",
              "system": "http://example.com/v2-to-fhir-converter/Identifier/47371996286d40019903e76ba57e49e8",
              "type": {
                "coding": [
                  {
                    "code": "PGN",
                    "system": "http://terminology.hl7.org/CodeSystem/v2-0203"
                  }
                ]
              }
            }
          ],
          "effectiveDateTime": "2021-10-20T12:00:00+02:15",
          "code": {
            "coding": [
              {
                "code": "57698-3",
                "display": "Lipid panel with direct LDL",
                "system": "http://loinc.org"
              }
            ]
          },
          "status": "registered",
          "subject": {
            "reference": "Patient/9e909e52-61a1-be50-1878-a12ef8c36346"
          },
          "basedOn": [
            {
              "reference": "ServiceRequest/3b64d540-91b3-7d04-a63a-657c83b60a86"
            }
          ]
        },
        "fullUrl": "urn:uuid:96929271-cce5-ac32-9769-cc19a1b4fe23",
        "request": {
          "method": "PUT",
          "url": "DiagnosticReport/96929271-cce5-ac32-9769-cc19a1b4fe23"
        }
      },
      {
        "fullUrl": "urn:uuid:6aa417bb-3fc5-62b0-ec32-70959986e738",
        "resource": {
          "resourceType": "Condition",
          "id": "6aa417bb-3fc5-62b0-ec32-70959986e738",
          "code": {
            "coding": [
              {
                "code": "E10.9",
                "display": "Diabetes Mellitus Type 1",
                "system": "http://hl7.org/fhir/sid/icd-10"
              }
            ],
            "text": "Diabetes"
          },
          "onsetDateTime": "2018-05-01T12:30:09Z",
          "identifier": [
            {
              "value": "DG1002"
            }
          ],
          "asserter": {
            "reference": "Practitioner/8af87360-4a75-1531-6192-9bdbb1b0351c"
          },
          "subject": {
            "reference": "Patient/9e909e52-61a1-be50-1878-a12ef8c36346"
          },
          "encounter": {
            "reference": "Encounter/da6f322f-ef5e-4f2c-c1f8-6e38dffbf995"
          },
          "stage": [
            {
              "assessment": [
                {
                  "reference": "DiagnosticReport/96929271-cce5-ac32-9769-cc19a1b4fe23"
                }
              ]
            }
          ],
          "extension": [
            {
              "url": "http://hl7.org/fhir/StructureDefinition/condition-assertedDate",
              "valueDateTime": "2020-05-01T13:30:15Z"
            }
          ]
        },
        "request": {
          "method": "PUT",
          "url": "Condition/6aa417bb-3fc5-62b0-ec32-70959986e738"
        }
      },
      {
        "fullUrl": "urn:uuid:20dac0db-2777-6dd8-86ef-e3a0cc5a971e",
        "resource": {
          "resourceType": "DiagnosticReport",
          "id": "20dac0db-2777-6dd8-86ef-e3a0cc5a971e",
          "code": {
            "coding": [
              {
                "code": "3DH_LABELAREA",
                "display": "3DHIS L Area Image",
                "system": "http://example.com/v2-to-fhir-converter/CodeSystem/L"
              },
              {
                "code": "S_IMAGE",
                "display": "Supplemental Image",
                "system": "http://example.com/v2-to-fhir-converter/CodeSystem/IHELAW"
              }
            ]
          },
          "basedOn": [
            {
              "reference": "ServiceRequest/3b64d540-91b3-7d04-a63a-657c83b60a86"
            }
          ],
          "status": "unknown",
          "presentedForm": [
            {
              "contentType": "image/jpeg",
              "data": "VGhpcyBpcyBhIEJhc2U2NCBzdHJpbmc="
            }
          ],
          "subject": {
            "reference": "Patient/9e909e52-61a1-be50-1878-a12ef8c36346"
          }
        },
        "request": {
          "method": "PUT",
          "url": "DiagnosticReport/20dac0db-2777-6dd8-86ef-e3a0cc5a971e"
        }
      },
      {
        "fullUrl": "urn:uuid:1c58abe6-d8c2-c2b3-2aea-6156d37c8ead",
        "resource": {
          "resourceType": "Specimen",
          "id": "1c58abe6-d8c2-c2b3-2aea-6156d37c8ead",
          "identifier": [
            {
              "value": "2018-PAT-123456-1",
              "type": {
                "coding": [
                  {
                    "code": "PGN",
                    "system": "http://terminology.hl7.org/CodeSystem/v2-0203"
                  }
                ]
              }
            }
          ],
          "type": {
            "coding": [
              {
                "code": "SKBP",
                "display": "Biopsy, Skin",
                "system": "http://terminology.hl7.org/CodeSystem/v2-0487"
              }
            ]
          },
          "container": [
            {
              "identifier": [
                {
                  "value": "2017-PAT-123456-1-2-5"
                }
              ]
            }
          ],
          "accessionIdentifier": {
            "value": "2018-PT-123456",
            "system": "http://example.com/v2-to-fhir-converter/Identifier/L"
          },
          "subject": {
            "reference": "Patient/9e909e52-61a1-be50-1878-a12ef8c36346"
          },
          "request": [
            {
              "reference": "ServiceRequest/3b64d540-91b3-7d04-a63a-657c83b60a86"
            }
          ],
          "parent": [
            {
              "reference": "Specimen/29334ec4-0dc0-b4ab-30e9-421cf1a8a35d"
            }
          ]
        },
        "request": {
          "method": "PUT",
          "url": "Specimen/1c58abe6-d8c2-c2b3-2aea-6156d37c8ead"
        }
      },
      {
        "fullUrl": "urn:uuid:370e1124-2579-084a-42bd-160d2fb0c774",
        "resource": {
          "resourceType": "DiagnosticReport",
          "id": "370e1124-2579-084a-42bd-160d2fb0c774",
          "identifier": [
            {
              "value": "40bcbe96bcbf8cda8b07403263b92cb4",
              "system": "http://example.com/v2-to-fhir-converter/Identifier/3DHISTECH_SLDID"
            },
            {
              "type": {
                "coding": [
                  {
                    "code": "FILL"
                  }
                ]
              }
            }
          ],
          "code": {
            "coding": [
              {
                "code": "4DHISTECH_LD",
                "display": "3DHISTECH Digital Slide",
                "system": "http://example.com/v2-to-fhir-converter/CodeSystem/L"
              }
            ]
          },
          "status": "unknown",
          "presentedForm": [
            {
              "contentType": "image/MRXS",
              "url": "http://172.16.237.4/CaseCenter/index.php?ContainerType=CaseView&ContainerID=0&SlideID=40bcbe96bcbf8cda8b07403263b92cb4"
            }
          ],
          "subject": {
            "reference": "Patient/9e909e52-61a1-be50-1878-a12ef8c36346"
          },
          "specimen": [
            {
              "reference": "Specimen/1c58abe6-d8c2-c2b3-2aea-6156d37c8ead"
            }
          ]
        },
        "request": {
          "method": "PUT",
          "url": "DiagnosticReport/370e1124-2579-084a-42bd-160d2fb0c774"
        }
      },
      {
        "fullUrl": "urn:uuid:01696ed4-d923-a3b1-ff42-dbc560865a31",
        "resource": {
          "resourceType": "DiagnosticReport",
          "id": "01696ed4-d923-a3b1-ff42-dbc560865a31",
          "code": {
            "coding": [
              {
                "code": "4DHISTECH_LABELARE",
                "display": "3DHISTECH Label Area Image",
                "system": "http://example.com/v2-to-fhir-converter/CodeSystem/L"
              },
              {
                "code": "S_IMAGE",
                "display": "Supplemental Image",
                "system": "http://example.com/v2-to-fhir-converter/CodeSystem/IHELAW"
              }
            ]
          },
          "status": "unknown",
          "presentedForm": [
            {
              "contentType": "image/jpeg",
              "data": "VGhpcyBpcyBhIEJhc2U2NCBzdHJpbmc="
            }
          ],
          "subject": {
            "reference": "Patient/9e909e52-61a1-be50-1878-a12ef8c36346"
          },
          "specimen": [
            {
              "reference": "Specimen/1c58abe6-d8c2-c2b3-2aea-6156d37c8ead"
            }
          ]
        },
        "request": {
          "method": "PUT",
          "url": "DiagnosticReport/01696ed4-d923-a3b1-ff42-dbc560865a31"
        }
      },
      {
        "fullUrl": "urn:uuid:9a3d96e1-6669-b0f8-2263-93c2a2e32573",
        "resource": {
          "resourceType": "ServiceRequest",
          "id": "9a3d96e1-6669-b0f8-2263-93c2a2e32573",
          "status": "completed",
          "intent": "order",
          "identifier": [
            {
              "value": "845439",
              "system": "http://example.com/v2-to-fhir-converter/Identifier/GHH-OE",
              "type": {
                "coding": [
                  {
                    "code": "PLAC",
                    "system": "http://terminology.hl7.org/CodeSystem/v2-0203"
                  }
                ]
              }
            },
            {
              "value": "29adf2e714c6698063e3ddf5d07",
              "system": "http://example.com/v2-to-fhir-converter/Identifier/41996286d40019903e76ba57e49e8",
              "type": {
                "coding": [
                  {
                    "code": "PGN",
                    "system": "http://terminology.hl7.org/CodeSystem/v2-0203"
                  }
                ]
              }
            }
          ],
          "code": {
            "coding": [
              {
                "code": "57698-3",
                "display": "Lipid panel with direct LDL",
                "system": "http://loinc.org"
              }
            ]
          },
          "subject": {
            "reference": "Patient/9e909e52-61a1-be50-1878-a12ef8c36346"
          },
          "encounter": {
            "reference": "Encounter/da6f322f-ef5e-4f2c-c1f8-6e38dffbf995"
          },
          "requester": {
            "reference": "PractitionerRole/d4536528-5e14-2c7a-8d87-c0dcd7311649"
          },
          "note": [
            {
              "text": "Test Note for 3rd ServiceRequest"
            }
          ],
          "occurrenceDateTime": "2021-10-20T12:00:00+02:15",
          "supportingInfo": [
            {
              "reference": "ServiceRequest/808164b1-ff69-6eaf-d571-aa7fb8be2eb7"
            },
            {
              "reference": "Observation/c5769319-f70c-6656-0a67-5ef3f8d44942"
            },
            {
              "reference": "ServiceRequest/d3647703-b87e-8d07-e22f-dd8596b171cd"
            },
            {
              "reference": "Observation/19bd03e9-9aa3-0d49-a3c9-cb298f8bb2a3"
            }
          ]
        },
        "request": {
          "method": "PUT",
          "url": "ServiceRequest/9a3d96e1-6669-b0f8-2263-93c2a2e32573"
        }
      },
      {
        "resource": {
          "resourceType": "DiagnosticReport",
          "id": "3c202c0c-e3eb-2262-23c1-e1f328a0bbe4",
          "resultsInterpreter": [
            {
              "reference": "PractitionerRole/722995e7-669d-f2a3-a59d-8dcfc7f244e1"
            }
          ],
          "identifier": [
            {
              "value": "845439",
              "system": "http://example.com/v2-to-fhir-converter/Identifier/GHH-OE",
              "type": {
                "coding": [
                  {
                    "code": "PLAC",
                    "system": "http://terminology.hl7.org/CodeSystem/v2-0203"
                  }
                ]
              }
            },
            {
              "value": "29adf2e714c6698063e3ddf5d07",
              "system": "http://example.com/v2-to-fhir-converter/Identifier/41996286d40019903e76ba57e49e8",
              "type": {
                "coding": [
                  {
                    "code": "PGN",
                    "system": "http://terminology.hl7.org/CodeSystem/v2-0203"
                  }
                ]
              }
            }
          ],
          "effectiveDateTime": "2021-10-20T12:00:00+02:15",
          "code": {
            "coding": [
              {
                "code": "57698-3",
                "display": "Lipid panel with direct LDL",
                "system": "http://loinc.org"
              }
            ]
          },
          "status": "registered",
          "subject": {
            "reference": "Patient/9e909e52-61a1-be50-1878-a12ef8c36346"
          },
          "basedOn": [
            {
              "reference": "ServiceRequest/9a3d96e1-6669-b0f8-2263-93c2a2e32573"
            }
          ],
          "result": [
            {
              "reference": "Observation/d172fdac-a8ed-9480-80bb-b33992f04629"
            }
          ]
        },
        "fullUrl": "urn:uuid:3c202c0c-e3eb-2262-23c1-e1f328a0bbe4",
        "request": {
          "method": "PUT",
          "url": "DiagnosticReport/3c202c0c-e3eb-2262-23c1-e1f328a0bbe4"
        }
      },
      {
        "fullUrl": "urn:uuid:d172fdac-a8ed-9480-80bb-b33992f04629",
        "resource": {
          "resourceType": "Observation",
          "id": "d172fdac-a8ed-9480-80bb-b33992f04629",
          "identifier": [
            {
              "value": "40bcbe96bcbf8cda8b07403263b92cb4",
              "system": "http://example.com/v2-to-fhir-converter/Identifier/3DHISTECH_SLDID"
            },
            {
              "type": {
                "coding": [
                  {
                    "code": "FILL"
                  }
                ]
              }
            }
          ],
          "status": "final",
          "code": {
            "coding": [
              {
                "code": "3DHISH_SLD",
                "display": "3DHISTECH Digital Slide",
                "system": "http://example.com/v2-to-fhir-converter/CodeSystem/L"
              }
            ]
          },
          "basedOn": [
            {
              "reference": "ServiceRequest/9a3d96e1-6669-b0f8-2263-93c2a2e32573"
            }
          ],
          "valueString": "Test",
          "device": {
            "reference": "Device/d65fb981-c111-4bb1-b58f-6dde5b80f922"
          },
          "subject": {
            "reference": "Patient/9e909e52-61a1-be50-1878-a12ef8c36346"
          },
          "extension": [
            {
              "url": "http://example.com/v2-to-fhir-converter/Observation_Status",
              "valueCodeableConcept": {
                "coding": [
                  {
                    "code": "F",
                    "display": "Final",
                    "system": "http://terminology.hl7.org/CodeSystem/v2-0085"
                  }
                ],
                "text": "Final"
              }
            }
          ],
          "note": [
            {
              "text": "Test Note for 3rd ServiceRequest"
            }
          ]
        },
        "request": {
          "method": "PUT",
          "url": "Observation/d172fdac-a8ed-9480-80bb-b33992f04629"
        }
      },
      {
        "fullUrl": "urn:uuid:3a30664e-9900-5731-b351-096ddbd1d4fa",
        "resource": {
          "resourceType": "Specimen",
          "id": "3a30664e-9900-5731-b351-096ddbd1d4fa",
          "identifier": [
            {
              "value": "2019-PAT-1456-1",
              "type": {
                "coding": [
                  {
                    "code": "PGN",
                    "system": "http://terminology.hl7.org/CodeSystem/v2-0203"
                  }
                ]
              }
            }
          ],
          "type": {
            "coding": [
              {
                "code": "SKBP",
                "display": "Biopsy, Skin",
                "system": "http://terminology.hl7.org/CodeSystem/v2-0487"
              }
            ]
          },
          "subject": {
            "reference": "Patient/9e909e52-61a1-be50-1878-a12ef8c36346"
          },
          "request": [
            {
              "reference": "ServiceRequest/9a3d96e1-6669-b0f8-2263-93c2a2e32573"
            }
          ],
          "parent": [
            {
              "reference": "Specimen/15f429e9-5db1-5521-af83-8dc73baa5009"
            }
          ]
        },
        "request": {
          "method": "PUT",
          "url": "Specimen/3a30664e-9900-5731-b351-096ddbd1d4fa"
        }
      },
      {
        "fullUrl": "urn:uuid:15f429e9-5db1-5521-af83-8dc73baa5009",
        "resource": {
          "resourceType": "Specimen",
          "id": "15f429e9-5db1-5521-af83-8dc73baa5009",
          "identifier": [
            {
              "value": "2019-PAT-123456",
              "type": {
                "coding": [
                  {
                    "code": "PGN",
                    "system": "http://terminology.hl7.org/CodeSystem/v2-0203"
                  }
                ]
              }
            }
          ]
        },
        "request": {
          "method": "PUT",
          "url": "Specimen/15f429e9-5db1-5521-af83-8dc73baa5009"
        }
      },
      {
        "fullUrl": "urn:uuid:c5769319-f70c-6656-0a67-5ef3f8d44942",
        "resource": {
          "resourceType": "Observation",
          "id": "c5769319-f70c-6656-0a67-5ef3f8d44942",
          "identifier": [
            {
              "value": "40bcbe96bcbf8cda8b07403263b92cb4",
              "system": "http://example.com/v2-to-fhir-converter/Identifier/3DHISTECH_SLDID"
            },
            {
              "type": {
                "coding": [
                  {
                    "code": "FILL"
                  }
                ]
              }
            }
          ],
          "status": "final",
          "code": {
            "coding": [
              {
                "code": "3DHISTECH_SLD",
                "display": "3DHISTECH Digital Slide",
                "system": "http://example.com/v2-to-fhir-converter/CodeSystem/L"
              }
            ]
          },
          "component": [
            {
              "code": {
                "coding": [
                  {
                    "code": "3DHISTECH_SLD",
                    "display": "3DHISTECH Digital Slide",
                    "system": "http://example.com/v2-to-fhir-converter/CodeSystem/L"
                  }
                ]
              },
              "valueQuantity": {
                "value": 80
              }
            },
            {
              "code": {
                "coding": [
                  {
                    "code": "3DHISTECH_SLD",
                    "display": "3DHISTECH Digital Slide",
                    "system": "http://example.com/v2-to-fhir-converter/CodeSystem/L"
                  }
                ]
              },
              "valueQuantity": {
                "value": 120
              }
            }
          ],
          "device": {
            "reference": "Device/d65fb981-c111-4bb1-b58f-6dde5b80f922"
          },
          "subject": {
            "reference": "Patient/9e909e52-61a1-be50-1878-a12ef8c36346"
          },
          "specimen": {
            "reference": "Specimen/3a30664e-9900-5731-b351-096ddbd1d4fa"
          },
          "extension": [
            {
              "url": "http://example.com/v2-to-fhir-converter/Observation_Status",
              "valueCodeableConcept": {
                "coding": [
                  {
                    "code": "F",
                    "display": "Final",
                    "system": "http://terminology.hl7.org/CodeSystem/v2-0085"
                  }
                ],
                "text": "Final"
              }
            }
          ],
          "basedOn": [
            {
              "reference": "ServiceRequest/808164b1-ff69-6eaf-d571-aa7fb8be2eb7"
            }
          ],
          "note": [
            {
              "text": "Test Note OBX1"
            }
          ]
        },
        "request": {
          "method": "PUT",
          "url": "Observation/c5769319-f70c-6656-0a67-5ef3f8d44942"
        }
      },
      {
        "fullUrl": "urn:uuid:808164b1-ff69-6eaf-d571-aa7fb8be2eb7",
        "resource": {
          "resourceType": "ServiceRequest",
          "id": "808164b1-ff69-6eaf-d571-aa7fb8be2eb7",
          "status": "completed",
          "intent": "order",
          "identifier": [
            {
              "value": "9adf2339de714c6698063e3ddf5d0167",
              "system": "http://example.com/v2-to-fhir-converter/Identifier/47371996286d40019903e76ba57e49e8",
              "type": {
                "coding": [
                  {
                    "code": "PGN",
                    "system": "http://terminology.hl7.org/CodeSystem/v2-0203"
                  }
                ]
              }
            }
          ],
          "code": {
            "coding": [
              {
                "code": "57698-3",
                "display": "Lipid panel with direct LDL - Plasma",
                "system": "http://loinc.org"
              }
            ]
          },
          "subject": {
            "reference": "Patient/9e909e52-61a1-be50-1878-a12ef8c36346"
          },
          "encounter": {
            "reference": "Encounter/415e21b9-f92c-66fb-cf2d-1914af5f54ec"
          },
          "requester": {
            "reference": "PractitionerRole/d4536528-5e14-2c7a-8d87-c0dcd7311649"
          },
          "note": [
            {
              "text": "Test Note for 3rd ServiceRequest"
            }
          ],
          "occurrenceDateTime": "2021-10-20T12:00:00+02:15",
          "specimen": [
            {
              "reference": "Specimen/3a30664e-9900-5731-b351-096ddbd1d4fa"
            }
          ]
        },
        "request": {
          "method": "PUT",
          "url": "ServiceRequest/808164b1-ff69-6eaf-d571-aa7fb8be2eb7"
        }
      },
      {
        "resource": {
          "resourceType": "DiagnosticReport",
          "id": "27e751bd-5aa5-58f9-8146-3378303e9397",
          "resultsInterpreter": [
            {
              "reference": "PractitionerRole/722995e7-669d-f2a3-a59d-8dcfc7f244e1"
            }
          ],
          "identifier": [
            {
              "value": "9adf2339de714c6698063e3ddf5d0167",
              "system": "http://example.com/v2-to-fhir-converter/Identifier/47371996286d40019903e76ba57e49e8",
              "type": {
                "coding": [
                  {
                    "code": "PGN",
                    "system": "http://terminology.hl7.org/CodeSystem/v2-0203"
                  }
                ]
              }
            }
          ],
          "effectiveDateTime": "2021-10-20T12:00:00+02:15",
          "code": {
            "coding": [
              {
                "code": "57698-3",
                "display": "Lipid panel with direct LDL - Plasma",
                "system": "http://loinc.org"
              }
            ]
          },
          "status": "registered",
          "subject": {
            "reference": "Patient/9e909e52-61a1-be50-1878-a12ef8c36346"
          },
          "basedOn": [
            {
              "reference": "ServiceRequest/808164b1-ff69-6eaf-d571-aa7fb8be2eb7"
            }
          ],
          "result": [
            {
              "reference": "Observation/c5769319-f70c-6656-0a67-5ef3f8d44942"
            }
          ],
          "specimen": [
            {
              "reference": "Specimen/3a30664e-9900-5731-b351-096ddbd1d4fa"
            }
          ]
        },
        "fullUrl": "urn:uuid:27e751bd-5aa5-58f9-8146-3378303e9397",
        "request": {
          "method": "PUT",
          "url": "DiagnosticReport/27e751bd-5aa5-58f9-8146-3378303e9397"
        }
      },
      {
        "fullUrl": "urn:uuid:d3647703-b87e-8d07-e22f-dd8596b171cd",
        "resource": {
          "resourceType": "ServiceRequest",
          "id": "d3647703-b87e-8d07-e22f-dd8596b171cd",
          "status": "revoked",
          "intent": "order",
          "identifier": [
            {
              "value": "PO-2",
              "type": {
                "coding": [
                  {
                    "code": "PLAC",
                    "system": "http://terminology.hl7.org/CodeSystem/v2-0203"
                  }
                ]
              }
            },
            {
              "value": "FO-3",
              "type": {
                "coding": [
                  {
                    "code": "FILL",
                    "system": "http://terminology.hl7.org/CodeSystem/v2-0203"
                  }
                ]
              }
            },
            {
              "value": "9adf2339dc6698063e3ddf5d0167",
              "system": "http://example.com/v2-to-fhir-converter/Identifier/47371996286d40019903e76ba57e49e8",
              "type": {
                "coding": [
                  {
                    "code": "PGN",
                    "system": "http://terminology.hl7.org/CodeSystem/v2-0203"
                  }
                ]
              }
            }
          ],
          "code": {
            "coding": [
              {
                "code": "57698-3",
                "display": "Lipid panel with direct LDL - Plasma",
                "system": "http://loinc.org"
              }
            ]
          },
          "subject": {
            "reference": "Patient/9e909e52-61a1-be50-1878-a12ef8c36346"
          },
          "encounter": {
            "reference": "Encounter/dae740e1-000a-f36b-b8a7-0e0d1730fff6"
          },
          "requester": {
            "reference": "PractitionerRole/d4536528-5e14-2c7a-8d87-c0dcd7311649"
          },
          "note": [
            {
              "text": "Test Note for 3rd ServiceRequest"
            }
          ],
          "occurrenceDateTime": "2021-10-20T12:00:00+02:15",
          "specimen": [
            {
              "reference": "Specimen/3a30664e-9900-5731-b351-096ddbd1d4fa"
            }
          ]
        },
        "request": {
          "method": "PUT",
          "url": "ServiceRequest/d3647703-b87e-8d07-e22f-dd8596b171cd"
        }
      },
      {
        "resource": {
          "resourceType": "DiagnosticReport",
          "id": "17af63cc-98b5-5aa8-a1a4-e66bdee50b53",
          "resultsInterpreter": [
            {
              "reference": "PractitionerRole/722995e7-669d-f2a3-a59d-8dcfc7f244e1"
            }
          ],
          "identifier": [
            {
              "value": "PO-2",
              "type": {
                "coding": [
                  {
                    "code": "PLAC",
                    "system": "http://terminology.hl7.org/CodeSystem/v2-0203"
                  }
                ]
              }
            },
            {
              "value": "FO-3",
              "type": {
                "coding": [
                  {
                    "code": "FILL",
                    "system": "http://terminology.hl7.org/CodeSystem/v2-0203"
                  }
                ]
              }
            },
            {
              "value": "9adf2339dc6698063e3ddf5d0167",
              "system": "http://example.com/v2-to-fhir-converter/Identifier/47371996286d40019903e76ba57e49e8",
              "type": {
                "coding": [
                  {
                    "code": "PGN",
                    "system": "http://terminology.hl7.org/CodeSystem/v2-0203"
                  }
                ]
              }
            }
          ],
          "effectiveDateTime": "2021-10-20T12:00:00+02:15",
          "code": {
            "coding": [
              {
                "code": "57698-3",
                "display": "Lipid panel with direct LDL - Plasma",
                "system": "http://loinc.org"
              }
            ]
          },
          "status": "registered",
          "subject": {
            "reference": "Patient/9e909e52-61a1-be50-1878-a12ef8c36346"
          },
          "basedOn": [
            {
              "reference": "ServiceRequest/d3647703-b87e-8d07-e22f-dd8596b171cd"
            }
          ],
          "result": [
            {
              "reference": "Observation/19bd03e9-9aa3-0d49-a3c9-cb298f8bb2a3"
            }
          ],
          "specimen": [
            {
              "reference": "Specimen/3a30664e-9900-5731-b351-096ddbd1d4fa"
            }
          ]
        },
        "fullUrl": "urn:uuid:17af63cc-98b5-5aa8-a1a4-e66bdee50b53",
        "request": {
          "method": "PUT",
          "url": "DiagnosticReport/17af63cc-98b5-5aa8-a1a4-e66bdee50b53"
        }
      },
      {
        "fullUrl": "urn:uuid:19bd03e9-9aa3-0d49-a3c9-cb298f8bb2a3",
        "resource": {
          "resourceType": "Observation",
          "id": "19bd03e9-9aa3-0d49-a3c9-cb298f8bb2a3",
          "identifier": [
            {
              "value": "40bcbe96bcbf8cda8b07403263b92cb4",
              "system": "http://example.com/v2-to-fhir-converter/Identifier/3DHISTECH_SLDID"
            },
            {
              "type": {
                "coding": [
                  {
                    "code": "FILL"
                  }
                ]
              }
            }
          ],
          "status": "final",
          "code": {
            "coding": [
              {
                "code": "7ISTECH_SLD",
                "display": "3DHISTECH Digital Slide",
                "system": "http://example.com/v2-to-fhir-converter/CodeSystem/L"
              }
            ]
          },
          "basedOn": [
            {
              "reference": "ServiceRequest/d3647703-b87e-8d07-e22f-dd8596b171cd"
            }
          ],
          "component": [
            {
              "code": {
                "coding": [
                  {
                    "code": "7ISTECH_SLD",
                    "display": "3DHISTECH Digital Slide",
                    "system": "http://example.com/v2-to-fhir-converter/CodeSystem/L"
                  }
                ]
              },
              "valueQuantity": {
                "value": 80
              }
            },
            {
              "code": {
                "coding": [
                  {
                    "code": "7ISTECH_SLD",
                    "display": "3DHISTECH Digital Slide",
                    "system": "http://example.com/v2-to-fhir-converter/CodeSystem/L"
                  }
                ]
              },
              "valueQuantity": {
                "value": 120
              }
            }
          ],
          "device": {
            "reference": "Device/d65fb981-c111-4bb1-b58f-6dde5b80f922"
          },
          "subject": {
            "reference": "Patient/9e909e52-61a1-be50-1878-a12ef8c36346"
          },
          "extension": [
            {
              "url": "http://example.com/v2-to-fhir-converter/Observation_Status",
              "valueCodeableConcept": {
                "coding": [
                  {
                    "code": "F",
                    "display": "Final",
                    "system": "http://terminology.hl7.org/CodeSystem/v2-0085"
                  }
                ],
                "text": "Final"
              }
            }
          ],
          "note": [
            {
              "text": "Test Note OBX1"
            }
          ],
          "specimen": {
            "reference": "Specimen/3a30664e-9900-5731-b351-096ddbd1d4fa"
          }
        },
        "request": {
          "method": "PUT",
          "url": "Observation/19bd03e9-9aa3-0d49-a3c9-cb298f8bb2a3"
        }
      },
      {
        "fullUrl": "urn:uuid:415e21b9-f92c-66fb-cf2d-1914af5f54ec",
        "resource": {
          "resourceType": "Encounter",
          "id": "415e21b9-f92c-66fb-cf2d-1914af5f54ec",
          "class": {
            "code": "AMB",
            "display": "ambulatory",
            "system": "http://terminology.hl7.org/CodeSystem/v3-ActCode"
          },
          "status": "in-progress",
          "location": [
            {
              "status": "active",
              "location": {
                "reference": "Location/4683678a-6244-d9d8-3643-bd5af6862624"
              }
            },
            {
              "status": "completed",
              "location": {
                "reference": "Location/502c12bb-692b-055b-2d94-bf9805c5969e"
              }
            }
          ],
          "participant": [
            {
              "type": [
                {
                  "coding": [
                    {
                      "code": "ATND",
                      "system": "http://terminology.hl7.org/CodeSystem/v3-ParticipationType",
                      "display": "attender"
                    }
                  ]
                }
              ],
              "individual": {
                "reference": "Practitioner/d00df304-17fa-8d9a-bd02-3276b1781ea1"
              }
            },
            {
              "type": [
                {
                  "coding": [
                    {
                      "code": "REF",
                      "system": "http://terminology.hl7.org/CodeSystem/v3-ParticipationType"
                    }
                  ],
                  "text": "referrer"
                }
              ],
              "individual": {
                "reference": "Practitioner/21d5ab8b-8f3d-4fd9-f1c4-6f32568b0ae9"
              }
            },
            {
              "type": [
                {
                  "coding": [
                    {
                      "code": "ADM",
                      "system": "http://terminology.hl7.org/CodeSystem/v3-ParticipationType"
                    }
                  ],
                  "text": "admitter"
                }
              ],
              "individual": {
                "reference": "Practitioner/6c138e7c-e841-af07-8948-d01692bd2739"
              }
            }
          ],
          "identifier": [
            {
              "value": "50011",
              "system": "http://example.com/v2-to-fhir-converter/Identifier/Acc-Mgr",
              "type": {
                "coding": [
                  {
                    "code": "VN",
                    "system": "http://terminology.hl7.org/CodeSystem/v2-0203"
                  }
                ],
                "text": "visit number"
              }
            }
          ],
          "period": {
            "start": "2021-10-20T11:26:00+02:15"
          },
          "text": {
            "status": "generated",
            "div": "<div xmlns=\"http://www.w3.org/1999/xhtml\"><p><span>Visit Description: </span></p></div>"
          },
          "account": [
            {
              "reference": "Account/4ad7c7d0-b69a-0653-9ea9-0979b8a66b39"
            }
          ],
          "subject": {
            "reference": "Patient/9e909e52-61a1-be50-1878-a12ef8c36346"
          },
          "extension": [
            {
              "url": "http://hl7.org/fhir/StructureDefinition/encounter-modeOfArrival",
              "valueCoding": {
                "code": "C",
                "display": "Car",
                "system": "http://terminology.hl7.org/CodeSystem/v2-0430"
              }
            }
          ]
        },
        "request": {
          "method": "PUT",
          "url": "Encounter/415e21b9-f92c-66fb-cf2d-1914af5f54ec"
        }
      },
      {
        "fullUrl": "urn:uuid:16007897-6bd0-dfaf-c698-e65da0e088e2",
        "resource": {
          "resourceType": "Location",
          "id": "16007897-6bd0-dfaf-c698-e65da0e088e2",
          "name": "Lab01",
          "mode": "instance",
          "description": "Lab01--Room01--GHH Facility",
          "physicalType": {
            "coding": [
              {
                "system": "http://terminology.hl7.org/CodeSystem/location-physical-type",
                "code": "lvl"
              }
            ]
          }
        },
        "request": {
          "method": "PUT",
          "url": "Location/16007897-6bd0-dfaf-c698-e65da0e088e2"
        }
      },
      {
        "fullUrl": "urn:uuid:cef612a2-f5b1-2e3e-ee80-98da99d4182f",
        "resource": {
          "resourceType": "Location",
          "id": "cef612a2-f5b1-2e3e-ee80-98da99d4182f",
          "partOf": {
            "reference": "Location/16007897-6bd0-dfaf-c698-e65da0e088e2"
          },
          "name": "Room01",
          "mode": "instance",
          "description": "Lab01--Room01--GHH Facility",
          "physicalType": {
            "coding": [
              {
                "system": "http://terminology.hl7.org/CodeSystem/location-physical-type",
                "code": "ro"
              }
            ]
          }
        },
        "request": {
          "method": "PUT",
          "url": "Location/cef612a2-f5b1-2e3e-ee80-98da99d4182f"
        }
      },
      {
        "fullUrl": "urn:uuid:417bbfc2-d50a-cc04-83d5-a69236d3977c",
        "resource": {
          "resourceType": "Location",
          "id": "417bbfc2-d50a-cc04-83d5-a69236d3977c",
          "name": "GHH Facility",
          "mode": "instance",
          "description": "Lab01--Room01--GHH Facility",
          "physicalType": {
            "coding": [
              {
                "system": "http://terminology.hl7.org/CodeSystem/location-physical-type",
                "code": "si"
              }
            ]
          }
        },
        "request": {
          "method": "PUT",
          "url": "Location/417bbfc2-d50a-cc04-83d5-a69236d3977c"
        }
      },
      {
        "fullUrl": "urn:uuid:3e629aa5-7817-8f90-6909-d70a4dff707d",
        "resource": {
          "resourceType": "Location",
          "id": "3e629aa5-7817-8f90-6909-d70a4dff707d",
          "name": "Trauma-Centre",
          "mode": "instance",
          "description": "Trauma-Centre--ROOM1--2.16.840.1.113883.4.642.1.1108--ISO--GHH",
          "physicalType": {
            "coding": [
              {
                "system": "http://terminology.hl7.org/CodeSystem/location-physical-type",
                "code": "lvl"
              }
            ]
          }
        },
        "request": {
          "method": "PUT",
          "url": "Location/3e629aa5-7817-8f90-6909-d70a4dff707d"
        }
      },
      {
        "fullUrl": "urn:uuid:283ba5cc-3293-242c-794e-240b9ad6104e",
        "resource": {
          "resourceType": "Location",
          "id": "283ba5cc-3293-242c-794e-240b9ad6104e",
          "partOf": {
            "reference": "Location/3e629aa5-7817-8f90-6909-d70a4dff707d"
          },
          "name": "ROOM1",
          "identifier": [
            {
              "value": "urn:oid:2.16.840.1.113883.4.642.1.1108",
              "system": "urn:ietf:rfc:3986"
            }
          ],
          "mode": "instance",
          "description": "Trauma-Centre--ROOM1--2.16.840.1.113883.4.642.1.1108--ISO--GHH",
          "physicalType": {
            "coding": [
              {
                "system": "http://terminology.hl7.org/CodeSystem/location-physical-type",
                "code": "ro"
              }
            ]
          }
        },
        "request": {
          "method": "PUT",
          "url": "Location/283ba5cc-3293-242c-794e-240b9ad6104e"
        }
      },
      {
        "fullUrl": "urn:uuid:6060bab9-20a2-1ddb-d510-c3aad0f009a2",
        "resource": {
          "resourceType": "Location",
          "id": "6060bab9-20a2-1ddb-d510-c3aad0f009a2",
          "name": "GHH",
          "mode": "instance",
          "description": "Trauma-Centre--ROOM1--2.16.840.1.113883.4.642.1.1108--ISO--GHH",
          "physicalType": {
            "coding": [
              {
                "system": "http://terminology.hl7.org/CodeSystem/location-physical-type",
                "code": "si"
              }
            ]
          }
        },
        "request": {
          "method": "PUT",
          "url": "Location/6060bab9-20a2-1ddb-d510-c3aad0f009a2"
        }
      },
      {
        "fullUrl": "urn:uuid:dae740e1-000a-f36b-b8a7-0e0d1730fff6",
        "resource": {
          "resourceType": "Encounter",
          "id": "dae740e1-000a-f36b-b8a7-0e0d1730fff6",
          "class": {
            "code": "PRENC",
            "display": "pre-admission",
            "system": "http://terminology.hl7.org/CodeSystem/v3-ActCode"
          },
          "status": "planned",
          "location": [
            {
              "status": "planned",
              "location": {
                "reference": "Location/16007897-6bd0-dfaf-c698-e65da0e088e2"
              }
            },
            {
              "status": "completed",
              "location": {
                "reference": "Location/3e629aa5-7817-8f90-6909-d70a4dff707d"
              }
            }
          ],
          "participant": [
            {
              "type": [
                {
                  "coding": [
                    {
                      "code": "ATND",
                      "system": "http://terminology.hl7.org/CodeSystem/v3-ParticipationType",
                      "display": "attender"
                    }
                  ]
                }
              ],
              "individual": {
                "reference": "Practitioner/d00df304-17fa-8d9a-bd02-3276b1781ea1"
              }
            },
            {
              "type": [
                {
                  "coding": [
                    {
                      "code": "REF",
                      "system": "http://terminology.hl7.org/CodeSystem/v3-ParticipationType"
                    }
                  ],
                  "text": "referrer"
                }
              ],
              "individual": {
                "reference": "Practitioner/21d5ab8b-8f3d-4fd9-f1c4-6f32568b0ae9"
              }
            },
            {
              "type": [
                {
                  "coding": [
                    {
                      "code": "ADM",
                      "system": "http://terminology.hl7.org/CodeSystem/v3-ParticipationType"
                    }
                  ],
                  "text": "admitter"
                }
              ],
              "individual": {
                "reference": "Practitioner/6c138e7c-e841-af07-8948-d01692bd2739"
              }
            }
          ],
          "identifier": [
            {
              "value": "5002",
              "system": "http://example.com/v2-to-fhir-converter/Identifier/Account-Manager",
              "type": {
                "coding": [
                  {
                    "code": "VN",
                    "system": "http://terminology.hl7.org/CodeSystem/v2-0203"
                  }
                ],
                "text": "visit number"
              }
            }
          ],
          "period": {
            "start": "2021-10-20T11:26:00+02:15"
          },
          "text": {
            "status": "generated",
            "div": "<div xmlns=\"http://www.w3.org/1999/xhtml\"><p><span>Visit Description: </span></p></div>"
          },
          "account": [
            {
              "reference": "Account/4ad7c7d0-b69a-0653-9ea9-0979b8a66b39"
            }
          ],
          "subject": {
            "reference": "Patient/9e909e52-61a1-be50-1878-a12ef8c36346"
          },
          "extension": [
            {
              "url": "http://hl7.org/fhir/StructureDefinition/encounter-modeOfArrival",
              "valueCoding": {
                "code": "C",
                "display": "Car",
                "system": "http://terminology.hl7.org/CodeSystem/v2-0430"
              }
            }
          ]
        },
        "request": {
          "method": "PUT",
          "url": "Encounter/dae740e1-000a-f36b-b8a7-0e0d1730fff6"
        }
      }
    ]
  }
