{
  "resourceType": "Bundle",
  "type": "batch",
  "timestamp": "2021-08-18T14:41:00+05:30",
  "identifier": {
      "value": "MSG00001"
  },
  "id": "513a3d06-5e87-6fbc-ad1b-170ab430499f",
  "entry": [
      {
          "fullUrl": "urn:uuid:b13e166f-ef87-b9d8-670d-5227496f6d4f",
          "resource": {
              "resourceType": "MessageHeader",
              "id": "b13e166f-ef87-b9d8-670d-5227496f6d4f",
              "source": {
                  "name": "24GHH",
                  "endpoint": "urn:oid:2.16.840.1.114884.10.20",
                  "version": "2.4.3.52854",
                  "software": "Rhapsody"
              },
              "destination": [
                  {
                      "name": "25GHH",
                      "endpoint": "urn:oid:2.16.840.1.114884.10.23",
                      "receiver": {
                          "reference": "Organization/527280c1-34d1-c639-e9ba-61986d28e266"
                      }
                  }
              ],
              "meta": {
                  "security": [
                      {
                          "display": "SECURITY"
                      }
                  ],
                  "tag": [
                      {
                          "code": "P",
                          "system": "http://terminology.hl7.org/CodeSystem/v2-0103"
                      }
                  ]
              },
              "eventCoding": {
                  "code": "O25",
                  "system": "http://terminology.hl7.org/CodeSystem/v2-0003",
                  "display": "RDE^O25^RDE_O25"
              },
              "language": "en-US",
              "sender": {
                  "reference": "Organization/4356fb81-6ecd-2d70-57b1-47812638e785"
              },
              "responsible": {
                  "reference": "Organization/33532a82-d220-4c0d-1abe-53e48951c201"
              }
          },
          "request": {
              "method": "PUT",
              "url": "MessageHeader/b13e166f-ef87-b9d8-670d-5227496f6d4f"
          }
      },
      {
          "fullUrl": "urn:uuid:0e3398a6-ab60-d32b-cf54-420d218f2e12",
          "resource": {
              "resourceType": "Provenance",
              "id": "0e3398a6-ab60-d32b-cf54-420d218f2e12",
              "text": {
                  "status": "generated",
                  "div": "<div xmlns=\"http://www.w3.org/1999/xhtml\"><p><span>Resource bundle generated on 2022-03-28T09:38:25.581Z using Microsoft FHIR Converter.</span><span>Template Version: TEMPLATE_VERSION_PLACEHOLDER.</span><span>Template URL: https://github.com/microsoft/FHIR-Converter/releases/download/vTEMPLATE_VERSION_PLACEHOLDER/Hl7v2DefaultTemplates.tar.gz.</span><span>Root template: RDE_O25.</span></p></div>"
              },
              "occurredDateTime": "2021-08-18T14:41:00+05:30",
              "recorded": "2021-08-18T14:41:00+05:30",
              "agent": [
                  {
                      "type": {
                          "coding": [
                              {
                                  "code": "author",
                                  "system": "http://terminology.hl7.org/CodeSystem/provenance-participant-type"
                              }
                          ]
                      },
                      "who": {
                          "reference": "Organization/33532a82-d220-4c0d-1abe-53e48951c201"
                      }
                  }
              ],
              "activity": {
                  "coding": [
                      {
                          "display": "RDE^O25^RDE_O25"
                      }
                  ]
              },
              "entity": [
                  {
                      "role": "source",
                      "what": {
                          "reference": "Device/0d316167-6bb9-0e3f-d00b-0d11f1c51cf2"
                      }
                  }
              ],
              "target": [
                  {
                      "reference": "Bundle/513a3d06-5e87-6fbc-ad1b-170ab430499f"
                  }
              ]
          },
          "request": {
              "method": "PUT",
              "url": "Provenance/0e3398a6-ab60-d32b-cf54-420d218f2e12"
          }
      },
      {
          "fullUrl": "urn:uuid:4356fb81-6ecd-2d70-57b1-47812638e785",
          "resource": {
              "resourceType": "Organization",
              "id": "4356fb81-6ecd-2d70-57b1-47812638e785",
              "identifier": [
                  {
                      "value": "GHHSFacility",
                      "system": "http://example.com/v2-to-fhir-converter/Identifier/GHHSFacility"
                  },
                  {
                      "value": "urn:oid:2.16.840.1.122848.1.30",
                      "system": "urn:ietf:rfc:3986",
                      "type": {
                          "coding": [
                              {
                                  "code": "ISO",
                                  "display": "An International Standards Organization Object Identifier (OID), in accordance with ISO/IEC 8824. Formatted as decimal digits separated by periods; recommended limit of 64 characters",
                                  "system": "http://terminology.hl7.org/CodeSystem/v2-0301"
                              }
                          ]
                      }
                  }
              ],
              "partOf": {
                  "reference": "Organization/33532a82-d220-4c0d-1abe-53e48951c201"
              },
              "address": [
                  {
                      "country": "USA"
                  }
              ]
          },
          "request": {
              "method": "PUT",
              "url": "Organization/4356fb81-6ecd-2d70-57b1-47812638e785"
          }
      },
      {
          "fullUrl": "urn:uuid:62781ad6-3896-cb63-0178-ead0c4a432b5",
          "resource": {
              "resourceType": "Organization",
              "id": "62781ad6-3896-cb63-0178-ead0c4a432b5",
              "identifier": [
                  {
                      "value": "GHHRFacility",
                      "system": "http://example.com/v2-to-fhir-converter/Identifier/GHHRFacility"
                  },
                  {
                      "value": "urn:oid:2.16.840.1.1122848.1.32",
                      "system": "urn:ietf:rfc:3986",
                      "type": {
                          "coding": [
                              {
                                  "code": "ISO",
                                  "display": "An International Standards Organization Object Identifier (OID), in accordance with ISO/IEC 8824. Formatted as decimal digits separated by periods; recommended limit of 64 characters",
                                  "system": "http://terminology.hl7.org/CodeSystem/v2-0301"
                              }
                          ]
                      }
                  }
              ],
              "partOf": {
                  "reference": "Organization/527280c1-34d1-c639-e9ba-61986d28e266"
              },
              "address": [
                  {
                      "country": "USA"
                  }
              ]
          },
          "request": {
              "method": "PUT",
              "url": "Organization/62781ad6-3896-cb63-0178-ead0c4a432b5"
          }
      },
      {
          "fullUrl": "urn:uuid:33532a82-d220-4c0d-1abe-53e48951c201",
          "resource": {
              "resourceType": "Organization",
              "id": "33532a82-d220-4c0d-1abe-53e48951c201",
              "name": "22 GHH Inc."
          },
          "request": {
              "method": "PUT",
              "url": "Organization/33532a82-d220-4c0d-1abe-53e48951c201"
          }
      },
      {
          "fullUrl": "urn:uuid:527280c1-34d1-c639-e9ba-61986d28e266",
          "resource": {
              "resourceType": "Organization",
              "id": "527280c1-34d1-c639-e9ba-61986d28e266",
              "name": "23 GHH Inc."
          },
          "request": {
              "method": "PUT",
              "url": "Organization/527280c1-34d1-c639-e9ba-61986d28e266"
          }
      },
      {
          "fullUrl": "urn:uuid:0d316167-6bb9-0e3f-d00b-0d11f1c51cf2",
          "resource": {
              "resourceType": "Device",
              "id": "0d316167-6bb9-0e3f-d00b-0d11f1c51cf2",
              "identifier": [
                  {
                      "value": "IMMAPP"
                  }
              ]
          },
          "request": {
              "method": "PUT",
              "url": "Device/0d316167-6bb9-0e3f-d00b-0d11f1c51cf2"
          }
      },
      {
          "fullUrl": "urn:uuid:4b549918-a84d-cdaf-e150-c773a5d306e5",
          "resource": {
              "resourceType": "Device",
              "id": "4b549918-a84d-cdaf-e150-c773a5d306e5",
              "manufacturer": "Orion",
              "deviceName": [
                  {
                      "name": "Rhapsody",
                      "type": "manufacturer-name"
                  }
              ],
              "version": [
                  {
                      "value": "2.4.3.52854"
                  }
              ],
              "modelNumber": "2.4.3",
              "note": [
                  {
                      "text": "Testactivity"
                  }
              ]
          },
          "request": {
              "method": "PUT",
              "url": "Device/4b549918-a84d-cdaf-e150-c773a5d306e5"
          }
      },
      {
          "fullUrl": "urn:uuid:9e909e52-61a1-be50-1878-a12ef8c36346",
          "resource": {
              "resourceType": "Patient",
              "id": "9e909e52-61a1-be50-1878-a12ef8c36346",
              "identifier": [
                  {
                      "value": "PATID1234",
                      "type": {
                          "coding": [
                              {
                                  "code": "MR",
                                  "system": "http://terminology.hl7.org/CodeSystem/v2-0203",
                                  "display": "Medical record number"
                              }
                          ]
                      },
                      "system": "http://example.com/v2-to-fhir-converter/Identifier/HCD",
                      "assigner": {
                          "reference": "Organization/b3ad3a9f-d4f6-4638-0a09-2da771733488"
                      }
                  },
                  {
                      "value": "123456789",
                      "type": {
                          "coding": [
                              {
                                  "code": "SS",
                                  "system": "http://terminology.hl7.org/CodeSystem/v2-0203",
                                  "display": "Social Security number"
                              }
                          ]
                      },
                      "system": "http://example.com/v2-to-fhir-converter/Identifier/USSSA"
                  },
                  {
                      "value": "Medicare-12345",
                      "type": {
                          "coding": [
                              {
                                  "code": "MC",
                                  "display": "Patient's Medicare number",
                                  "system": "http://terminology.hl7.org/CodeSystem/v2-0203"
                              }
                          ]
                      },
                      "system": "http://hl7.org/fhir/sid/us-medicare"
                  },
                  {
                      "value": "MCN-008",
                      "type": {
                          "coding": [
                              {
                                  "code": "MA",
                                  "display": "Patient Medicaid number",
                                  "system": "http://terminology.hl7.org/CodeSystem/v2-0203"
                              }
                          ]
                      },
                      "system": "http://example.com/v2-to-fhir-converter/sid/us-medicaid"
                  },
                  {
                      "value": "MI-12345",
                      "type": {
                          "coding": [
                              {
                                  "code": "MI",
                                  "display": "Military ID number",
                                  "system": "http://terminology.hl7.org/CodeSystem/v2-0203"
                              }
                          ]
                      },
                      "system": "http://example.com/v2-to-fhir-converter/sid/us-military"
                  },
                  {
                      "value": "PNM1234",
                      "type": {
                          "coding": [
                              {
                                  "code": "MR",
                                  "system": "http://terminology.hl7.org/CodeSystem/v2-0203",
                                  "display": "Medical record number"
                              }
                          ]
                      },
                      "system": "http://example.com/v2-to-fhir-converter/Identifier/HCD",
                      "assigner": {
                          "reference": "Organization/1fca4c8f-7562-b755-9a05-5f0f49096e5b"
                      },
                      "period": {
                          "start": "1924-10-11",
                          "end": "1924-10-12"
                      }
                  }
              ],
              "name": [
                  {
                      "family": "EVERYMAN",
                      "given": [
                          "ADAM",
                          "A",
                          "Addsm"
                      ],
                      "suffix": [
                          "III",
                          "MD",
                          "PF"
                      ],
                      "prefix": [
                          "Dr."
                      ],
                      "use": "usual",
                      "period": {
                          "start": "1924-10-12"
                      }
                  },
                  {
                      "family": "Josh",
                      "given": [
                          "stanley"
                      ],
                      "use": "official",
                      "period": {
                          "start": "1924-10-10",
                          "end": "1924-10-15"
                      }
                  },
                  {
                      "family": "Jack",
                      "given": [
                          "ADAM",
                          "A",
                          "Addsm"
                      ],
                      "suffix": [
                          "III",
                          "MD",
                          "PF"
                      ],
                      "prefix": [
                          "Dr."
                      ],
                      "use": "usual",
                      "period": {
                          "start": "1924-10-12"
                      }
                  }
              ],
              "birthDate": "1988-08-18",
              "_birthDate": {
                  "extension": [
                      {
                          "url": "http://hl7.org/fhir/StructureDefinition/patient-birthTime",
                          "valueDateTime": "1988-08-18T14:41:00+05:30"
                      }
                  ]
              },
              "gender": "male",
              "address": [
                  {
                      "line": [
                          "1000",
                          "Hospital Lane",
                          "Ste. 123",
                          "Near Highway"
                      ],
                      "city": "Ann Arbor ",
                      "state": "MI",
                      "postalCode": "99999",
                      "country": "USA",
                      "type": "postal",
                      "district": "W"
                  }
              ],
              "telecom": [
                  {
                      "value": "2222",
                      "system": "phone",
                      "period": {
                          "start": "2001-01-10",
                          "end": "2002-01-10"
                      },
                      "rank": 18,
                      "use": "home"
                  },
                  {
                      "value": "12121212",
                      "system": "phone",
                      "use": "home"
                  },
                  {
                      "value": "7777",
                      "system": "phone",
                      "use": "work"
                  },
                  {
                      "value": "1111",
                      "system": "other",
                      "use": "work"
                  },
                  {
                      "value": "89898989",
                      "use": "work",
                      "system": "email"
                  }
              ],
              "communication": [
                  {
                      "language": {
                          "coding": [
                              {
                                  "code": "ar",
                                  "display": "Arabic",
                                  "system": "urn:ietf:bcp:47",
                                  "version": "v2"
                              },
                              {
                                  "code": "en",
                                  "display": "English",
                                  "system": "urn:ietf:bcp:47",
                                  "version": "v2.1"
                              }
                          ],
                          "text": "TextInEnglish"
                      },
                      "preferred": true
                  }
              ],
              "maritalStatus": {
                  "coding": [
                      {
                          "code": "M",
                          "display": "Married",
                          "system": "http://terminology.hl7.org/CodeSystem/v3-MaritalStatus"
                      }
                  ]
              },
              "multipleBirthInteger": 2,
              "deceasedDateTime": "2008-08-25T15:31:30+05:30",
              "meta": {
                  "lastUpdated": "2005-01-10T04:05:14+05:30"
              },
              "generalPractitioner": [
                  {
                      "reference": "Organization/719266ca-c272-9569-a797-c0b3fe3b2c91"
                  },
                  {
                      "reference": "PractitionerRole/69919204-f9b6-2966-d568-fa1c1405ca79"
                  }
              ],
              "extension": [
                  {
                      "url": "http://hl7.org/fhir/us/core/StructureDefinition/us-core-race",
                      "extension": [
                          {
                              "url": "ombCategory",
                              "valueCoding": {
                                  "code": "2106-3",
                                  "display": "White",
                                  "system": "urn:oid:2.16.840.1.113883.6.238"
                              }
                          },
                          {
                              "url": "ombCategory",
                              "valueCoding": {
                                  "code": "2028-9",
                                  "display": "Asian",
                                  "system": "urn:oid:2.16.840.1.113883.6.238"
                              }
                          },
                          {
                              "url": "text",
                              "valueString": "White+Asian"
                          }
                      ]
                  },
                  {
                      "url": "http://hl7.org/fhir/StructureDefinition/patient-mothersMaidenName",
                      "valueString": "SMITH--Angela--L"
                  },
                  {
                      "url": "http://hl7.org/fhir/StructureDefinition/patient-birthPlace",
                      "valueAddress": {
                          "text": "St. Francis Community Hospital of Lower South Side"
                      }
                  },
                  {
                      "url": "http://hl7.org/fhir/StructureDefinition/patient-religion",
                      "valueCodeableConcept": {
                          "coding": [
                              {
                                  "code": "1002",
                                  "display": "African Religions",
                                  "system": "http://terminology.hl7.org/CodeSystem/v3-ReligiousAffiliation"
                              }
                          ]
                      }
                  },
                  {
                      "url": "http://hl7.org/fhir/us/core/StructureDefinition/us-core-ethnicity",
                      "extension": [
                          {
                              "url": "ombCategory",
                              "valueCoding": {
                                  "code": "2135-2",
                                  "display": "Hispanic or Latino",
                                  "system": "urn:oid:2.16.840.1.113883.6.238"
                              }
                          },
                          {
                              "url": "text",
                              "valueString": "Hispanic or Latino"
                          }
                      ]
                  },
                  {
                      "url": "http://example.com/v2-to-fhir-converter/StructureDefinition/VeteranMilitaryStatus",
                      "valueCodeableConcept": {
                          "coding": [
                              {
                                  "code": "Vet123",
                                  "display": "retired",
                                  "system": "http://example.com/v2-to-fhir-converter/CodeSystem/ART"
                              }
                          ],
                          "text": "retired"
                      }
                  },
                  {
                      "url": "http://hl7.org/fhir/StructureDefinition/patient-animal",
                      "extension": [
                          {
                              "url": "species",
                              "valueCodeableConcept": {
                                  "coding": [
                                      {
                                          "code": "125097000",
                                          "display": "Goat",
                                          "system": "http://snomed.info/sct"
                                      }
                                  ],
                                  "text": "Goat"
                              }
                          },
                          {
                              "url": "breed",
                              "valueCodeableConcept": {
                                  "coding": [
                                      {
                                          "code": "4880003",
                                          "display": "Beagle",
                                          "system": "http://snomed.info/sct"
                                      }
                                  ],
                                  "text": "Beagle"
                              }
                          }
                      ]
                  },
                  {
                      "url": "http://hl7.org/fhir/StructureDefinition/patient-citizenship",
                      "extension": [
                          {
                              "url": "code",
                              "valueCodeableConcept": {
                                  "coding": [
                                      {
                                          "code": "US",
                                          "display": "United States of America",
                                          "system": "urn:iso:std:iso:3166"
                                      }
                                  ],
                                  "text": "United States of America"
                              }
                          }
                      ]
                  },
                  {
                      "url": "http://hl7.org/fhir/StructureDefinition/patient-citizenship",
                      "extension": [
                          {
                              "url": "code",
                              "valueCodeableConcept": {
                                  "coding": [
                                      {
                                          "code": "CA",
                                          "display": "Canada",
                                          "system": "urn:iso:std:iso:3166"
                                      }
                                  ],
                                  "text": "Canada"
                              }
                          }
                      ]
                  },
                  {
                      "url": "http://hl7.org/fhir/StructureDefinition/patient-congregation",
                      "valueString": "Methodist Church"
                  },
                  {
                      "url": "http://hl7.org/fhir/StructureDefinition/patient-importance",
                      "valueCodeableConcept": {
                          "coding": [
                              {
                                  "code": "VIP",
                                  "display": "Very Important Person",
                                  "system": "http://example.com/v2-to-fhir-converter/CodeSystem/L",
                                  "version": "v1.1"
                              },
                              {
                                  "code": "IMP",
                                  "system": "http://example.com/v2-to-fhir-converter/CodeSystem/DCM",
                                  "version": "v1.2"
                              }
                          ],
                          "text": "Inportant Person"
                      }
                  }
              ]
          },
          "request": {
              "method": "PUT",
              "url": "Patient/9e909e52-61a1-be50-1878-a12ef8c36346"
          }
      },
      {
          "fullUrl": "urn:uuid:69919204-f9b6-2966-d568-fa1c1405ca79",
          "resource": {
              "resourceType": "PractitionerRole",
              "id": "69919204-f9b6-2966-d568-fa1c1405ca79",
              "code": [
                  {
                      "coding": [
                          {
                              "code": "AD",
                              "display": "Admitting Provider",
                              "system": "http://terminology.hl7.org/CodeSystem/v2-0443"
                          }
                      ]
                  }
              ],
              "location": [
                  {
                      "reference": "Location/7e8c8f5b-e366-6646-d2c0-e943bd9d1145"
                  }
              ],
              "organization": {
                  "reference": "Organization/a5f89225-9b37-737d-9b70-c9cf83668801"
              },
              "practitioner": {
                  "reference": "Practitioner/4a47872d-8caf-a176-37c5-61d9e7f2d328"
              }
          },
          "request": {
              "method": "PUT",
              "url": "PractitionerRole/69919204-f9b6-2966-d568-fa1c1405ca79"
          }
      },
      {
          "fullUrl": "urn:uuid:4a47872d-8caf-a176-37c5-61d9e7f2d328",
          "resource": {
              "resourceType": "Practitioner",
              "id": "4a47872d-8caf-a176-37c5-61d9e7f2d328",
              "identifier": [
                  {
                      "value": "10535"
                  }
              ],
              "name": [
                  {
                      "family": "van Beethoven",
                      "given": [
                          "Ludwig",
                          "A"
                      ],
                      "suffix": [
                          "III",
                          "PHD"
                      ],
                      "prefix": [
                          "Dr"
                      ]
                  }
              ]
          },
          "request": {
              "method": "PUT",
              "url": "Practitioner/4a47872d-8caf-a176-37c5-61d9e7f2d328"
          }
      },
      {
          "fullUrl": "urn:uuid:7e8c8f5b-e366-6646-d2c0-e943bd9d1145",
          "resource": {
              "resourceType": "Location",
              "id": "7e8c8f5b-e366-6646-d2c0-e943bd9d1145",
              "partOf": {
                  "reference": "Location/ff93044f-a48c-31c6-e7bd-f400aff947e3"
              },
              "name": "HUH AE OMU",
              "identifier": [
                  {
                      "value": "urn:oid:9.8",
                      "system": "urn:ietf:rfc:3986"
                  }
              ],
              "mode": "instance",
              "description": "HUH AE OMU--9.8--ISO--OMU B--Bed 03--HOMERTON UNIVER--C--Homerton UH--Floor5",
              "physicalType": {
                  "coding": [
                      {
                          "system": "http://terminology.hl7.org/CodeSystem/location-physical-type",
                          "code": "lvl"
                      }
                  ]
              }
          },
          "request": {
              "method": "PUT",
              "url": "Location/7e8c8f5b-e366-6646-d2c0-e943bd9d1145"
          }
      },
      {
          "fullUrl": "urn:uuid:21db7463-3dcf-df06-09f7-657d2a3149da",
          "resource": {
              "resourceType": "Location",
              "id": "21db7463-3dcf-df06-09f7-657d2a3149da",
              "partOf": {
                  "reference": "Location/7e8c8f5b-e366-6646-d2c0-e943bd9d1145"
              },
              "name": "OMU B",
              "mode": "instance",
              "description": "HUH AE OMU--9.8--ISO--OMU B--Bed 03--HOMERTON UNIVER--C--Homerton UH--Floor5",
              "physicalType": {
                  "coding": [
                      {
                          "system": "http://terminology.hl7.org/CodeSystem/location-physical-type",
                          "code": "ro"
                      }
                  ]
              }
          },
          "request": {
              "method": "PUT",
              "url": "Location/21db7463-3dcf-df06-09f7-657d2a3149da"
          }
      },
      {
          "fullUrl": "urn:uuid:8c9f471c-25cf-4f9d-a67a-da6dccc64c88",
          "resource": {
              "resourceType": "Location",
              "id": "8c9f471c-25cf-4f9d-a67a-da6dccc64c88",
              "partOf": {
                  "reference": "Location/21db7463-3dcf-df06-09f7-657d2a3149da"
              },
              "name": "Bed 03",
              "mode": "instance",
              "description": "HUH AE OMU--9.8--ISO--OMU B--Bed 03--HOMERTON UNIVER--C--Homerton UH--Floor5",
              "physicalType": {
                  "coding": [
                      {
                          "system": "http://terminology.hl7.org/CodeSystem/location-physical-type",
                          "code": "bd"
                      }
                  ]
              }
          },
          "request": {
              "method": "PUT",
              "url": "Location/8c9f471c-25cf-4f9d-a67a-da6dccc64c88"
          }
      },
      {
          "fullUrl": "urn:uuid:35c140b2-668e-8d32-7516-6ec7d7edecc7",
          "resource": {
              "resourceType": "Location",
              "id": "35c140b2-668e-8d32-7516-6ec7d7edecc7",
              "name": "HOMERTON UNIVER",
              "mode": "instance",
              "description": "HUH AE OMU--9.8--ISO--OMU B--Bed 03--HOMERTON UNIVER--C--Homerton UH--Floor5",
              "physicalType": {
                  "coding": [
                      {
                          "system": "http://terminology.hl7.org/CodeSystem/location-physical-type",
                          "code": "si"
                      }
                  ]
              }
          },
          "request": {
              "method": "PUT",
              "url": "Location/35c140b2-668e-8d32-7516-6ec7d7edecc7"
          }
      },
      {
          "fullUrl": "urn:uuid:7fce0afa-27f7-3408-86ef-838840491ff0",
          "resource": {
              "resourceType": "Location",
              "id": "7fce0afa-27f7-3408-86ef-838840491ff0",
              "partOf": {
                  "reference": "Location/35c140b2-668e-8d32-7516-6ec7d7edecc7"
              },
              "name": "Homerton UH",
              "mode": "instance",
              "description": "HUH AE OMU--9.8--ISO--OMU B--Bed 03--HOMERTON UNIVER--C--Homerton UH--Floor5",
              "physicalType": {
                  "coding": [
                      {
                          "system": "http://terminology.hl7.org/CodeSystem/location-physical-type",
                          "code": "bu"
                      }
                  ]
              }
          },
          "request": {
              "method": "PUT",
              "url": "Location/7fce0afa-27f7-3408-86ef-838840491ff0"
          }
      },
      {
          "fullUrl": "urn:uuid:ff93044f-a48c-31c6-e7bd-f400aff947e3",
          "resource": {
              "resourceType": "Location",
              "id": "ff93044f-a48c-31c6-e7bd-f400aff947e3",
              "partOf": {
                  "reference": "Location/7fce0afa-27f7-3408-86ef-838840491ff0"
              },
              "name": "Floor5",
              "mode": "instance",
              "description": "HUH AE OMU--9.8--ISO--OMU B--Bed 03--HOMERTON UNIVER--C--Homerton UH--Floor5",
              "physicalType": {
                  "coding": [
                      {
                          "system": "http://terminology.hl7.org/CodeSystem/location-physical-type",
                          "code": "lvl"
                      }
                  ]
              }
          },
          "request": {
              "method": "PUT",
              "url": "Location/ff93044f-a48c-31c6-e7bd-f400aff947e3"
          }
      },
      {
          "fullUrl": "urn:uuid:a5f89225-9b37-737d-9b70-c9cf83668801",
          "resource": {
              "resourceType": "Organization",
              "id": "a5f89225-9b37-737d-9b70-c9cf83668801",
              "name": "Good Health Hospital"
          },
          "request": {
              "method": "PUT",
              "url": "Organization/a5f89225-9b37-737d-9b70-c9cf83668801"
          }
      },
      {
          "fullUrl": "urn:uuid:4ad7c7d0-b69a-0653-9ea9-0979b8a66b39",
          "resource": {
              "resourceType": "Account",
              "id": "4ad7c7d0-b69a-0653-9ea9-0979b8a66b39",
              "identifier": [
                  {
                      "value": "4000776",
                      "type": {
                          "coding": [
                              {
                                  "code": "VN",
                                  "system": "http://terminology.hl7.org/CodeSystem/v2-0203",
                                  "display": "Visit number"
                              }
                          ]
                      },
                      "system": "urn:oid:1.3.6.1.4.1.44750.1.2.2",
                      "assigner": {
                          "reference": "Organization/816e4ec3-f5a6-5969-08c8-a71ef576263e"
                      },
                      "period": {
                          "start": "1924-10-11",
                          "end": "1924-10-12"
                      }
                  }
              ],
              "status": "active",
              "subject": [
                  {
                      "reference": "Patient/9e909e52-61a1-be50-1878-a12ef8c36346"
                  }
              ],
              "guarantor": [
                  {
                      "party": {
                          "reference": "RelatedPerson/4a430522-2a0e-3e39-878a-49e1182a4d08"
                      },
                      "onHold": false,
                      "period": {
                          "start": "2001-04-10",
                          "end": "2001-04-15"
                      }
                  }
              ],
              "coverage": [
                  {
                      "coverage": {
                          "reference": "Coverage/dfab6985-a691-c4f5-d2b2-6481fdfd59e4"
                      }
                  }
              ]
          },
          "request": {
              "method": "PUT",
              "url": "Account/4ad7c7d0-b69a-0653-9ea9-0979b8a66b39"
          }
      },
      {
          "fullUrl": "urn:uuid:816e4ec3-f5a6-5969-08c8-a71ef576263e",
          "resource": {
              "resourceType": "Organization",
              "id": "816e4ec3-f5a6-5969-08c8-a71ef576263e",
              "identifier": [
                  {
                      "value": "AccMgr",
                      "system": "http://example.com/v2-to-fhir-converter/Identifier/AccMgr"
                  },
                  {
                      "value": "urn:oid:1.3.6.1.4.1.44750.1.2.2",
                      "system": "urn:ietf:rfc:3986",
                      "type": {
                          "coding": [
                              {
                                  "code": "ISO",
                                  "display": "An International Standards Organization Object Identifier (OID), in accordance with ISO/IEC 8824. Formatted as decimal digits separated by periods; recommended limit of 64 characters",
                                  "system": "http://terminology.hl7.org/CodeSystem/v2-0301"
                              }
                          ]
                      }
                  }
              ]
          },
          "request": {
              "method": "PUT",
              "url": "Organization/816e4ec3-f5a6-5969-08c8-a71ef576263e"
          }
      },
      {
          "fullUrl": "urn:uuid:4a430522-2a0e-3e39-878a-49e1182a4d08",
          "resource": {
              "resourceType": "RelatedPerson",
              "id": "4a430522-2a0e-3e39-878a-49e1182a4d08",
              "identifier": [
                  {
                      "value": "1516",
                      "type": {
                          "coding": [
                              {
                                  "code": "MR",
                                  "system": "http://terminology.hl7.org/CodeSystem/v2-0203",
                                  "display": "Medical record number"
                              }
                          ]
                      },
                      "system": "http://example.com/v2-to-fhir-converter/Identifier/test",
                      "period": {
                          "start": "1924-10-11",
                          "end": "1924-10-12"
                      }
                  },
                  {
                      "value": "55121",
                      "type": {
                          "coding": [
                              {
                                  "code": "FI",
                                  "system": "http://terminology.hl7.org/CodeSystem/v2-0203",
                                  "display": "Facility ID"
                              }
                          ]
                      }
                  },
                  {
                      "value": "G-SSN-12",
                      "type": {
                          "coding": [
                              {
                                  "code": "SB",
                                  "system": "http://terminology.hl7.org/CodeSystem/v2-0203",
                                  "display": "Social Beneficiary Identifier"
                              }
                          ]
                      },
                      "system": "http://hl7.org/fhir/sid/us-ssn"
                  }
              ],
              "relationship": [
                  {
                      "coding": [
                          {
                              "code": "BRO",
                              "display": "brother",
                              "system": "http://terminology.hl7.org/CodeSystem/v3-RoleCode"
                          }
                      ]
                  }
              ],
              "address": [
                  {
                      "line": [
                          "1619 SOUTH UNIVERSITY"
                      ],
                      "city": "MADISON",
                      "state": "WI",
                      "postalCode": "53703",
                      "country": "US"
                  }
              ],
              "telecom": [
                  {
                      "value": "8484",
                      "system": "email",
                      "use": "home"
                  },
                  {
                      "value": "717171",
                      "system": "phone",
                      "use": "home"
                  },
                  {
                      "value": "021212",
                      "system": "other",
                      "use": "work"
                  }
              ],
              "name": [
                  {
                      "family": "RADIANT",
                      "given": [
                          "LUCY"
                      ]
                  }
              ],
              "gender": "male",
              "birthDate": "2001-04-12",
              "communication": [
                  {
                      "language": {
                          "coding": [
                              {
                                  "code": "de",
                                  "display": "German",
                                  "system": "urn:ietf:bcp:47"
                              }
                          ]
                      },
                      "preferred": true
                  }
              ],
              "patient": {
                  "reference": "Patient/9e909e52-61a1-be50-1878-a12ef8c36346"
              }
          },
          "request": {
              "method": "PUT",
              "url": "RelatedPerson/4a430522-2a0e-3e39-878a-49e1182a4d08"
          }
      },
      {
          "fullUrl": "urn:uuid:b3ad3a9f-d4f6-4638-0a09-2da771733488",
          "resource": {
              "resourceType": "Organization",
              "id": "b3ad3a9f-d4f6-4638-0a09-2da771733488",
              "identifier": [
                  {
                      "value": "test1",
                      "system": "http://example.com/v2-to-fhir-converter/Identifier/test1"
                  },
                  {
                      "value": "2.16.1",
                      "system": "http://example.com/v2-to-fhir-converter/Identifier/HCD",
                      "type": {
                          "coding": [
                              {
                                  "code": "HCD",
                                  "display": "The CEN Healthcare Coding Scheme Designator",
                                  "system": "http://terminology.hl7.org/CodeSystem/v2-0301"
                              }
                          ]
                      }
                  }
              ]
          },
          "request": {
              "method": "PUT",
              "url": "Organization/b3ad3a9f-d4f6-4638-0a09-2da771733488"
          }
      },
      {
          "fullUrl": "urn:uuid:f3954ae4-dec6-f114-1b9e-3a8a85d93f99",
          "resource": {
              "resourceType": "Organization",
              "id": "f3954ae4-dec6-f114-1b9e-3a8a85d93f99",
              "identifier": [
                  {
                      "value": "NTH",
                      "system": "http://example.com/v2-to-fhir-converter/Identifier/NTH"
                  },
                  {
                      "value": "rt23",
                      "system": "http://example.com/v2-to-fhir-converter/Identifier/HCD",
                      "type": {
                          "coding": [
                              {
                                  "code": "HCD",
                                  "display": "The CEN Healthcare Coding Scheme Designator",
                                  "system": "http://terminology.hl7.org/CodeSystem/v2-0301"
                              }
                          ]
                      }
                  }
              ]
          },
          "request": {
              "method": "PUT",
              "url": "Organization/f3954ae4-dec6-f114-1b9e-3a8a85d93f99"
          }
      },
      {
          "fullUrl": "urn:uuid:62b2e1ee-a272-4ffe-692e-a1fbfd49af6a",
          "resource": {
              "resourceType": "RelatedPerson",
              "id": "62b2e1ee-a272-4ffe-692e-a1fbfd49af6a",
              "identifier": [
                  {
                      "value": "1212121",
                      "type": {
                          "coding": [
                              {
                                  "code": "AND",
                                  "system": "http://terminology.hl7.org/CodeSystem/v2-0203",
                                  "display": "Account number debitor"
                              }
                          ]
                      },
                      "system": "http://example.com/v2-to-fhir-converter/Identifier/HCD",
                      "assigner": {
                          "reference": "Organization/f3954ae4-dec6-f114-1b9e-3a8a85d93f99"
                      },
                      "period": {
                          "start": "1924-10-11",
                          "end": "1924-10-12"
                      }
                  }
              ],
              "relationship": [
                  {
                      "coding": [
                          {
                              "code": "MTH",
                              "system": "http://terminology.hl7.org/CodeSystem/v3-RoleCode"
                          }
                      ]
                  }
              ],
              "patient": {
                  "reference": "Patient/9e909e52-61a1-be50-1878-a12ef8c36346"
              }
          },
          "request": {
              "method": "PUT",
              "url": "RelatedPerson/62b2e1ee-a272-4ffe-692e-a1fbfd49af6a"
          }
      },
      {
          "fullUrl": "urn:uuid:719266ca-c272-9569-a797-c0b3fe3b2c91",
          "resource": {
              "resourceType": "Organization",
              "id": "719266ca-c272-9569-a797-c0b3fe3b2c91",
              "name": "LINDAS TEST ORGANIZATION",
              "identifier": [
                  {
                      "value": "SIISCLIENT818"
                  }
              ]
          },
          "request": {
              "method": "PUT",
              "url": "Organization/719266ca-c272-9569-a797-c0b3fe3b2c91"
          }
      },
      {
          "fullUrl": "urn:uuid:11967e28-8dd4-a112-0fdc-377866bf12a0",
          "resource": {
              "resourceType": "Organization",
              "id": "11967e28-8dd4-a112-0fdc-377866bf12a0",
              "identifier": [
                  {
                      "value": "t",
                      "system": "http://example.com/v2-to-fhir-converter/Identifier/t"
                  },
                  {
                      "value": "2.16.840.1.113883.19",
                      "system": "http://example.com/v2-to-fhir-converter/Identifier/HCD",
                      "type": {
                          "coding": [
                              {
                                  "code": "HCD",
                                  "display": "The CEN Healthcare Coding Scheme Designator",
                                  "system": "http://terminology.hl7.org/CodeSystem/v2-0301"
                              }
                          ]
                      }
                  }
              ]
          },
          "request": {
              "method": "PUT",
              "url": "Organization/11967e28-8dd4-a112-0fdc-377866bf12a0"
          }
      },
      {
          "fullUrl": "urn:uuid:7452d91f-ae92-d8ce-5b4a-148be5b6538e",
          "resource": {
              "resourceType": "Organization",
              "id": "7452d91f-ae92-d8ce-5b4a-148be5b6538e",
              "identifier": [
                  {
                      "value": "AccMng",
                      "system": "http://example.com/v2-to-fhir-converter/Identifier/AccMng"
                  },
                  {
                      "value": "1.2",
                      "system": "http://example.com/v2-to-fhir-converter/Identifier/HCD",
                      "type": {
                          "coding": [
                              {
                                  "code": "HCD",
                                  "display": "The CEN Healthcare Coding Scheme Designator",
                                  "system": "http://terminology.hl7.org/CodeSystem/v2-0301"
                              }
                          ]
                      }
                  }
              ]
          },
          "request": {
              "method": "PUT",
              "url": "Organization/7452d91f-ae92-d8ce-5b4a-148be5b6538e"
          }
      },
      {
          "fullUrl": "urn:uuid:0ccb76ca-b97e-1c86-4617-912a6d65c1f9",
          "resource": {
              "resourceType": "Organization",
              "id": "0ccb76ca-b97e-1c86-4617-912a6d65c1f9",
              "identifier": [
                  {
                      "value": "PERSONNELt",
                      "system": "http://example.com/v2-to-fhir-converter/Identifier/PERSONNELt"
                  },
                  {
                      "value": "1.23",
                      "system": "http://example.com/v2-to-fhir-converter/Identifier/HCD",
                      "type": {
                          "coding": [
                              {
                                  "code": "HCD",
                                  "display": "The CEN Healthcare Coding Scheme Designator",
                                  "system": "http://terminology.hl7.org/CodeSystem/v2-0301"
                              }
                          ]
                      }
                  }
              ]
          },
          "request": {
              "method": "PUT",
              "url": "Organization/0ccb76ca-b97e-1c86-4617-912a6d65c1f9"
          }
      },
      {
          "fullUrl": "urn:uuid:f6775f99-5279-be04-bf81-0906c81f7443",
          "resource": {
              "resourceType": "Practitioner",
              "id": "f6775f99-5279-be04-bf81-0906c81f7443",
              "identifier": [
                  {
                      "value": "1122334",
                      "system": "http://example.com/v2-to-fhir-converter/Identifier/HCD",
                      "assigner": {
                          "reference": "Organization/0ccb76ca-b97e-1c86-4617-912a6d65c1f9"
                      },
                      "type": {
                          "coding": [
                              {
                                  "code": "BR",
                                  "display": "Birth registry number",
                                  "system": "http://terminology.hl7.org/CodeSystem/v2-0203"
                              }
                          ]
                      }
                  }
              ],
              "name": [
                  {
                      "family": "Alaz",
                      "given": [
                          "Mohammed",
                          "Mahi"
                      ],
                      "suffix": [
                          "JR",
                          "MD",
                          "Al"
                      ],
                      "prefix": [
                          "Dr."
                      ],
                      "period": {
                          "start": "1924-10-10",
                          "end": "1924-10-15"
                      }
                  }
              ]
          },
          "request": {
              "method": "PUT",
              "url": "Practitioner/f6775f99-5279-be04-bf81-0906c81f7443"
          }
      },
      {
          "fullUrl": "urn:uuid:c613d7b2-525f-8c08-a7ac-b2b91486e257",
          "resource": {
              "resourceType": "Organization",
              "id": "c613d7b2-525f-8c08-a7ac-b2b91486e257",
              "identifier": [
                  {
                      "value": "TEST",
                      "system": "http://example.com/v2-to-fhir-converter/Identifier/TEST"
                  },
                  {
                      "value": "23.2",
                      "system": "http://example.com/v2-to-fhir-converter/Identifier/HCD",
                      "type": {
                          "coding": [
                              {
                                  "code": "HCD",
                                  "display": "The CEN Healthcare Coding Scheme Designator",
                                  "system": "http://terminology.hl7.org/CodeSystem/v2-0301"
                              }
                          ]
                      }
                  }
              ]
          },
          "request": {
              "method": "PUT",
              "url": "Organization/c613d7b2-525f-8c08-a7ac-b2b91486e257"
          }
      },
      {
          "fullUrl": "urn:uuid:04f8cfc8-62ca-12df-63ce-6304ef577d44",
          "resource": {
              "resourceType": "Practitioner",
              "id": "04f8cfc8-62ca-12df-63ce-6304ef577d44",
              "identifier": [
                  {
                      "value": "C006",
                      "system": "http://example.com/v2-to-fhir-converter/Identifier/HCD",
                      "assigner": {
                          "reference": "Organization/c613d7b2-525f-8c08-a7ac-b2b91486e257"
                      },
                      "type": {
                          "coding": [
                              {
                                  "code": "BA",
                                  "display": "Bank Account Number",
                                  "system": "http://terminology.hl7.org/CodeSystem/v2-0203"
                              }
                          ]
                      }
                  }
              ],
              "name": [
                  {
                      "family": "Woolfson",
                      "given": [
                          "Kathleen"
                      ],
                      "prefix": [
                          "Dr"
                      ],
                      "use": "anonymous"
                  }
              ]
          },
          "request": {
              "method": "PUT",
              "url": "Practitioner/04f8cfc8-62ca-12df-63ce-6304ef577d44"
          }
      },
      {
          "fullUrl": "urn:uuid:94d0558e-593c-7585-5525-68541f8b1064",
          "resource": {
              "resourceType": "Practitioner",
              "id": "94d0558e-593c-7585-5525-68541f8b1064",
              "identifier": [
                  {
                      "value": "C008",
                      "system": "urn:oid:1.3.6.1.4.1.44750.1.2.2",
                      "type": {
                          "coding": [
                              {
                                  "code": "BR",
                                  "display": "Birth registry number",
                                  "system": "http://terminology.hl7.org/CodeSystem/v2-0203"
                              }
                          ]
                      }
                  }
              ],
              "name": [
                  {
                      "family": "Condoc",
                      "given": [
                          "leen"
                      ],
                      "prefix": [
                          "Dr"
                      ],
                      "use": "temp"
                  }
              ]
          },
          "request": {
              "method": "PUT",
              "url": "Practitioner/94d0558e-593c-7585-5525-68541f8b1064"
          }
      },
      {
          "fullUrl": "urn:uuid:b065b233-8738-f1ec-1314-d61e4aac2c9e",
          "resource": {
              "resourceType": "Practitioner",
              "id": "b065b233-8738-f1ec-1314-d61e4aac2c9e",
              "identifier": [
                  {
                      "value": "37",
                      "system": "http://example.com/v2-to-fhir-converter/Identifier/AccMgr",
                      "type": {
                          "coding": [
                              {
                                  "code": "ANC",
                                  "display": "Account number Creditor",
                                  "system": "http://terminology.hl7.org/CodeSystem/v2-0203"
                              }
                          ]
                      }
                  }
              ],
              "name": [
                  {
                      "family": "DISNEY",
                      "given": [
                          "WALT"
                      ]
                  }
              ]
          },
          "request": {
              "method": "PUT",
              "url": "Practitioner/b065b233-8738-f1ec-1314-d61e4aac2c9e"
          }
      },
      {
          "fullUrl": "urn:uuid:a6c4db5e-d3be-c9a5-8f86-a1d3341211b6",
          "resource": {
              "resourceType": "Organization",
              "id": "a6c4db5e-d3be-c9a5-8f86-a1d3341211b6",
              "identifier": [
                  {
                      "value": "T123",
                      "system": "http://example.com/v2-to-fhir-converter/Identifier/T123"
                  },
                  {
                      "value": "urn:oid:1.3.6.1.4.1.44750.1.2.2",
                      "system": "urn:ietf:rfc:3986",
                      "type": {
                          "coding": [
                              {
                                  "code": "ISO",
                                  "display": "An International Standards Organization Object Identifier (OID), in accordance with ISO/IEC 8824. Formatted as decimal digits separated by periods; recommended limit of 64 characters",
                                  "system": "http://terminology.hl7.org/CodeSystem/v2-0301"
                              }
                          ]
                      }
                  }
              ]
          },
          "request": {
              "method": "PUT",
              "url": "Organization/a6c4db5e-d3be-c9a5-8f86-a1d3341211b6"
          }
      },
      {
          "fullUrl": "urn:uuid:24d4bddf-a1c3-4dc8-049b-1dda7e5112b6",
          "resource": {
              "resourceType": "Organization",
              "id": "24d4bddf-a1c3-4dc8-049b-1dda7e5112b6",
              "identifier": [
                  {
                      "value": "TE",
                      "system": "http://example.com/v2-to-fhir-converter/Identifier/TE"
                  },
                  {
                      "value": "Provider Master.Community Health and Hospitals",
                      "system": "http://example.com/v2-to-fhir-converter/Identifier/DNS",
                      "type": {
                          "coding": [
                              {
                                  "code": "DNS",
                                  "display": "An Internet host name, in accordance with RFC 1035; or an IP address. Either in ASCII or as integers, with periods between components (dotted notation).",
                                  "system": "http://terminology.hl7.org/CodeSystem/v2-0301"
                              }
                          ]
                      }
                  }
              ]
          },
          "request": {
              "method": "PUT",
              "url": "Organization/24d4bddf-a1c3-4dc8-049b-1dda7e5112b6"
          }
      },
      {
          "fullUrl": "urn:uuid:36e3aaa4-569a-7d9d-037f-27235ed05701",
          "resource": {
              "resourceType": "Practitioner",
              "id": "36e3aaa4-569a-7d9d-037f-27235ed05701",
              "identifier": [
                  {
                      "value": "12188",
                      "system": "http://example.com/v2-to-fhir-converter/Identifier/DNS",
                      "assigner": {
                          "reference": "Organization/24d4bddf-a1c3-4dc8-049b-1dda7e5112b6"
                      },
                      "type": {
                          "coding": [
                              {
                                  "code": "DN",
                                  "display": "Doctor number",
                                  "system": "http://terminology.hl7.org/CodeSystem/v2-0203"
                              }
                          ]
                      }
                  }
              ],
              "name": [
                  {
                      "family": "Hippocrates",
                      "given": [
                          "Harold",
                          "H"
                      ],
                      "suffix": [
                          "IV",
                          "MD"
                      ],
                      "prefix": [
                          "Dr"
                      ]
                  }
              ]
          },
          "request": {
              "method": "PUT",
              "url": "Practitioner/36e3aaa4-569a-7d9d-037f-27235ed05701"
          }
      },
      {
          "fullUrl": "urn:uuid:76bb5678-ca71-a235-147f-5385b651dcd3",
          "resource": {
              "resourceType": "Location",
              "id": "76bb5678-ca71-a235-147f-5385b651dcd3",
              "name": "4 East, room 136, bed B 4E",
              "mode": "instance",
              "description": "4 East, room 136, bed B 4E--136--B--CommunityHospital--N",
              "physicalType": {
                  "coding": [
                      {
                          "system": "http://terminology.hl7.org/CodeSystem/location-physical-type",
                          "code": "lvl"
                      }
                  ]
              }
          },
          "request": {
              "method": "PUT",
              "url": "Location/76bb5678-ca71-a235-147f-5385b651dcd3"
          }
      },
      {
          "fullUrl": "urn:uuid:a81cf64e-818a-d05c-e288-6eca8ec91ab4",
          "resource": {
              "resourceType": "Location",
              "id": "a81cf64e-818a-d05c-e288-6eca8ec91ab4",
              "partOf": {
                  "reference": "Location/76bb5678-ca71-a235-147f-5385b651dcd3"
              },
              "name": "136",
              "mode": "instance",
              "description": "4 East, room 136, bed B 4E--136--B--CommunityHospital--N",
              "physicalType": {
                  "coding": [
                      {
                          "system": "http://terminology.hl7.org/CodeSystem/location-physical-type",
                          "code": "ro"
                      }
                  ]
              }
          },
          "request": {
              "method": "PUT",
              "url": "Location/a81cf64e-818a-d05c-e288-6eca8ec91ab4"
          }
      },
      {
          "fullUrl": "urn:uuid:7b9cc9f8-b3c0-b0c4-b1eb-d52b6c0ccab0",
          "resource": {
              "resourceType": "Location",
              "id": "7b9cc9f8-b3c0-b0c4-b1eb-d52b6c0ccab0",
              "partOf": {
                  "reference": "Location/a81cf64e-818a-d05c-e288-6eca8ec91ab4"
              },
              "name": "B",
              "mode": "instance",
              "description": "4 East, room 136, bed B 4E--136--B--CommunityHospital--N",
              "physicalType": {
                  "coding": [
                      {
                          "system": "http://terminology.hl7.org/CodeSystem/location-physical-type",
                          "code": "bd"
                      }
                  ]
              }
          },
          "request": {
              "method": "PUT",
              "url": "Location/7b9cc9f8-b3c0-b0c4-b1eb-d52b6c0ccab0"
          }
      },
      {
          "fullUrl": "urn:uuid:3cb09fa6-cc83-83f0-a8e4-2e09ec138b20",
          "resource": {
              "resourceType": "Location",
              "id": "3cb09fa6-cc83-83f0-a8e4-2e09ec138b20",
              "name": "CommunityHospital",
              "mode": "instance",
              "description": "4 East, room 136, bed B 4E--136--B--CommunityHospital--N",
              "physicalType": {
                  "coding": [
                      {
                          "system": "http://terminology.hl7.org/CodeSystem/location-physical-type",
                          "code": "si"
                      }
                  ]
              }
          },
          "request": {
              "method": "PUT",
              "url": "Location/3cb09fa6-cc83-83f0-a8e4-2e09ec138b20"
          }
      },
      {
          "fullUrl": "urn:uuid:42b81572-ebb4-3f14-7a91-e1f9a9c70460",
          "resource": {
              "resourceType": "Location",
              "id": "42b81572-ebb4-3f14-7a91-e1f9a9c70460",
              "name": "Homes",
              "identifier": [
                  {
                      "value": "22",
                      "system": "http://example.com/v2-to-fhir-converter/Identifier/FDK"
                  }
              ],
              "physicalType": {
                  "coding": [
                      {
                          "code": "si",
                          "system": "http://terminology.hl7.org/CodeSystem/location-physical-type"
                      }
                  ]
              }
          },
          "request": {
              "method": "PUT",
              "url": "Location/42b81572-ebb4-3f14-7a91-e1f9a9c70460"
          }
      },
      {
          "fullUrl": "urn:uuid:9be961d3-d02a-b454-1991-fa701628c823",
          "resource": {
              "resourceType": "Location",
              "id": "9be961d3-d02a-b454-1991-fa701628c823",
              "name": "POC",
              "mode": "instance",
              "description": "POC--Room-2--Bed-103--C--Greenland",
              "physicalType": {
                  "coding": [
                      {
                          "system": "http://terminology.hl7.org/CodeSystem/location-physical-type",
                          "code": "lvl"
                      }
                  ]
              }
          },
          "request": {
              "method": "PUT",
              "url": "Location/9be961d3-d02a-b454-1991-fa701628c823"
          }
      },
      {
          "fullUrl": "urn:uuid:1399b4cb-a4d1-3331-1d1a-6936cec4347a",
          "resource": {
              "resourceType": "Location",
              "id": "1399b4cb-a4d1-3331-1d1a-6936cec4347a",
              "partOf": {
                  "reference": "Location/9be961d3-d02a-b454-1991-fa701628c823"
              },
              "name": "Room-2",
              "mode": "instance",
              "description": "POC--Room-2--Bed-103--C--Greenland",
              "physicalType": {
                  "coding": [
                      {
                          "system": "http://terminology.hl7.org/CodeSystem/location-physical-type",
                          "code": "ro"
                      }
                  ]
              }
          },
          "request": {
              "method": "PUT",
              "url": "Location/1399b4cb-a4d1-3331-1d1a-6936cec4347a"
          }
      },
      {
          "fullUrl": "urn:uuid:8d9d8b7c-8443-1b9c-6317-3837aef34f9f",
          "resource": {
              "resourceType": "Location",
              "id": "8d9d8b7c-8443-1b9c-6317-3837aef34f9f",
              "partOf": {
                  "reference": "Location/1399b4cb-a4d1-3331-1d1a-6936cec4347a"
              },
              "name": "Bed-103",
              "mode": "instance",
              "description": "POC--Room-2--Bed-103--C--Greenland",
              "physicalType": {
                  "coding": [
                      {
                          "system": "http://terminology.hl7.org/CodeSystem/location-physical-type",
                          "code": "bd"
                      }
                  ]
              }
          },
          "request": {
              "method": "PUT",
              "url": "Location/8d9d8b7c-8443-1b9c-6317-3837aef34f9f"
          }
      },
      {
          "fullUrl": "urn:uuid:ec64ffd3-99e4-b7b0-d99d-78e3fc39e5b4",
          "resource": {
              "resourceType": "Location",
              "id": "ec64ffd3-99e4-b7b0-d99d-78e3fc39e5b4",
              "name": "Greenland",
              "mode": "instance",
              "description": "POC--Room-2--Bed-103--C--Greenland",
              "physicalType": {
                  "coding": [
                      {
                          "system": "http://terminology.hl7.org/CodeSystem/location-physical-type",
                          "code": "bu"
                      }
                  ]
              }
          },
          "request": {
              "method": "PUT",
              "url": "Location/ec64ffd3-99e4-b7b0-d99d-78e3fc39e5b4"
          }
      },
      {
          "fullUrl": "urn:uuid:91ba2e87-a4f9-aa57-068a-4f18e2b520a3",
          "resource": {
              "resourceType": "Location",
              "id": "91ba2e87-a4f9-aa57-068a-4f18e2b520a3",
              "name": "Nursing home",
              "mode": "instance",
              "description": "Nursing home--Rosewood",
              "physicalType": {
                  "coding": [
                      {
                          "system": "http://terminology.hl7.org/CodeSystem/location-physical-type",
                          "code": "lvl"
                      }
                  ]
              }
          },
          "request": {
              "method": "PUT",
              "url": "Location/91ba2e87-a4f9-aa57-068a-4f18e2b520a3"
          }
      },
      {
          "fullUrl": "urn:uuid:033948d7-f808-69f7-e150-e34433d7e74e",
          "resource": {
              "resourceType": "Location",
              "id": "033948d7-f808-69f7-e150-e34433d7e74e",
              "name": "Rosewood",
              "mode": "instance",
              "description": "Nursing home--Rosewood",
              "physicalType": {
                  "coding": [
                      {
                          "system": "http://terminology.hl7.org/CodeSystem/location-physical-type",
                          "code": "bu"
                      }
                  ]
              }
          },
          "request": {
              "method": "PUT",
              "url": "Location/033948d7-f808-69f7-e150-e34433d7e74e"
          }
      },
      {
          "fullUrl": "urn:uuid:7242d3ed-13e3-8da7-802d-1902c77245ab",
          "resource": {
              "resourceType": "Location",
              "id": "7242d3ed-13e3-8da7-802d-1902c77245ab",
              "name": "ROOM1",
              "identifier": [
                  {
                      "value": "urn:oid:2.16.840.1.113883.4.642.1.1108",
                      "system": "urn:ietf:rfc:3986"
                  }
              ],
              "mode": "instance",
              "description": "ROOM1--2.16.840.1.113883.4.642.1.1108--ISO--BED1--FACILITY1--BUILDING1--FLOOR1",
              "physicalType": {
                  "coding": [
                      {
                          "system": "http://terminology.hl7.org/CodeSystem/location-physical-type",
                          "code": "ro"
                      }
                  ]
              }
          },
          "request": {
              "method": "PUT",
              "url": "Location/7242d3ed-13e3-8da7-802d-1902c77245ab"
          }
      },
      {
          "fullUrl": "urn:uuid:47be8e12-1cd6-f250-d854-0e5c73452a35",
          "resource": {
              "resourceType": "Location",
              "id": "47be8e12-1cd6-f250-d854-0e5c73452a35",
              "partOf": {
                  "reference": "Location/7242d3ed-13e3-8da7-802d-1902c77245ab"
              },
              "name": "BED1",
              "mode": "instance",
              "description": "ROOM1--2.16.840.1.113883.4.642.1.1108--ISO--BED1--FACILITY1--BUILDING1--FLOOR1",
              "physicalType": {
                  "coding": [
                      {
                          "system": "http://terminology.hl7.org/CodeSystem/location-physical-type",
                          "code": "bd"
                      }
                  ]
              }
          },
          "request": {
              "method": "PUT",
              "url": "Location/47be8e12-1cd6-f250-d854-0e5c73452a35"
          }
      },
      {
          "fullUrl": "urn:uuid:1bc31588-100d-f6d4-556a-66ea92a026da",
          "resource": {
              "resourceType": "Location",
              "id": "1bc31588-100d-f6d4-556a-66ea92a026da",
              "name": "FACILITY1",
              "mode": "instance",
              "description": "ROOM1--2.16.840.1.113883.4.642.1.1108--ISO--BED1--FACILITY1--BUILDING1--FLOOR1",
              "physicalType": {
                  "coding": [
                      {
                          "system": "http://terminology.hl7.org/CodeSystem/location-physical-type",
                          "code": "si"
                      }
                  ]
              }
          },
          "request": {
              "method": "PUT",
              "url": "Location/1bc31588-100d-f6d4-556a-66ea92a026da"
          }
      },
      {
          "fullUrl": "urn:uuid:f11d29a4-f2b1-cb4d-cdda-1c63370d3168",
          "resource": {
              "resourceType": "Location",
              "id": "f11d29a4-f2b1-cb4d-cdda-1c63370d3168",
              "partOf": {
                  "reference": "Location/1bc31588-100d-f6d4-556a-66ea92a026da"
              },
              "name": "BUILDING1",
              "mode": "instance",
              "description": "ROOM1--2.16.840.1.113883.4.642.1.1108--ISO--BED1--FACILITY1--BUILDING1--FLOOR1",
              "physicalType": {
                  "coding": [
                      {
                          "system": "http://terminology.hl7.org/CodeSystem/location-physical-type",
                          "code": "bu"
                      }
                  ]
              }
          },
          "request": {
              "method": "PUT",
              "url": "Location/f11d29a4-f2b1-cb4d-cdda-1c63370d3168"
          }
      },
      {
          "fullUrl": "urn:uuid:2581ba96-39c5-2882-a68d-94d04ab33b5f",
          "resource": {
              "resourceType": "Location",
              "id": "2581ba96-39c5-2882-a68d-94d04ab33b5f",
              "partOf": {
                  "reference": "Location/f11d29a4-f2b1-cb4d-cdda-1c63370d3168"
              },
              "name": "FLOOR1",
              "mode": "instance",
              "description": "ROOM1--2.16.840.1.113883.4.642.1.1108--ISO--BED1--FACILITY1--BUILDING1--FLOOR1",
              "physicalType": {
                  "coding": [
                      {
                          "system": "http://terminology.hl7.org/CodeSystem/location-physical-type",
                          "code": "lvl"
                      }
                  ]
              }
          },
          "request": {
              "method": "PUT",
              "url": "Location/2581ba96-39c5-2882-a68d-94d04ab33b5f"
          }
      },
      {
          "fullUrl": "urn:uuid:08314073-410a-3dc7-512c-0f2d206fb59d",
          "resource": {
              "resourceType": "Organization",
              "id": "08314073-410a-3dc7-512c-0f2d206fb59d",
              "identifier": [
                  {
                      "value": "Etest",
                      "system": "http://example.com/v2-to-fhir-converter/Identifier/Etest"
                  },
                  {
                      "value": "2.16.1",
                      "system": "http://example.com/v2-to-fhir-converter/Identifier/HCD",
                      "type": {
                          "coding": [
                              {
                                  "code": "HCD",
                                  "display": "The CEN Healthcare Coding Scheme Designator",
                                  "system": "http://terminology.hl7.org/CodeSystem/v2-0301"
                              }
                          ]
                      }
                  }
              ]
          },
          "request": {
              "method": "PUT",
              "url": "Organization/08314073-410a-3dc7-512c-0f2d206fb59d"
          }
      },
      {
          "fullUrl": "urn:uuid:919a86bd-c9a1-86a7-2c9d-e34ae2559ffb",
          "resource": {
              "resourceType": "EpisodeOfCare",
              "id": "919a86bd-c9a1-86a7-2c9d-e34ae2559ffb",
              "status": "active",
              "identifier": [
                  {
                      "value": "EOC124",
                      "type": {
                          "coding": [
                              {
                                  "code": "MR",
                                  "system": "http://terminology.hl7.org/CodeSystem/v2-0203",
                                  "display": "Medical record number"
                              }
                          ]
                      },
                      "system": "http://example.com/v2-to-fhir-converter/Identifier/HCD",
                      "assigner": {
                          "reference": "Organization/08314073-410a-3dc7-512c-0f2d206fb59d"
                      }
                  }
              ],
              "patient": {
                  "reference": "Patient/9e909e52-61a1-be50-1878-a12ef8c36346"
              }
          },
          "request": {
              "method": "PUT",
              "url": "EpisodeOfCare/919a86bd-c9a1-86a7-2c9d-e34ae2559ffb"
          }
      },
      {
          "fullUrl": "urn:uuid:4b192760-03d2-aec4-b0a6-fde323912e1e",
          "resource": {
              "resourceType": "Encounter",
              "id": "4b192760-03d2-aec4-b0a6-fde323912e1e",
              "class": {
                  "code": "IMP",
                  "display": "inpatient encounter",
                  "system": "http://terminology.hl7.org/CodeSystem/v3-ActCode"
              },
              "status": "in-progress",
              "location": [
                  {
                      "status": "active",
                      "location": {
                          "reference": "Location/7e8c8f5b-e366-6646-d2c0-e943bd9d1145"
                      }
                  },
                  {
                      "status": "completed",
                      "location": {
                          "reference": "Location/76bb5678-ca71-a235-147f-5385b651dcd3"
                      }
                  },
                  {
                      "status": "planned",
                      "location": {
                          "reference": "Location/9be961d3-d02a-b454-1991-fa701628c823"
                      }
                  },
                  {
                      "status": "completed",
                      "location": {
                          "reference": "Location/91ba2e87-a4f9-aa57-068a-4f18e2b520a3"
                      },
                      "extension": [
                          {
                              "url": "http://hl7.org/fhir/uv/v2mappings/StructureDefinition/temporary-location",
                              "valueBoolean": true
                          }
                      ]
                  },
                  {
                      "status": "planned",
                      "location": {
                          "reference": "Location/7242d3ed-13e3-8da7-802d-1902c77245ab"
                      }
                  },
                  {
                      "location": {
                          "reference": "Location/b48de5a7-00ae-ea14-a5c7-e32e76717fff"
                      }
                  }
              ],
              "type": [
                  {
                      "coding": [
                          {
                              "code": "E",
                              "display": "Emergency",
                              "system": "http://terminology.hl7.org/CodeSystem/v2-0007"
                          }
                      ]
                  }
              ],
              "hospitalization": {
                  "preAdmissionIdentifier": {
                      "value": "1234567",
                      "type": {
                          "coding": [
                              {
                                  "code": "ANON",
                                  "system": "http://terminology.hl7.org/CodeSystem/v2-0203",
                                  "display": "Anonymous identifier"
                              }
                          ]
                      },
                      "system": "http://example.com/v2-to-fhir-converter/Identifier/HCD",
                      "assigner": {
                          "reference": "Organization/11967e28-8dd4-a112-0fdc-377866bf12a0"
                      },
                      "period": {
                          "start": "1924-10-11",
                          "end": "1924-10-12"
                      }
                  },
                  "reAdmission": {
                      "coding": [
                          {
                              "code": "R",
                              "display": "Re-admission",
                              "system": "http://terminology.hl7.org/CodeSystem/v2-0092"
                          }
                      ]
                  },
                  "admitSource": {
                      "coding": [
                          {
                              "code": "NHS Provider-General (inc.A&E-this Hosp)"
                          }
                      ]
                  },
                  "dischargeDisposition": {
                      "coding": [
                          {
                              "code": "Admitted as Inpatient",
                              "display": "Sample",
                              "system": "http://example.com/v2-to-fhir-converter/CodeSystem/ACR"
                          }
                      ]
                  },
                  "dietPreference": [
                      {
                          "coding": [
                              {
                                  "code": "Vegan",
                                  "display": "Vegetarian"
                              }
                          ]
                      }
                  ],
                  "destination": {
                      "reference": "Location/42b81572-ebb4-3f14-7a91-e1f9a9c70460"
                  }
              },
              "episodeOfCare": [
                  {
                      "reference": "EpisodeOfCare/919a86bd-c9a1-86a7-2c9d-e34ae2559ffb"
                  }
              ],
              "participant": [
                  {
                      "type": [
                          {
                              "coding": [
                                  {
                                      "code": "ATND",
                                      "system": "http://terminology.hl7.org/CodeSystem/v3-ParticipationType",
                                      "display": "attender"
                                  }
                              ]
                          }
                      ],
                      "individual": {
                          "reference": "Practitioner/f6775f99-5279-be04-bf81-0906c81f7443"
                      }
                  },
                  {
                      "type": [
                          {
                              "coding": [
                                  {
                                      "code": "REF",
                                      "system": "http://terminology.hl7.org/CodeSystem/v3-ParticipationType"
                                  }
                              ],
                              "text": "referrer"
                          }
                      ],
                      "individual": {
                          "reference": "Practitioner/04f8cfc8-62ca-12df-63ce-6304ef577d44"
                      }
                  },
                  {
                      "type": [
                          {
                              "coding": [
                                  {
                                      "code": "CON",
                                      "system": "http://terminology.hl7.org/CodeSystem/v3-ParticipationType"
                                  }
                              ],
                              "text": "consultant"
                          }
                      ],
                      "individual": {
                          "reference": "Practitioner/94d0558e-593c-7585-5525-68541f8b1064"
                      }
                  },
                  {
                      "type": [
                          {
                              "coding": [
                                  {
                                      "code": "ADM",
                                      "system": "http://terminology.hl7.org/CodeSystem/v3-ParticipationType"
                                  }
                              ],
                              "text": "admitter"
                          }
                      ],
                      "individual": {
                          "reference": "Practitioner/b065b233-8738-f1ec-1314-d61e4aac2c9e"
                      }
                  },
                  {
                      "type": [
                          {
                              "coding": [
                                  {
                                      "code": "REF",
                                      "system": "http://terminology.hl7.org/CodeSystem/v3-ParticipationType"
                                  }
                              ],
                              "text": "referrer"
                          }
                      ],
                      "individual": {
                          "reference": "Practitioner/36e3aaa4-569a-7d9d-037f-27235ed05701"
                      }
                  }
              ],
              "serviceType": {
                  "coding": [
                      {
                          "code": "SUR"
                      }
                  ]
              },
              "identifier": [
                  {
                      "value": "40007716",
                      "system": "http://example.com/v2-to-fhir-converter/Identifier/HCD",
                      "assigner": {
                          "reference": "Organization/7452d91f-ae92-d8ce-5b4a-148be5b6538e"
                      },
                      "type": {
                          "coding": [
                              {
                                  "code": "VN",
                                  "system": "http://terminology.hl7.org/CodeSystem/v2-0203"
                              }
                          ],
                          "text": "visit number"
                      }
                  },
                  {
                      "value": "50",
                      "type": {
                          "coding": [
                              {
                                  "code": "MR",
                                  "system": "http://terminology.hl7.org/CodeSystem/v2-0203",
                                  "display": "Medical record number"
                              }
                          ]
                      },
                      "system": "urn:oid:1.3.6.1.4.1.44750.1.2.2",
                      "assigner": {
                          "reference": "Organization/a6c4db5e-d3be-c9a5-8f86-a1d3341211b6"
                      }
                  }
              ],
              "period": {
                  "start": "2015-02-08T15:54:19+05:30"
              },
              "reasonCode": [
                  {
                      "coding": [
                          {
                              "code": "140004",
                              "display": "Chronic pharyngitis",
                              "system": "http://snomed.info/sct"
                          }
                      ]
                  }
              ],
              "length": {
                  "value": 2,
                  "unit": "d",
                  "system": "http://unitsofmeasure.org/"
              },
              "meta": {
                  "security": [
                      {
                          "code": "N",
                          "display": "normal",
                          "system": "http://terminology.hl7.org/CodeSystem/v3-Confidentiality"
                      }
                  ]
              },
              "text": {
                  "status": "generated",
                  "div": "<div xmlns=\"http://www.w3.org/1999/xhtml\"><p><span>Visit Description: Health Checkup</span></p></div>"
              },
              "priority": {
                  "coding": [
                      {
                          "code": "UR",
                          "display": "urgent",
                          "system": "http://terminology.hl7.org/CodeSystem/v3-ActPriority",
                          "version": "V1.2"
                      },
                      {
                          "code": "EL",
                          "display": "elective",
                          "system": "http://terminology.hl7.org/CodeSystem/v3-ActPriority",
                          "version": "V1.3"
                      }
                  ]
              },
              "account": [
                  {
                      "reference": "Account/4ad7c7d0-b69a-0653-9ea9-0979b8a66b39"
                  }
              ],
              "subject": {
                  "reference": "Patient/9e909e52-61a1-be50-1878-a12ef8c36346"
              },
              "extension": [
                  {
                      "url": "http://hl7.org/fhir/StructureDefinition/encounter-modeOfArrival",
                      "valueCoding": {
                          "code": "C",
                          "display": "Car",
                          "system": "http://terminology.hl7.org/CodeSystem/v2-0430"
                      }
                  }
              ]
          },
          "request": {
              "method": "PUT",
              "url": "Encounter/4b192760-03d2-aec4-b0a6-fde323912e1e"
          }
      },
      {
          "fullUrl": "urn:uuid:b48de5a7-00ae-ea14-a5c7-e32e76717fff",
          "resource": {
              "resourceType": "Location",
              "id": "b48de5a7-00ae-ea14-a5c7-e32e76717fff",
              "partOf": {
                  "reference": "Location/70844c90-e5c8-5d0c-bfe8-bc926c083487"
              },
              "name": "Eastlane",
              "identifier": [
                  {
                      "value": "urn:oid:9.8",
                      "system": "urn:ietf:rfc:3986"
                  }
              ],
              "mode": "instance",
              "description": "Eastlane--9.8--ISO--OMU B--Bed 03--HOMERTON UNIVER--C--Homerton UH--Floor5",
              "physicalType": {
                  "coding": [
                      {
                          "system": "http://terminology.hl7.org/CodeSystem/location-physical-type",
                          "code": "lvl"
                      }
                  ]
              }
          },
          "request": {
              "method": "PUT",
              "url": "Location/b48de5a7-00ae-ea14-a5c7-e32e76717fff"
          }
      },
      {
          "fullUrl": "urn:uuid:bb00e49d-df4e-8e0c-4aa9-c565d9c8524f",
          "resource": {
              "resourceType": "Location",
              "id": "bb00e49d-df4e-8e0c-4aa9-c565d9c8524f",
              "partOf": {
                  "reference": "Location/b48de5a7-00ae-ea14-a5c7-e32e76717fff"
              },
              "name": "OMU B",
              "mode": "instance",
              "description": "Eastlane--9.8--ISO--OMU B--Bed 03--HOMERTON UNIVER--C--Homerton UH--Floor5",
              "physicalType": {
                  "coding": [
                      {
                          "system": "http://terminology.hl7.org/CodeSystem/location-physical-type",
                          "code": "ro"
                      }
                  ]
              }
          },
          "request": {
              "method": "PUT",
              "url": "Location/bb00e49d-df4e-8e0c-4aa9-c565d9c8524f"
          }
      },
      {
          "fullUrl": "urn:uuid:3e6f3dce-b30a-40d4-0dc8-42d83bbffed3",
          "resource": {
              "resourceType": "Location",
              "id": "3e6f3dce-b30a-40d4-0dc8-42d83bbffed3",
              "partOf": {
                  "reference": "Location/bb00e49d-df4e-8e0c-4aa9-c565d9c8524f"
              },
              "name": "Bed 03",
              "mode": "instance",
              "description": "Eastlane--9.8--ISO--OMU B--Bed 03--HOMERTON UNIVER--C--Homerton UH--Floor5",
              "physicalType": {
                  "coding": [
                      {
                          "system": "http://terminology.hl7.org/CodeSystem/location-physical-type",
                          "code": "bd"
                      }
                  ]
              }
          },
          "request": {
              "method": "PUT",
              "url": "Location/3e6f3dce-b30a-40d4-0dc8-42d83bbffed3"
          }
      },
      {
          "fullUrl": "urn:uuid:4717178e-0563-2aed-80b6-e78cee78685f",
          "resource": {
              "resourceType": "Location",
              "id": "4717178e-0563-2aed-80b6-e78cee78685f",
              "name": "HOMERTON UNIVER",
              "mode": "instance",
              "description": "Eastlane--9.8--ISO--OMU B--Bed 03--HOMERTON UNIVER--C--Homerton UH--Floor5",
              "physicalType": {
                  "coding": [
                      {
                          "system": "http://terminology.hl7.org/CodeSystem/location-physical-type",
                          "code": "si"
                      }
                  ]
              }
          },
          "request": {
              "method": "PUT",
              "url": "Location/4717178e-0563-2aed-80b6-e78cee78685f"
          }
      },
      {
          "fullUrl": "urn:uuid:9eb3879e-ebae-13bc-a58c-bf1760bddd24",
          "resource": {
              "resourceType": "Location",
              "id": "9eb3879e-ebae-13bc-a58c-bf1760bddd24",
              "partOf": {
                  "reference": "Location/4717178e-0563-2aed-80b6-e78cee78685f"
              },
              "name": "Homerton UH",
              "mode": "instance",
              "description": "Eastlane--9.8--ISO--OMU B--Bed 03--HOMERTON UNIVER--C--Homerton UH--Floor5",
              "physicalType": {
                  "coding": [
                      {
                          "system": "http://terminology.hl7.org/CodeSystem/location-physical-type",
                          "code": "bu"
                      }
                  ]
              }
          },
          "request": {
              "method": "PUT",
              "url": "Location/9eb3879e-ebae-13bc-a58c-bf1760bddd24"
          }
      },
      {
          "fullUrl": "urn:uuid:70844c90-e5c8-5d0c-bfe8-bc926c083487",
          "resource": {
              "resourceType": "Location",
              "id": "70844c90-e5c8-5d0c-bfe8-bc926c083487",
              "partOf": {
                  "reference": "Location/9eb3879e-ebae-13bc-a58c-bf1760bddd24"
              },
              "name": "Floor5",
              "mode": "instance",
              "description": "Eastlane--9.8--ISO--OMU B--Bed 03--HOMERTON UNIVER--C--Homerton UH--Floor5",
              "physicalType": {
                  "coding": [
                      {
                          "system": "http://terminology.hl7.org/CodeSystem/location-physical-type",
                          "code": "lvl"
                      }
                  ]
              }
          },
          "request": {
              "method": "PUT",
              "url": "Location/70844c90-e5c8-5d0c-bfe8-bc926c083487"
          }
      },
      {
          "fullUrl": "urn:uuid:dfab6985-a691-c4f5-d2b2-6481fdfd59e4",
          "resource": {
              "resourceType": "Coverage",
              "id": "dfab6985-a691-c4f5-d2b2-6481fdfd59e4",
              "class": [
                  {
                      "value": "BAV",
                      "name": "Blue Advantage HMO",
                      "type": {
                          "coding": [
                              {
                                  "system": "http://terminology.hl7.org/CodeSystem/coverage-class",
                                  "code": "plan",
                                  "display": "Plan"
                              }
                          ]
                      }
                  },
                  {
                      "value": "PUBSUMB",
                      "name": "SelfPay",
                      "type": {
                          "coding": [
                              {
                                  "system": "http://terminology.hl7.org/CodeSystem/coverage-class",
                                  "code": "group",
                                  "display": "Group"
                              }
                          ]
                      }
                  }
              ],
              "network": "Blue Advantage HMO",
              "period": {
                  "start": "1989-10-01",
                  "end": "2050-10-01"
              },
              "type": {
                  "coding": [
                      {
                          "code": "HMO",
                          "display": "health maintenance organization policy",
                          "system": "http://terminology.hl7.org/CodeSystem/v3-ActCode"
                      }
                  ]
              },
              "identifier": [
                  {
                      "value": "PN-145",
                      "type": {
                          "coding": [
                              {
                                  "code": "PLN",
                                  "display": "Policy Number",
                                  "system": "http://example.com/CodeSystem/additional-identifier"
                              }
                          ]
                      },
                      "system": "http://example.com/v2-to-fhir-converter/Identifier/policy-id"
                  },
                  {
                      "value": "Medicare-12345",
                      "type": {
                          "coding": [
                              {
                                  "code": "MC",
                                  "display": "Patient's Medicare number",
                                  "system": "http://terminology.hl7.org/CodeSystem/v2-0203"
                              }
                          ]
                      },
                      "system": "http://hl7.org/fhir/sid/us-medicare"
                  },
                  {
                      "value": "MCN-008",
                      "type": {
                          "coding": [
                              {
                                  "code": "MA",
                                  "display": "Patient Medicaid number",
                                  "system": "http://terminology.hl7.org/CodeSystem/v2-0203"
                              }
                          ]
                      },
                      "system": "http://example.com/v2-to-fhir-converter/sid/us-medicaid"
                  },
                  {
                      "value": "PNM1234",
                      "type": {
                          "coding": [
                              {
                                  "code": "MR",
                                  "system": "http://terminology.hl7.org/CodeSystem/v2-0203",
                                  "display": "Medical record number"
                              }
                          ]
                      },
                      "system": "http://example.com/v2-to-fhir-converter/Identifier/HCD",
                      "assigner": {
                          "reference": "Organization/1fca4c8f-7562-b755-9a05-5f0f49096e5b"
                      },
                      "period": {
                          "start": "1924-10-11",
                          "end": "1924-10-12"
                      }
                  }
              ],
              "costToBeneficiary": [
                  {
                      "type": {
                          "coding": [
                              {
                                  "code": "DC",
                                  "display": "direct unit cost",
                                  "system": "http://terminology.hl7.org/CodeSystem/v2-0205"
                              }
                          ]
                      },
                      "valueMoney": {
                          "value": 150,
                          "currency": "USD"
                      }
                  }
              ],
              "subscriberId": "HMO-12345",
              "status": "active",
              "beneficiary": {
                  "reference": "Patient/9e909e52-61a1-be50-1878-a12ef8c36346"
              },
              "payor": [
                  {
                      "reference": "Organization/04a2a5f2-c971-1e42-e788-250ea487a889"
                  }
              ],
              "policyHolder": {
                  "reference": "Organization/4829e288-ac03-22cc-c65e-922004275fd0"
              },
              "subscriber": {
                  "reference": "RelatedPerson/fd1eed45-4ccb-bb7c-d157-58eb0366d777"
              },
              "relationship": {
                  "coding": [
                      {
                          "code": "spouse",
                          "display": "Spouse",
                          "system": "http://terminology.hl7.org/CodeSystem/subscriber-relationship"
                      }
                  ]
              }
          },
          "request": {
              "method": "PUT",
              "url": "Coverage/dfab6985-a691-c4f5-d2b2-6481fdfd59e4"
          }
      },
      {
          "fullUrl": "urn:uuid:04a2a5f2-c971-1e42-e788-250ea487a889",
          "resource": {
              "resourceType": "Organization",
              "id": "04a2a5f2-c971-1e42-e788-250ea487a889",
              "address": [
                  {
                      "line": [
                          "1979 MILKY WAY"
                      ],
                      "city": "VERONA",
                      "state": "WI",
                      "postalCode": "53593",
                      "country": "US"
                  }
              ],
              "contact": [
                  {
                      "name": {
                          "family": "Henry",
                          "given": [
                              "Rony",
                              "A"
                          ],
                          "suffix": [
                              "III",
                              "MD"
                          ],
                          "prefix": [
                              "Dr."
                          ],
                          "use": "usual",
                          "period": {
                              "start": "1925-10-12"
                          }
                      }
                  }
              ],
              "telecom": [
                  {
                      "value": "(555)555-5555",
                      "system": "phone"
                  }
              ],
              "identifier": [
                  {
                      "value": "IC-1.31",
                      "type": {
                          "coding": [
                              {
                                  "code": "NIIP",
                                  "system": "http://terminology.hl7.org/CodeSystem/v2-0203",
                                  "display": "National Insurance Payor Identifier (Payor)"
                              }
                          ]
                      },
                      "system": "urn:oid:2.16.840.1.113883.1.1",
                      "period": {
                          "start": "1929-10-11",
                          "end": "1929-10-12"
                      }
                  }
              ],
              "name": "Blue Cross Blue Shield of Texas"
          },
          "request": {
              "method": "PUT",
              "url": "Organization/04a2a5f2-c971-1e42-e788-250ea487a889"
          }
      },
      {
          "fullUrl": "urn:uuid:4829e288-ac03-22cc-c65e-922004275fd0",
          "resource": {
              "resourceType": "Organization",
              "id": "4829e288-ac03-22cc-c65e-922004275fd0",
              "address": [
                  {
                      "line": [
                          "2000 MILKY WAY"
                      ],
                      "city": "VERONA",
                      "state": "WI",
                      "postalCode": "53593",
                      "country": "US"
                  }
              ],
              "name": "Sam P. Hil",
              "contact": [
                  {
                      "name": {
                          "family": "Richard",
                          "given": [
                              "Paul"
                          ]
                      },
                      "telecom": [
                          {
                              "value": "254622222",
                              "system": "phone"
                          }
                      ]
                  }
              ],
              "telecom": [
                  {
                      "value": "555777888",
                      "system": "fax"
                  },
                  {
                      "system": "phone"
                  }
              ]
          },
          "request": {
              "method": "PUT",
              "url": "Organization/4829e288-ac03-22cc-c65e-922004275fd0"
          }
      },
      {
          "fullUrl": "urn:uuid:fd1eed45-4ccb-bb7c-d157-58eb0366d777",
          "resource": {
              "resourceType": "RelatedPerson",
              "id": "fd1eed45-4ccb-bb7c-d157-58eb0366d777",
              "identifier": [
                  {
                      "value": "HMO-12345",
                      "type": {
                          "coding": [
                              {
                                  "code": "NI",
                                  "system": "http://terminology.hl7.org/CodeSystem/v2-0203",
                                  "display": "National unique individual identifier"
                              }
                          ]
                      },
                      "system": "urn:oid:2.16.840.1.113883.1.3"
                  },
                  {
                      "value": "1117",
                      "type": {
                          "coding": [
                              {
                                  "code": "EI",
                                  "system": "http://terminology.hl7.org/CodeSystem/v2-0203",
                                  "display": "Employee number"
                              }
                          ]
                      },
                      "system": "urn:oid:2.16.840.1.113883.1.4"
                  },
                  {
                      "value": "1118",
                      "type": {
                          "coding": [
                              {
                                  "code": "BC",
                                  "system": "http://terminology.hl7.org/CodeSystem/v2-0203",
                                  "display": "Bank Card Number"
                              }
                          ]
                      }
                  },
                  {
                      "value": "425-57-9745",
                      "type": {
                          "coding": [
                              {
                                  "code": "SS",
                                  "display": "Social Security number",
                                  "system": "http://terminology.hl7.org/CodeSystem/v2-0203"
                              }
                          ]
                      },
                      "system": "http://hl7.org/fhir/sid/us-ssn"
                  }
              ],
              "relationship": [
                  {
                      "coding": [
                          {
                              "code": "SPS",
                              "display": "spouse",
                              "system": "http://terminology.hl7.org/CodeSystem/v3-RoleCode"
                          }
                      ]
                  }
              ],
              "address": [
                  {
                      "line": [
                          "3857 Velvet Treasure Terrace"
                      ],
                      "city": "Midnight",
                      "state": "NC",
                      "postalCode": "27878",
                      "country": "US"
                  }
              ],
              "name": [
                  {
                      "family": "Doe",
                      "given": [
                          "Rosallie",
                          "John"
                      ],
                      "suffix": [
                          "III",
                          "Bachelors"
                      ],
                      "prefix": [
                          "Mrs."
                      ],
                      "use": "official"
                  }
              ],
              "gender": "female",
              "birthDate": "1975-02-28",
              "patient": {
                  "reference": "Patient/9e909e52-61a1-be50-1878-a12ef8c36346"
              },
              "telecom": [
                  {
                      "value": "0005245",
                      "use": "work",
                      "system": "email"
                  },
                  {
                      "system": "phone"
                  }
              ],
              "communication": [
                  {
                      "language": {
                          "coding": [
                              {
                                  "code": "en",
                                  "display": "English",
                                  "system": "urn:ietf:bcp:47"
                              }
                          ]
                      },
                      "preferred": true
                  }
              ]
          },
          "request": {
              "method": "PUT",
              "url": "RelatedPerson/fd1eed45-4ccb-bb7c-d157-58eb0366d777"
          }
      },
      {
          "fullUrl": "urn:uuid:1fca4c8f-7562-b755-9a05-5f0f49096e5b",
          "resource": {
              "resourceType": "Organization",
              "id": "1fca4c8f-7562-b755-9a05-5f0f49096e5b",
              "identifier": [
                  {
                      "value": "PM",
                      "system": "http://example.com/v2-to-fhir-converter/Identifier/PM"
                  },
                  {
                      "value": "2.6.1",
                      "system": "http://example.com/v2-to-fhir-converter/Identifier/HCD",
                      "type": {
                          "coding": [
                              {
                                  "code": "HCD",
                                  "display": "The CEN Healthcare Coding Scheme Designator",
                                  "system": "http://terminology.hl7.org/CodeSystem/v2-0301"
                              }
                          ]
                      }
                  }
              ]
          },
          "request": {
              "method": "PUT",
              "url": "Organization/1fca4c8f-7562-b755-9a05-5f0f49096e5b"
          }
      },
      {
          "fullUrl": "urn:uuid:1dbb1f11-fb42-d773-10ed-907a2d3caa08",
          "resource": {
              "resourceType": "MedicationRequest",
              "id": "1dbb1f11-fb42-d773-10ed-907a2d3caa08",
              "identifier": [
                  {
                      "value": "1163422591",
                      "system": "http://example.com/v2-to-fhir-converter/Identifier/EPC",
                      "type": {
                          "coding": [
                              {
                                  "code": "PLAC",
                                  "system": "http://terminology.hl7.org/CodeSystem/v2-0203"
                              }
                          ]
                      }
                  }
              ],
              "status": "active",
              "authoredOn": "2019-11-04T09:42:26+05:30",
              "intent": "original-order",
              "substitution": {
                  "allowedCodeableConcept": {
                      "coding": [
                          {
                              "code": "G",
                              "system": "http://terminology.hl7.org/CodeSystem/v2-0161"
                          }
                      ]
                  }
              },
              "dispenseRequest": {
                  "quantity": {
                      "value": 10,
                      "unit": "capsule"
                  },
                  "numberOfRepeatsAllowed": 12,
                  "dispenseInterval": {
                      "value": 5,
                      "code": "d",
                      "system": "http://unitsofmeasure.org",
                      "unit": "days"
                  },
                  "performer": {
                      "reference": "Organization/55136227-c2c7-63df-ae4a-254cb055c40f"
                  }
              },
              "reasonCode": [
                  {
                      "coding": [
                          {
                              "code": "mg"
                          }
                      ]
                  }
              ],
              "requester": {
                  "reference": "PractitionerRole/3eb1c646-4698-e14e-21de-296de85f665a"
              },
              "recorder": {
                  "reference": "PractitionerRole/70760c64-049f-8c58-3d01-45c1b7b23b26"
              },
              "subject": {
                  "reference": "Patient/9e909e52-61a1-be50-1878-a12ef8c36346"
              },
              "encounter": {
                  "reference": "Encounter/4b192760-03d2-aec4-b0a6-fde323912e1e"
              },
              "supportingInformation": [
                  {
                      "reference": "PractitionerRole/1b232964-2b1d-a517-7d84-56e759ed0429"
                  },
                  {
                      "reference": "Organization/671cd07b-e021-ef1b-ff40-b60602db87b2"
                  },
                  {
                      "reference": "Device/e7598f04-7119-f7a0-b0b7-c788548f491a"
                  }
              ],
              "medicationReference": {
                  "reference": "Medication/552d0ca0-bf5a-72bb-5081-ba69a45630cf"
              },
              "dosageInstruction": [
                  {
                      "doseAndRate": [
                          {
                              "doseQuantity": {
                                  "value": 2,
                                  "unit": "capsule"
                              },
                              "rateQuantity": {
                                  "value": 25,
                                  "unit": "$"
                              }
                          }
                      ],
                      "patientInstruction": "1 tablet by oral route 2 times daily.",
                      "text": "Remind the patient toschedule follow up appointment with the provider.+Its a condition text",
                      "maxDosePerPeriod": {
                          "numerator": {
                              "value": 2,
                              "unit": "cap"
                          },
                          "denominator": {
                              "value": 1,
                              "unit": "d",
                              "system": "http://unitsofmeasure.org",
                              "code": "d"
                          }
                      },
                      "route": {
                          "coding": [
                              {
                                  "code": "IV",
                                  "display": "IV Infusion"
                              }
                          ]
                      },
                      "sequence": 1,
                      "timing": {
                          "code": {
                              "coding": [
                                  {
                                      "code": "TID",
                                      "display": "three times a day at institution-specified times",
                                      "system": "http://terminology.hl7.org/CodeSystem/v2-0335"
                                  }
                              ]
                          },
                          "repeat": {
                              "boundsDuration": {
                                  "value": 3,
                                  "unit": "day",
                                  "code": "D",
                                  "system": "http://unitsofmeasure.org"
                              }
                          }
                      }
                  }
              ],
              "priority": "routine"
          },
          "request": {
              "method": "PUT",
              "url": "MedicationRequest/1dbb1f11-fb42-d773-10ed-907a2d3caa08"
          }
      },
      {
          "fullUrl": "urn:uuid:1b232964-2b1d-a517-7d84-56e759ed0429",
          "resource": {
              "resourceType": "PractitionerRole",
              "id": "1b232964-2b1d-a517-7d84-56e759ed0429",
              "code": [
                  {
                      "coding": [
                          {
                              "code": "CP",
                              "display": "Consulting Provider",
                              "system": "http://terminology.hl7.org/CodeSystem/v2-0443"
                          }
                      ]
                  }
              ],
              "location": [
                  {
                      "reference": "Location/cc9987df-1394-0261-ab58-4d981eeb8e8a"
                  }
              ],
              "organization": {
                  "reference": "Organization/9a62bcb3-1a0e-c4f0-929e-262e5b715edd"
              },
              "specialty": [
                  {
                      "coding": [
                          {
                              "code": "PPT"
                          }
                      ]
                  }
              ],
              "practitioner": {
                  "reference": "Practitioner/6a9b1747-4ada-4ce5-e4cf-948106bcdef3"
              }
          },
          "request": {
              "method": "PUT",
              "url": "PractitionerRole/1b232964-2b1d-a517-7d84-56e759ed0429"
          }
      },
      {
          "fullUrl": "urn:uuid:6a9b1747-4ada-4ce5-e4cf-948106bcdef3",
          "resource": {
              "resourceType": "Practitioner",
              "id": "6a9b1747-4ada-4ce5-e4cf-948106bcdef3",
              "identifier": [
                  {
                      "value": "58"
                  }
              ],
              "name": [
                  {
                      "family": "Jackson"
                  }
              ]
          },
          "request": {
              "method": "PUT",
              "url": "Practitioner/6a9b1747-4ada-4ce5-e4cf-948106bcdef3"
          }
      },
      {
          "fullUrl": "urn:uuid:cc9987df-1394-0261-ab58-4d981eeb8e8a",
          "resource": {
              "resourceType": "Location",
              "id": "cc9987df-1394-0261-ab58-4d981eeb8e8a",
              "name": "Eureka Springs",
              "mode": "instance",
              "description": "Eureka Springs--136--B--CommunityHospital--N",
              "physicalType": {
                  "coding": [
                      {
                          "system": "http://terminology.hl7.org/CodeSystem/location-physical-type",
                          "code": "lvl"
                      }
                  ]
              }
          },
          "request": {
              "method": "PUT",
              "url": "Location/cc9987df-1394-0261-ab58-4d981eeb8e8a"
          }
      },
      {
          "fullUrl": "urn:uuid:b7a4b3e0-33f5-999d-cb59-d5edf65dfe20",
          "resource": {
              "resourceType": "Location",
              "id": "b7a4b3e0-33f5-999d-cb59-d5edf65dfe20",
              "partOf": {
                  "reference": "Location/cc9987df-1394-0261-ab58-4d981eeb8e8a"
              },
              "name": "136",
              "mode": "instance",
              "description": "Eureka Springs--136--B--CommunityHospital--N",
              "physicalType": {
                  "coding": [
                      {
                          "system": "http://terminology.hl7.org/CodeSystem/location-physical-type",
                          "code": "ro"
                      }
                  ]
              }
          },
          "request": {
              "method": "PUT",
              "url": "Location/b7a4b3e0-33f5-999d-cb59-d5edf65dfe20"
          }
      },
      {
          "fullUrl": "urn:uuid:dcc546fd-dd44-532c-b59e-46df55ae0377",
          "resource": {
              "resourceType": "Location",
              "id": "dcc546fd-dd44-532c-b59e-46df55ae0377",
              "partOf": {
                  "reference": "Location/b7a4b3e0-33f5-999d-cb59-d5edf65dfe20"
              },
              "name": "B",
              "mode": "instance",
              "description": "Eureka Springs--136--B--CommunityHospital--N",
              "physicalType": {
                  "coding": [
                      {
                          "system": "http://terminology.hl7.org/CodeSystem/location-physical-type",
                          "code": "bd"
                      }
                  ]
              }
          },
          "request": {
              "method": "PUT",
              "url": "Location/dcc546fd-dd44-532c-b59e-46df55ae0377"
          }
      },
      {
          "fullUrl": "urn:uuid:94cec819-f263-b7dd-784c-78db10075c94",
          "resource": {
              "resourceType": "Location",
              "id": "94cec819-f263-b7dd-784c-78db10075c94",
              "name": "CommunityHospital",
              "mode": "instance",
              "description": "Eureka Springs--136--B--CommunityHospital--N",
              "physicalType": {
                  "coding": [
                      {
                          "system": "http://terminology.hl7.org/CodeSystem/location-physical-type",
                          "code": "si"
                      }
                  ]
              }
          },
          "request": {
              "method": "PUT",
              "url": "Location/94cec819-f263-b7dd-784c-78db10075c94"
          }
      },
      {
          "fullUrl": "urn:uuid:9a62bcb3-1a0e-c4f0-929e-262e5b715edd",
          "resource": {
              "resourceType": "Organization",
              "id": "9a62bcb3-1a0e-c4f0-929e-262e5b715edd",
              "name": "Mayo Memorial"
          },
          "request": {
              "method": "PUT",
              "url": "Organization/9a62bcb3-1a0e-c4f0-929e-262e5b715edd"
          }
      },
      {
          "fullUrl": "urn:uuid:fd9422ea-c777-5e23-c4a1-f4cd7ac2c00b",
          "resource": {
              "resourceType": "Organization",
              "id": "fd9422ea-c777-5e23-c4a1-f4cd7ac2c00b",
              "name": "LAKE FOREST HOSPITAL IP",
              "address": [
                  {
                      "line": [
                          "1000 N WESTMORELAND RD"
                      ],
                      "city": "LAKE FOREST",
                      "state": "IL",
                      "postalCode": "60045-1659"
                  }
              ],
              "contact": [
                  {
                      "telecom": [
                          {
                              "value": "(847)234-5600",
                              "use": "work",
                              "system": "phone"
                          }
                      ]
                  }
              ]
          },
          "request": {
              "method": "PUT",
              "url": "Organization/fd9422ea-c777-5e23-c4a1-f4cd7ac2c00b"
          }
      },
      {
          "fullUrl": "urn:uuid:8283d3b2-3478-7700-f270-11b6b0545784",
          "resource": {
              "resourceType": "Practitioner",
              "id": "8283d3b2-3478-7700-f270-11b6b0545784",
              "identifier": [
                  {
                      "value": "OP-14"
                  }
              ],
              "name": [
                  {
                      "family": "Jane",
                      "given": [
                          "Warn"
                      ]
                  }
              ]
          },
          "request": {
              "method": "PUT",
              "url": "Practitioner/8283d3b2-3478-7700-f270-11b6b0545784"
          }
      },
      {
          "fullUrl": "urn:uuid:3eb1c646-4698-e14e-21de-296de85f665a",
          "resource": {
              "resourceType": "PractitionerRole",
              "id": "3eb1c646-4698-e14e-21de-296de85f665a",
              "code": [
                  {
                      "coding": [
                          {
                              "code": "OP",
                              "system": "http://terminology.hl7.org/CodeSystem/v2-0443",
                              "display": "Ordering Provider"
                          }
                      ]
                  }
              ],
              "practitioner": {
                  "reference": "Practitioner/8283d3b2-3478-7700-f270-11b6b0545784"
              },
              "organization": {
                  "reference": "Organization/fd9422ea-c777-5e23-c4a1-f4cd7ac2c00b"
              }
          },
          "request": {
              "method": "PUT",
              "url": "PractitionerRole/3eb1c646-4698-e14e-21de-296de85f665a"
          }
      },
      {
          "fullUrl": "urn:uuid:ab822316-53e2-f3d1-770d-1054e980cdf2",
          "resource": {
              "resourceType": "Practitioner",
              "id": "ab822316-53e2-f3d1-770d-1054e980cdf2",
              "identifier": [
                  {
                      "value": "1542"
                  }
              ],
              "name": [
                  {
                      "family": "Mr. Yardy"
                  }
              ]
          },
          "request": {
              "method": "PUT",
              "url": "Practitioner/ab822316-53e2-f3d1-770d-1054e980cdf2"
          }
      },
      {
          "fullUrl": "urn:uuid:70760c64-049f-8c58-3d01-45c1b7b23b26",
          "resource": {
              "resourceType": "PractitionerRole",
              "id": "70760c64-049f-8c58-3d01-45c1b7b23b26",
              "code": [
                  {
                      "coding": [
                          {
                              "code": "IP",
                              "display": "Initiating Provider",
                              "system": "http://terminology.hl7.org/CodeSystem/v2-0443"
                          }
                      ]
                  }
              ],
              "practitioner": {
                  "reference": "Practitioner/ab822316-53e2-f3d1-770d-1054e980cdf2"
              }
          },
          "request": {
              "method": "PUT",
              "url": "PractitionerRole/70760c64-049f-8c58-3d01-45c1b7b23b26"
          }
      },
      {
          "fullUrl": "urn:uuid:55136227-c2c7-63df-ae4a-254cb055c40f",
          "resource": {
              "resourceType": "Organization",
              "id": "55136227-c2c7-63df-ae4a-254cb055c40f",
              "identifier": [
                  {
                      "value": "Health Care Dispense Pharmacy"
                  }
              ],
              "name": "Dispense",
              "address": [
                  {
                      "line": [
                          "Maryland Heights",
                          "Keysville"
                      ]
                  }
              ],
              "telecom": [
                  {
                      "value": "8765935243",
                      "system": "phone"
                  }
              ]
          },
          "request": {
              "method": "PUT",
              "url": "Organization/55136227-c2c7-63df-ae4a-254cb055c40f"
          }
      },
      {
          "fullUrl": "urn:uuid:552d0ca0-bf5a-72bb-5081-ba69a45630cf",
          "resource": {
              "resourceType": "Medication",
              "id": "552d0ca0-bf5a-72bb-5081-ba69a45630cf",
              "code": {
                  "coding": [
                      {
                          "code": "00047040230",
                          "display": "Ampicillin 250 mg caps",
                          "system": "http://hl7.org/fhir/sid/ndc"
                      }
                  ]
              },
              "form": {
                  "coding": [
                      {
                          "code": "DF-5",
                          "display": "Dosage Form",
                          "system": "http://example.com/v2-to-fhir-converter/CodeSystem/L"
                      }
                  ]
              },
              "ingredient": [
                  {
                      "strength": {
                          "numerator": {
                              "value": 5,
                              "unit": "mg/hr"
                          },
                          "denominator": {
                              "value": 4,
                              "unit": "mg/hr"
                          }
                      },
                      "itemReference": {
                          "reference": "Medication/6170b7bd-a175-35d6-a819-f98a80830833"
                      }
                  }
              ]
          },
          "request": {
              "method": "PUT",
              "url": "Medication/552d0ca0-bf5a-72bb-5081-ba69a45630cf"
          }
      },
      {
          "fullUrl": "urn:uuid:6170b7bd-a175-35d6-a819-f98a80830833",
          "resource": {
              "resourceType": "Medication",
              "id": "6170b7bd-a175-35d6-a819-f98a80830833",
              "code": {
                  "coding": [
                      {
                          "code": "0143963401",
                          "display": "200 ML BAG : NICARDIPINE IN NACL (ISO-OS) 40 MG/200 ML IV PGBK",
                          "system": "http://hl7.org/fhir/sid/ndc"
                      }
                  ]
              },
              "amount": {
                  "numerator": {
                      "value": 3,
                      "code": "BG",
                      "unit": "Bag",
                      "system": "http://example.com/v2-to-fhir-converter/CodeSystem/L"
                  },
                  "denominator": {
                      "value": 1
                  }
              }
          },
          "request": {
              "method": "PUT",
              "url": "Medication/6170b7bd-a175-35d6-a819-f98a80830833"
          }
      },
      {
          "fullUrl": "urn:uuid:671cd07b-e021-ef1b-ff40-b60602db87b2",
          "resource": {
              "resourceType": "Organization",
              "id": "671cd07b-e021-ef1b-ff40-b60602db87b2",
              "name": "N Memorial"
          },
          "request": {
              "method": "PUT",
              "url": "Organization/671cd07b-e021-ef1b-ff40-b60602db87b2"
          }
      },
      {
          "fullUrl": "urn:uuid:aa608b9b-e232-5f5e-c727-4bff6e5ef7a4",
          "resource": {
              "resourceType": "Location",
              "id": "aa608b9b-e232-5f5e-c727-4bff6e5ef7a4",
              "name": "Maryland street",
              "mode": "instance",
              "description": "Maryland street--136--B--CommunityHospital--N",
              "physicalType": {
                  "coding": [
                      {
                          "system": "http://terminology.hl7.org/CodeSystem/location-physical-type",
                          "code": "lvl"
                      }
                  ]
              },
              "managingOrganization": {
                  "reference": "Organization/671cd07b-e021-ef1b-ff40-b60602db87b2"
              }
          },
          "request": {
              "method": "PUT",
              "url": "Location/aa608b9b-e232-5f5e-c727-4bff6e5ef7a4"
          }
      },
      {
          "fullUrl": "urn:uuid:d5dcfe22-4c1a-9945-1742-e774c40d7d65",
          "resource": {
              "resourceType": "Location",
              "id": "d5dcfe22-4c1a-9945-1742-e774c40d7d65",
              "partOf": {
                  "reference": "Location/aa608b9b-e232-5f5e-c727-4bff6e5ef7a4"
              },
              "name": "136",
              "mode": "instance",
              "description": "Maryland street--136--B--CommunityHospital--N",
              "physicalType": {
                  "coding": [
                      {
                          "system": "http://terminology.hl7.org/CodeSystem/location-physical-type",
                          "code": "ro"
                      }
                  ]
              }
          },
          "request": {
              "method": "PUT",
              "url": "Location/d5dcfe22-4c1a-9945-1742-e774c40d7d65"
          }
      },
      {
          "fullUrl": "urn:uuid:b592d5c9-b0ac-fbc3-b10b-d5a5d50aed3a",
          "resource": {
              "resourceType": "Location",
              "id": "b592d5c9-b0ac-fbc3-b10b-d5a5d50aed3a",
              "partOf": {
                  "reference": "Location/d5dcfe22-4c1a-9945-1742-e774c40d7d65"
              },
              "name": "B",
              "mode": "instance",
              "description": "Maryland street--136--B--CommunityHospital--N",
              "physicalType": {
                  "coding": [
                      {
                          "system": "http://terminology.hl7.org/CodeSystem/location-physical-type",
                          "code": "bd"
                      }
                  ]
              }
          },
          "request": {
              "method": "PUT",
              "url": "Location/b592d5c9-b0ac-fbc3-b10b-d5a5d50aed3a"
          }
      },
      {
          "fullUrl": "urn:uuid:9d09b184-f5c7-b84e-e9be-64dd4c9370f1",
          "resource": {
              "resourceType": "Location",
              "id": "9d09b184-f5c7-b84e-e9be-64dd4c9370f1",
              "name": "CommunityHospital",
              "mode": "instance",
              "description": "Maryland street--136--B--CommunityHospital--N",
              "physicalType": {
                  "coding": [
                      {
                          "system": "http://terminology.hl7.org/CodeSystem/location-physical-type",
                          "code": "si"
                      }
                  ]
              }
          },
          "request": {
              "method": "PUT",
              "url": "Location/9d09b184-f5c7-b84e-e9be-64dd4c9370f1"
          }
      },
      {
          "fullUrl": "urn:uuid:e7598f04-7119-f7a0-b0b7-c788548f491a",
          "resource": {
              "resourceType": "Device",
              "id": "e7598f04-7119-f7a0-b0b7-c788548f491a",
              "identifier": [
                  {
                      "value": "PDORC-10.1",
                      "system": "http://example.com/v2-to-fhir-converter/Identifier/PD-10.2"
                  },
                  {
                      "value": "00643169001763",
                      "system": "urn:oid:2.51.1.1",
                      "type": {
                          "coding": [
                              {
                                  "code": "ISO",
                                  "display": "An International Standards Organization Object Identifier (OID), in accordance with ISO/IEC 8824. Formatted as decimal digits separated by periods; recommended limit of 64 characters",
                                  "system": "http://terminology.hl7.org/CodeSystem/v2-0301"
                              }
                          ]
                      }
                  }
              ],
              "manufactureDate": "2014-04-01",
              "expirationDate": "2022-07-12",
              "lotNumber": "123ABC",
              "serialNumber": "21A11F4855"
          },
          "request": {
              "method": "PUT",
              "url": "Device/e7598f04-7119-f7a0-b0b7-c788548f491a"
          }
      },
      {
          "fullUrl": "urn:uuid:f24b7e3a-9e87-7fb9-bceb-e849d0a1fb10",
          "resource": {
              "resourceType": "Medication",
              "id": "f24b7e3a-9e87-7fb9-bceb-e849d0a1fb10",
              "code": {
                  "coding": [
                      {
                          "code": "0143963401",
                          "display": "200 ML BAG : NICARDIPINE IN NACL (ISO-OS) 40 MG/200 ML IV PGBK",
                          "system": "http://hl7.org/fhir/sid/ndc"
                      }
                  ],
                  "text": "niCARdipine (CARDENE) in NaCl IV infusion 40 mg/200 mL (0.2 mg/mL)"
              },
              "form": {
                  "coding": [
                      {
                          "code": "128",
                          "display": "Dosage form",
                          "system": "http://example.com/v2-to-fhir-converter/CodeSystem/L"
                      }
                  ]
              },
              "ingredient": [
                  {
                      "strength": {
                          "numerator": {
                              "value": 5,
                              "unit": "mg/hr"
                          },
                          "denominator": {
                              "value": 1
                          }
                      },
                      "itemReference": {
                          "reference": "Medication/0085ec88-8165-d2c0-a7ff-e3f0fd8c4a67"
                      }
                  }
              ]
          },
          "request": {
              "method": "PUT",
              "url": "Medication/f24b7e3a-9e87-7fb9-bceb-e849d0a1fb10"
          }
      },
      {
          "fullUrl": "urn:uuid:c8157e48-d519-6f15-20bb-50407d361fcc",
          "resource": {
              "resourceType": "Organization",
              "id": "c8157e48-d519-6f15-20bb-50407d361fcc",
              "identifier": [
                  {
                      "value": "LF_CPM",
                      "system": "http://example.com/v2-to-fhir-converter/Identifier/L"
                  }
              ],
              "name": "LFH CPM CAROUSEL PHARMACY",
              "address": [
                  {
                      "line": [
                          "Filbert Street",
                          "Oaks Drive"
                      ]
                  }
              ],
              "telecom": [
                  {
                      "value": "8256487985",
                      "system": "phone"
                  }
              ]
          },
          "request": {
              "method": "PUT",
              "url": "Organization/c8157e48-d519-6f15-20bb-50407d361fcc"
          }
      },
      {
          "fullUrl": "urn:uuid:3b50863f-db50-f2bb-1363-647ac32cf021",
          "resource": {
              "resourceType": "MedicationRequest",
              "id": "3b50863f-db50-f2bb-1363-647ac32cf021",
              "identifier": [
                  {
                      "value": "1163422591",
                      "system": "http://example.com/v2-to-fhir-converter/Identifier/EPC",
                      "type": {
                          "coding": [
                              {
                                  "code": "PLAC",
                                  "system": "http://terminology.hl7.org/CodeSystem/v2-0203"
                              }
                          ]
                      }
                  },
                  {
                      "value": "PN15",
                      "system": "http://example.com/v2-to-fhir-converter/Identifier/L",
                      "type": {
                          "coding": [
                              {
                                  "code": "PRN",
                                  "system": "http://example.com/v2-to-fhir-converter/CodeSystem/identifier-type-code",
                                  "display": "Prescription Number"
                              }
                          ]
                      }
                  }
              ],
              "status": "active",
              "authoredOn": "2019-11-04T09:42:26+05:30",
              "intent": "filler-order",
              "dispenseRequest": {
                  "quantity": {
                      "value": 3,
                      "unit": "Bag"
                  },
                  "initialFill": {
                      "quantity": {
                          "value": 39,
                          "unit": "Bag"
                      }
                  },
                  "numberOfRepeatsAllowed": 12,
                  "performer": {
                      "reference": "Organization/c8157e48-d519-6f15-20bb-50407d361fcc"
                  }
              },
              "requester": {
                  "reference": "PractitionerRole/03fa7a7b-85d6-1441-9daf-e98ac7796dd2"
              },
              "recorder": {
                  "reference": "PractitionerRole/70760c64-049f-8c58-3d01-45c1b7b23b26"
              },
              "medicationReference": {
                  "reference": "Medication/f24b7e3a-9e87-7fb9-bceb-e849d0a1fb10"
              },
              "basedOn": [
                  {
                      "reference": "MedicationRequest/1dbb1f11-fb42-d773-10ed-907a2d3caa08"
                  }
              ],
              "subject": {
                  "reference": "Patient/9e909e52-61a1-be50-1878-a12ef8c36346"
              },
              "encounter": {
                  "reference": "Encounter/4b192760-03d2-aec4-b0a6-fde323912e1e"
              },
              "dosageInstruction": [
                  {
                      "doseAndRate": [
                          {
                              "doseQuantity": {
                                  "value": 5,
                                  "unit": "mg/hr"
                              },
                              "rateQuantity": {
                                  "value": 23,
                                  "unit": "mL/hr"
                              }
                          }
                      ],
                      "additionalInstruction": [
                          {
                              "coding": [
                                  {
                                      "code": "Titrate to BP less than 180"
                                  }
                              ]
                          },
                          {
                              "coding": [
                                  {
                                      "code": "Starting dose is 5 mg/hr. Titrate by 2.5 mg/hr increments every 5 minutes as needed to a maximum dose of 15 mg/hr. Call Physician if ineffective."
                                  }
                              ]
                          },
                          {
                              "coding": [
                                  {
                                      "code": "Nicardipine is light sensitivie. Store in carton/overwrap until ready to use."
                                  }
                              ]
                          }
                      ],
                      "text": "+Text instruction latest",
                      "site": {
                          "coding": [
                              {
                                  "code": "HAND",
                                  "display": "HAND"
                              }
                          ]
                      },
                      "route": {
                          "coding": [
                              {
                                  "code": "IV",
                                  "display": "Intravenous"
                              }
                          ]
                      },
                      "sequence": 1,
                      "timing": {
                          "code": {
                              "coding": [
                                  {
                                      "code": "P",
                                      "display": "Post (after)",
                                      "system": "http://terminology.hl7.org/CodeSystem/v2-0335"
                                  }
                              ]
                          },
                          "repeat": {
                              "period": 180,
                              "periodUnit": "min",
                              "when": [
                                  "PCM"
                              ],
                              "offset": 6,
                              "boundsPeriod": {
                                  "start": "2019-11-04T13:45:00+05:30",
                                  "end": "2019-11-04T14:45:00+05:30"
                              },
                              "count": 2,
                              "duration": 1,
                              "durationUnit": "a"
                          }
                      },
                      "asNeededCodeableConcept": {
                          "text": "Its a condition text"
                      }
                  },
                  {
                      "maxDosePerPeriod": {
                          "numerator": {
                              "value": 100,
                              "unit": "mg"
                          },
                          "denominator": {
                              "value": 1,
                              "unit": "mo",
                              "system": "http://unitsofmeasure.org",
                              "code": "mo"
                          }
                      }
                  }
              ],
              "priority": "stat",
              "supportingInformation": [
                  {
                      "reference": "Organization/62996c83-212a-97b1-8d88-2ba81c9dfaf7"
                  },
                  {
                      "reference": "Device/960162f4-e8c5-e229-eb52-e6f3f6224edc"
                  },
                  {
                      "reference": "ResearchStudy/16f5c983-f4f6-d905-94ea-688e4ef9ab17"
                  },
                  {
                      "reference": "Account/8ad2f1f3-89ff-81ea-98ad-44d755fe98fe"
                  }
              ]
          },
          "request": {
              "method": "PUT",
              "url": "MedicationRequest/3b50863f-db50-f2bb-1363-647ac32cf021"
          }
      },
      {
          "fullUrl": "urn:uuid:638574f1-317e-62ce-6d88-f82d87d5f4f8",
          "resource": {
              "resourceType": "Practitioner",
              "id": "638574f1-317e-62ce-6d88-f82d87d5f4f8",
              "name": [
                  {
                      "family": "TEST ONE",
                      "given": [
                          "KEITH",
                          "BELL"
                      ]
                  }
              ]
          },
          "request": {
              "method": "PUT",
              "url": "Practitioner/638574f1-317e-62ce-6d88-f82d87d5f4f8"
          }
      },
      {
          "fullUrl": "urn:uuid:03fa7a7b-85d6-1441-9daf-e98ac7796dd2",
          "resource": {
              "resourceType": "PractitionerRole",
              "id": "03fa7a7b-85d6-1441-9daf-e98ac7796dd2",
              "code": [
                  {
                      "coding": [
                          {
                              "code": "OP",
                              "system": "http://terminology.hl7.org/CodeSystem/v2-0443",
                              "display": "Ordering Provider"
                          }
                      ]
                  }
              ],
              "practitioner": {
                  "reference": "Practitioner/638574f1-317e-62ce-6d88-f82d87d5f4f8"
              },
              "organization": {
                  "reference": "Organization/fd9422ea-c777-5e23-c4a1-f4cd7ac2c00b"
              }
          },
          "request": {
              "method": "PUT",
              "url": "PractitionerRole/03fa7a7b-85d6-1441-9daf-e98ac7796dd2"
          }
      },
      {
          "fullUrl": "urn:uuid:0085ec88-8165-d2c0-a7ff-e3f0fd8c4a67",
          "resource": {
              "resourceType": "Medication",
              "id": "0085ec88-8165-d2c0-a7ff-e3f0fd8c4a67",
              "code": {
                  "coding": [
                      {
                          "code": "0143963401",
                          "display": "200 ML BAG NICARDIPINE IN NACL (ISO-OS) 40 MG/200 ML IV PGBK",
                          "system": "http://hl7.org/fhir/sid/ndc"
                      }
                  ]
              },
              "amount": {
                  "numerator": {
                      "value": 4,
                      "unit": "Bag"
                  },
                  "denominator": {
                      "value": 1
                  }
              }
          },
          "request": {
              "method": "PUT",
              "url": "Medication/0085ec88-8165-d2c0-a7ff-e3f0fd8c4a67"
          }
      },
      {
          "fullUrl": "urn:uuid:62996c83-212a-97b1-8d88-2ba81c9dfaf7",
          "resource": {
              "resourceType": "Organization",
              "id": "62996c83-212a-97b1-8d88-2ba81c9dfaf7",
              "name": "General Medical Center"
          },
          "request": {
              "method": "PUT",
              "url": "Organization/62996c83-212a-97b1-8d88-2ba81c9dfaf7"
          }
      },
      {
          "fullUrl": "urn:uuid:f788aadd-443f-ec74-4f40-5f3d712041a2",
          "resource": {
              "resourceType": "Location",
              "id": "f788aadd-443f-ec74-4f40-5f3d712041a2",
              "name": "Street-5",
              "mode": "instance",
              "description": "Street-5--136--B--CommunityHospital--N",
              "physicalType": {
                  "coding": [
                      {
                          "system": "http://terminology.hl7.org/CodeSystem/location-physical-type",
                          "code": "lvl"
                      }
                  ]
              },
              "managingOrganization": {
                  "reference": "Organization/62996c83-212a-97b1-8d88-2ba81c9dfaf7"
              }
          },
          "request": {
              "method": "PUT",
              "url": "Location/f788aadd-443f-ec74-4f40-5f3d712041a2"
          }
      },
      {
          "fullUrl": "urn:uuid:1418fa31-f48a-9edf-f4c0-a8a2972d319a",
          "resource": {
              "resourceType": "Location",
              "id": "1418fa31-f48a-9edf-f4c0-a8a2972d319a",
              "partOf": {
                  "reference": "Location/f788aadd-443f-ec74-4f40-5f3d712041a2"
              },
              "name": "136",
              "mode": "instance",
              "description": "Street-5--136--B--CommunityHospital--N",
              "physicalType": {
                  "coding": [
                      {
                          "system": "http://terminology.hl7.org/CodeSystem/location-physical-type",
                          "code": "ro"
                      }
                  ]
              }
          },
          "request": {
              "method": "PUT",
              "url": "Location/1418fa31-f48a-9edf-f4c0-a8a2972d319a"
          }
      },
      {
          "fullUrl": "urn:uuid:d944504d-f772-1e20-6b74-44ce62896188",
          "resource": {
              "resourceType": "Location",
              "id": "d944504d-f772-1e20-6b74-44ce62896188",
              "partOf": {
                  "reference": "Location/1418fa31-f48a-9edf-f4c0-a8a2972d319a"
              },
              "name": "B",
              "mode": "instance",
              "description": "Street-5--136--B--CommunityHospital--N",
              "physicalType": {
                  "coding": [
                      {
                          "system": "http://terminology.hl7.org/CodeSystem/location-physical-type",
                          "code": "bd"
                      }
                  ]
              }
          },
          "request": {
              "method": "PUT",
              "url": "Location/d944504d-f772-1e20-6b74-44ce62896188"
          }
      },
      {
          "fullUrl": "urn:uuid:e811271f-41a0-6b14-b188-acc29aee24d2",
          "resource": {
              "resourceType": "Location",
              "id": "e811271f-41a0-6b14-b188-acc29aee24d2",
              "name": "CommunityHospital",
              "mode": "instance",
              "description": "Street-5--136--B--CommunityHospital--N",
              "physicalType": {
                  "coding": [
                      {
                          "system": "http://terminology.hl7.org/CodeSystem/location-physical-type",
                          "code": "si"
                      }
                  ]
              }
          },
          "request": {
              "method": "PUT",
              "url": "Location/e811271f-41a0-6b14-b188-acc29aee24d2"
          }
      },
      {
          "fullUrl": "urn:uuid:960162f4-e8c5-e229-eb52-e6f3f6224edc",
          "resource": {
              "resourceType": "Device",
              "id": "960162f4-e8c5-e229-eb52-e6f3f6224edc",
              "identifier": [
                  {
                      "value": "EI12.3",
                      "system": "urn:uuid:426d2726-51fc-89fe-a946-8596e80a80eb",
                      "type": {
                          "coding": [
                              {
                                  "code": "GUID",
                                  "display": "The DCE Universal Unique Identifier, in accordance with RFC 4122. Recommended format is 32 hexadecimal digits separated by hyphens, in the digit grouping 8-4-4-4-12",
                                  "system": "http://terminology.hl7.org/CodeSystem/v2-0301"
                              }
                          ]
                      }
                  },
                  {
                      "system": "urn:oid:1.3.6.1.4.1.44750.1.2.2",
                      "type": {
                          "coding": [
                              {
                                  "code": "ISO",
                                  "display": "An International Standards Organization Object Identifier (OID), in accordance with ISO/IEC 8824. Formatted as decimal digits separated by periods; recommended limit of 64 characters",
                                  "system": "http://terminology.hl7.org/CodeSystem/v2-0301"
                              }
                          ]
                      }
                  }
              ]
          },
          "request": {
              "method": "PUT",
              "url": "Device/960162f4-e8c5-e229-eb52-e6f3f6224edc"
          }
      },
      {
          "fullUrl": "urn:uuid:16f5c983-f4f6-d905-94ea-688e4ef9ab17",
          "resource": {
              "resourceType": "ResearchStudy",
              "id": "16f5c983-f4f6-d905-94ea-688e4ef9ab17",
              "status": "active",
              "identifier": [
                  {
                      "value": "RSID1234"
                  }
              ],
              "phase": {
                  "coding": [
                      {
                          "code": "1",
                          "display": "Phase_ID1",
                          "system": "http://example.com/v2-to-fhir-converter/CodeSystem/HL70396"
                      }
                  ]
              }
          },
          "request": {
              "method": "PUT",
              "url": "ResearchStudy/16f5c983-f4f6-d905-94ea-688e4ef9ab17"
          }
      },
      {
          "fullUrl": "urn:uuid:e82402a9-b2d1-2a28-3250-c099d5a77bf7",
          "resource": {
              "resourceType": "Organization",
              "id": "e82402a9-b2d1-2a28-3250-c099d5a77bf7",
              "identifier": [
                  {
                      "value": "PERSt",
                      "system": "http://example.com/v2-to-fhir-converter/Identifier/PERSt"
                  },
                  {
                      "value": "1.23",
                      "system": "http://example.com/v2-to-fhir-converter/Identifier/HCD",
                      "type": {
                          "coding": [
                              {
                                  "code": "HCD",
                                  "display": "The CEN Healthcare Coding Scheme Designator",
                                  "system": "http://terminology.hl7.org/CodeSystem/v2-0301"
                              }
                          ]
                      }
                  }
              ]
          },
          "request": {
              "method": "PUT",
              "url": "Organization/e82402a9-b2d1-2a28-3250-c099d5a77bf7"
          }
      },
      {
          "fullUrl": "urn:uuid:ce70e6c3-c190-121d-c251-e4bae5cde6a1",
          "resource": {
              "resourceType": "Practitioner",
              "id": "ce70e6c3-c190-121d-c251-e4bae5cde6a1",
              "identifier": [
                  {
                      "value": "1134",
                      "system": "http://example.com/v2-to-fhir-converter/Identifier/HCD",
                      "assigner": {
                          "reference": "Organization/e82402a9-b2d1-2a28-3250-c099d5a77bf7"
                      },
                      "type": {
                          "coding": [
                              {
                                  "code": "BR",
                                  "display": "Birth registry number",
                                  "system": "http://terminology.hl7.org/CodeSystem/v2-0203"
                              }
                          ]
                      }
                  }
              ],
              "name": [
                  {
                      "family": "Aly",
                      "given": [
                          "Zafar",
                          "Mahendra"
                      ],
                      "suffix": [
                          "JR",
                          "MD",
                          "Al"
                      ],
                      "prefix": [
                          "Dr."
                      ],
                      "period": {
                          "start": "1924-10-10",
                          "end": "1924-10-15"
                      }
                  }
              ]
          },
          "request": {
              "method": "PUT",
              "url": "Practitioner/ce70e6c3-c190-121d-c251-e4bae5cde6a1"
          }
      },
      {
          "fullUrl": "urn:uuid:88a53755-c972-6904-b4ce-8884b84ddc2e",
          "resource": {
              "resourceType": "PractitionerRole",
              "id": "88a53755-c972-6904-b4ce-8884b84ddc2e",
              "code": [
                  {
                      "coding": [
                          {
                              "code": "RO",
                              "display": "Responsible Observer",
                              "system": "http://terminology.hl7.org/CodeSystem/v2-0443"
                          }
                      ]
                  }
              ],
              "practitioner": {
                  "reference": "Practitioner/ce70e6c3-c190-121d-c251-e4bae5cde6a1"
              }
          },
          "request": {
              "method": "PUT",
              "url": "PractitionerRole/88a53755-c972-6904-b4ce-8884b84ddc2e"
          }
      },
      {
          "fullUrl": "urn:uuid:3e0952c6-eea0-8938-96f8-07c224bf1577",
          "resource": {
              "resourceType": "Practitioner",
              "id": "3e0952c6-eea0-8938-96f8-07c224bf1577",
              "identifier": [
                  {
                      "value": "2234"
                  }
              ],
              "name": [
                  {
                      "family": "Pauly",
                      "given": [
                          "Berrie",
                          "Raud"
                      ]
                  }
              ]
          },
          "request": {
              "method": "PUT",
              "url": "Practitioner/3e0952c6-eea0-8938-96f8-07c224bf1577"
          }
      },
      {
          "fullUrl": "urn:uuid:bc78e290-ec67-c238-1e05-aefb6b252b0c",
          "resource": {
              "resourceType": "PractitionerRole",
              "id": "bc78e290-ec67-c238-1e05-aefb6b252b0c",
              "code": [
                  {
                      "coding": [
                          {
                              "code": "RO",
                              "display": "Responsible Observer",
                              "system": "http://terminology.hl7.org/CodeSystem/v2-0443"
                          }
                      ]
                  }
              ],
              "practitioner": {
                  "reference": "Practitioner/3e0952c6-eea0-8938-96f8-07c224bf1577"
              }
          },
          "request": {
              "method": "PUT",
              "url": "PractitionerRole/bc78e290-ec67-c238-1e05-aefb6b252b0c"
          }
      },
      {
          "fullUrl": "urn:uuid:45f65e47-46c4-1a54-f9fb-1321258e79b2",
          "resource": {
              "resourceType": "Practitioner",
              "id": "45f65e47-46c4-1a54-f9fb-1321258e79b2",
              "identifier": [
                  {
                      "type": {
                          "coding": [
                              {
                                  "code": "MD-25"
                              }
                          ]
                      }
                  }
              ]
          },
          "request": {
              "method": "PUT",
              "url": "Practitioner/45f65e47-46c4-1a54-f9fb-1321258e79b2"
          }
      },
      {
          "fullUrl": "urn:uuid:090ea2e4-0a3a-eb7f-8f9f-16dd7d13f7f3",
          "resource": {
              "resourceType": "PractitionerRole",
              "id": "090ea2e4-0a3a-eb7f-8f9f-16dd7d13f7f3",
              "code": [
                  {
                      "coding": [
                          {
                              "code": "MDIR",
                              "display": "Medical Director",
                              "system": "http://terminology.hl7.org/CodeSystem/v2-0443"
                          }
                      ]
                  }
              ],
              "practitioner": {
                  "reference": "Practitioner/45f65e47-46c4-1a54-f9fb-1321258e79b2"
              },
              "organization": {
                  "reference": "Organization/056aa7c7-6b75-3c67-63c5-cf9604f16d25"
              }
          },
          "request": {
              "method": "PUT",
              "url": "PractitionerRole/090ea2e4-0a3a-eb7f-8f9f-16dd7d13f7f3"
          }
      },
      {
          "fullUrl": "urn:uuid:056aa7c7-6b75-3c67-63c5-cf9604f16d25",
          "resource": {
              "resourceType": "Organization",
              "id": "056aa7c7-6b75-3c67-63c5-cf9604f16d25",
              "name": "FairOaks Hspital",
              "address": [
                  {
                      "line": [
                          "Research Park",
                          "Fairfax"
                      ],
                      "city": "VA",
                      "state": "22031",
                      "postalCode": "USA"
                  }
              ]
          },
          "request": {
              "method": "PUT",
              "url": "Organization/056aa7c7-6b75-3c67-63c5-cf9604f16d25"
          }
      },
      {
          "fullUrl": "urn:uuid:a4167c6e-3a1a-c4ef-afd5-db48bca51de1",
          "resource": {
              "resourceType": "Observation",
              "id": "a4167c6e-3a1a-c4ef-afd5-db48bca51de1",
              "identifier": [
                  {
                      "value": "EI21",
                      "system": "http://example.com/v2-to-fhir-converter/Identifier/OII"
                  },
                  {
                      "type": {
                          "coding": [
                              {
                                  "code": "FILL"
                              }
                          ]
                      }
                  }
              ],
              "status": "unknown",
              "code": {
                  "coding": [
                      {
                          "code": "8867-4",
                          "display": "heartrate",
                          "system": "http://loinc.org"
                      }
                  ]
              },
              "basedOn": [
                  {
                      "reference": "MedicationRequest/3b50863f-db50-f2bb-1363-647ac32cf021"
                  }
              ],
              "component": [
                  {
                      "code": {
                          "coding": [
                              {
                                  "code": "8867-4",
                                  "display": "heartrate",
                                  "system": "http://loinc.org"
                              }
                          ]
                      },
                      "valueCodeableConcept": {
                          "coding": [
                              {
                                  "code": "160"
                              }
                          ]
                      },
                      "referenceRange": [
                          {
                              "text": "100-120"
                          }
                      ]
                  },
                  {
                      "code": {
                          "coding": [
                              {
                                  "code": "8867-4",
                                  "display": "heartrate",
                                  "system": "http://loinc.org"
                              }
                          ]
                      },
                      "valueCodeableConcept": {
                          "coding": [
                              {
                                  "code": "120"
                              }
                          ]
                      },
                      "referenceRange": [
                          {
                              "text": "100-120"
                          }
                      ]
                  }
              ],
              "effectiveDateTime": "1999-08-02",
              "method": {
                  "coding": [
                      {
                          "code": "OBS",
                          "display": "This is test method",
                          "system": "http://example.com/v2-to-fhir-converter/CodeSystem/AS4"
                      }
                  ]
              },
              "device": {
                  "reference": "Device/960162f4-e8c5-e229-eb52-e6f3f6224edc"
              },
              "bodySite": {
                  "coding": [
                      {
                          "code": "BU",
                          "display": "Observation site",
                          "system": "http://example.com/v2-to-fhir-converter/CodeSystem/E5"
                      }
                  ]
              },
              "performer": [
                  {
                      "reference": "PractitionerRole/88a53755-c972-6904-b4ce-8884b84ddc2e"
                  },
                  {
                      "reference": "PractitionerRole/bc78e290-ec67-c238-1e05-aefb6b252b0c"
                  },
                  {
                      "reference": "PractitionerRole/090ea2e4-0a3a-eb7f-8f9f-16dd7d13f7f3"
                  },
                  {
                      "reference": "Organization/34581a2c-e458-f879-0f49-09c801d2b493"
                  }
              ],
              "interpretation": [
                  {
                      "coding": [
                          {
                              "code": "A",
                              "display": "Abnormal",
                              "system": "http://terminology.hl7.org/CodeSystem/v3-ObservationInterpretation"
                          }
                      ]
                  },
                  {
                      "coding": [
                          {
                              "code": "B",
                              "display": "Better",
                              "system": "http://terminology.hl7.org/CodeSystem/v3-ObservationInterpretation"
                          }
                      ]
                  }
              ],
              "subject": {
                  "reference": "Patient/9e909e52-61a1-be50-1878-a12ef8c36346"
              },
              "extension": [
                  {
                      "url": "http://example.com/v2-to-fhir-converter/Observation_Status",
                      "valueCodeableConcept": {
                          "coding": [
                              {
                                  "code": "S",
                                  "display": "Partial",
                                  "system": "http://terminology.hl7.org/CodeSystem/v2-0085"
                              }
                          ],
                          "text": "Partial"
                      }
                  }
              ]
          },
          "request": {
              "method": "PUT",
              "url": "Observation/a4167c6e-3a1a-c4ef-afd5-db48bca51de1"
          }
      },
      {
          "fullUrl": "urn:uuid:34581a2c-e458-f879-0f49-09c801d2b493",
          "resource": {
              "resourceType": "Organization",
              "id": "34581a2c-e458-f879-0f49-09c801d2b493",
              "name": "Healthcare Centre"
          },
          "request": {
              "method": "PUT",
              "url": "Organization/34581a2c-e458-f879-0f49-09c801d2b493"
          }
      },
      {
          "fullUrl": "urn:uuid:e11b0549-fa7d-c857-0a6c-ca22a55d7935",
          "resource": {
              "resourceType": "Location",
              "id": "e11b0549-fa7d-c857-0a6c-ca22a55d7935",
              "name": "Lane 4",
              "mode": "instance",
              "description": "Lane 4--136--B--CommunityHospital--N",
              "physicalType": {
                  "coding": [
                      {
                          "system": "http://terminology.hl7.org/CodeSystem/location-physical-type",
                          "code": "lvl"
                      }
                  ]
              },
              "managingOrganization": {
                  "reference": "Organization/34581a2c-e458-f879-0f49-09c801d2b493"
              }
          },
          "request": {
              "method": "PUT",
              "url": "Location/e11b0549-fa7d-c857-0a6c-ca22a55d7935"
          }
      },
      {
          "fullUrl": "urn:uuid:82384359-d1f7-86c1-9469-aeba9eb379e5",
          "resource": {
              "resourceType": "Location",
              "id": "82384359-d1f7-86c1-9469-aeba9eb379e5",
              "partOf": {
                  "reference": "Location/e11b0549-fa7d-c857-0a6c-ca22a55d7935"
              },
              "name": "136",
              "mode": "instance",
              "description": "Lane 4--136--B--CommunityHospital--N",
              "physicalType": {
                  "coding": [
                      {
                          "system": "http://terminology.hl7.org/CodeSystem/location-physical-type",
                          "code": "ro"
                      }
                  ]
              }
          },
          "request": {
              "method": "PUT",
              "url": "Location/82384359-d1f7-86c1-9469-aeba9eb379e5"
          }
      },
      {
          "fullUrl": "urn:uuid:0019add7-1ccd-0b5a-24b7-aee0be6790dd",
          "resource": {
              "resourceType": "Location",
              "id": "0019add7-1ccd-0b5a-24b7-aee0be6790dd",
              "partOf": {
                  "reference": "Location/82384359-d1f7-86c1-9469-aeba9eb379e5"
              },
              "name": "B",
              "mode": "instance",
              "description": "Lane 4--136--B--CommunityHospital--N",
              "physicalType": {
                  "coding": [
                      {
                          "system": "http://terminology.hl7.org/CodeSystem/location-physical-type",
                          "code": "bd"
                      }
                  ]
              }
          },
          "request": {
              "method": "PUT",
              "url": "Location/0019add7-1ccd-0b5a-24b7-aee0be6790dd"
          }
      },
      {
          "fullUrl": "urn:uuid:8c3f5369-ec0a-1da3-db69-98462e5c3a09",
          "resource": {
              "resourceType": "Location",
              "id": "8c3f5369-ec0a-1da3-db69-98462e5c3a09",
              "name": "CommunityHospital",
              "mode": "instance",
              "description": "Lane 4--136--B--CommunityHospital--N",
              "physicalType": {
                  "coding": [
                      {
                          "system": "http://terminology.hl7.org/CodeSystem/location-physical-type",
                          "code": "si"
                      }
                  ]
              }
          },
          "request": {
              "method": "PUT",
              "url": "Location/8c3f5369-ec0a-1da3-db69-98462e5c3a09"
          }
      },
      {
          "fullUrl": "urn:uuid:5806cafc-b4fc-77ec-2437-52970f5f4a98",
          "resource": {
              "resourceType": "Task",
              "id": "5806cafc-b4fc-77ec-2437-52970f5f4a98",
              "intent": "order",
              "status": "requested",
              "description": "Task resource is created for RDE^O25 message to capture the intent that it is Refill Authorization Request message. Since this intent is not listed in MedicationRequest resource",
              "code": {
                  "coding": [
                      {
                          "system": "http://example.com/v2-to-fhir-converter/additional-task-code",
                          "code": "refill-authorization-request",
                          "display": "Pharmacy/Treatment Refill Authorization Request"
                      }
                  ],
                  "text": "Pharmacy/treatment refill authorization request"
              },
              "focus": {
                  "reference": "MedicationRequest/3b50863f-db50-f2bb-1363-647ac32cf021"
              },
              "for": {
                  "reference": "Patient/9e909e52-61a1-be50-1878-a12ef8c36346"
              },
              "encounter": {
                  "reference": "Encounter/4b192760-03d2-aec4-b0a6-fde323912e1e"
              }
          },
          "request": {
              "method": "PUT",
              "url": "Task/5806cafc-b4fc-77ec-2437-52970f5f4a98"
          }
      },
      {
          "fullUrl": "urn:uuid:8ad2f1f3-89ff-81ea-98ad-44d755fe98fe",
          "resource": {
              "resourceType": "Account",
              "id": "8ad2f1f3-89ff-81ea-98ad-44d755fe98fe",
              "identifier": [
                  {
                      "value": "AI167",
                      "type": {
                          "coding": [
                              {
                                  "code": "MR",
                                  "system": "http://terminology.hl7.org/CodeSystem/v2-0203",
                                  "display": "Medical record number"
                              }
                          ]
                      },
                      "system": "http://example.com/v2-to-fhir-converter/Identifier/DNS"
                  }
              ],
              "status": "active"
          },
          "request": {
              "method": "PUT",
              "url": "Account/8ad2f1f3-89ff-81ea-98ad-44d755fe98fe"
          }
      },
      {
          "fullUrl": "urn:uuid:efc256b2-6f47-d905-3279-bea236bf89bf",
          "resource": {
              "resourceType": "ChargeItem",
              "id": "efc256b2-6f47-d905-3279-bea236bf89bf",
              "status": "unknown",
              "identifier": [
                  {
                      "value": "12345",
                      "system": "http://example.com/v2-to-fhir-converter/Identifier/L",
                      "type": {
                          "coding": [
                              {
                                  "system": "http://example.com/v2-to-fhir-converter/CodeSystem/identifier-type-code",
                                  "code": "TID",
                                  "display": "ChargeItem Transaction ID"
                              }
                          ]
                      }
                  }
              ],
              "occurrenceDateTime": "2019-11-22",
              "enteredDate": "2019-11-22",
              "code": {
                  "coding": [
                      {
                          "code": "71045",
                          "display": "Xray exam chest 1 view",
                          "system": "http://www.ama-assn.org/go/cpt"
                      }
                  ]
              },
              "quantity": {
                  "value": 2
              },
              "priceOverride": {
                  "value": 100,
                  "currency": "USD"
              },
              "reason": [
                  {
                      "coding": [
                          {
                              "code": "29857009",
                              "display": "Chest pain",
                              "system": "http://snomed.info/sct"
                          }
                      ]
                  },
                  {
                      "coding": [
                          {
                              "code": "68235000",
                              "display": "Nasal congestion",
                              "system": "http://snomed.info/sct"
                          }
                      ]
                  }
              ],
              "subject": {
                  "reference": "Patient/9e909e52-61a1-be50-1878-a12ef8c36346"
              },
              "account": [
                  {
                      "reference": "Account/4ad7c7d0-b69a-0653-9ea9-0979b8a66b39"
                  },
                  {
                      "reference": "Account/8ad2f1f3-89ff-81ea-98ad-44d755fe98fe"
                  }
              ],
              "context": {
                  "reference": "Encounter/4b192760-03d2-aec4-b0a6-fde323912e1e"
              },
              "supportingInformation": [
                  {
                      "reference": "MedicationRequest/3b50863f-db50-f2bb-1363-647ac32cf021"
                  }
              ],
              "costCenter": {
                  "reference": "Organization/4082dc60-f9b6-5d4a-1ef2-5a40f7454e4b"
              },
              "performer": [
                  {
                      "actor": {
                          "reference": "Practitioner/3ec3c243-2f18-287a-4275-a062f0131a03"
                      }
                  }
              ],
              "enterer": {
                  "reference": "Practitioner/e43414a7-79a4-70bb-e4d0-245f330edfa6"
              },
              "service": [
                  {
                      "reference": "Procedure/fed47417-6454-131d-8879-aed8cafcc78b",
                      "type": "Procedure"
                  },
                  {
                      "reference": "MedicationDispense/2547c20b-a2b7-58ce-3f14-b40573fa7e83",
                      "type": "MedicationDispense"
                  }
              ],
              "performingOrganization": {
                  "reference": "Organization/3b0fa4d6-84b9-6c3e-c81d-231c9f16330a"
              },
              "requestingOrganization": {
                  "reference": "Organization/379abbe1-0596-62f8-5218-4f988127cd70"
              },
              "productReference": {
                  "reference": "Device/2676707e-6e0a-3a9d-9b51-1b035b7f5f1f"
              }
          },
          "request": {
              "method": "PUT",
              "url": "ChargeItem/efc256b2-6f47-d905-3279-bea236bf89bf"
          }
      },
      {
          "fullUrl": "urn:uuid:4082dc60-f9b6-5d4a-1ef2-5a40f7454e4b",
          "resource": {
              "resourceType": "Organization",
              "id": "4082dc60-f9b6-5d4a-1ef2-5a40f7454e4b",
              "identifier": [
                  {
                      "value": "RAD-1",
                      "system": "http://example.com/v2-to-fhir-converter/Identifier/L"
                  }
              ],
              "name": "Radiology Deptt"
          },
          "request": {
              "method": "PUT",
              "url": "Organization/4082dc60-f9b6-5d4a-1ef2-5a40f7454e4b"
          }
      },
      {
          "fullUrl": "urn:uuid:3ec3c243-2f18-287a-4275-a062f0131a03",
          "resource": {
              "resourceType": "Practitioner",
              "id": "3ec3c243-2f18-287a-4275-a062f0131a03",
              "identifier": [
                  {
                      "value": "9941339108",
                      "system": "urn:oid:2.16.840.1.113883.4.6",
                      "type": {
                          "coding": [
                              {
                                  "code": "NPI",
                                  "display": "National provider identifier",
                                  "system": "http://terminology.hl7.org/CodeSystem/v2-0203"
                              }
                          ]
                      }
                  }
              ],
              "name": [
                  {
                      "family": "Smith",
                      "given": [
                          "Adam"
                      ]
                  }
              ]
          },
          "request": {
              "method": "PUT",
              "url": "Practitioner/3ec3c243-2f18-287a-4275-a062f0131a03"
          }
      },
      {
          "fullUrl": "urn:uuid:e43414a7-79a4-70bb-e4d0-245f330edfa6",
          "resource": {
              "resourceType": "Practitioner",
              "id": "e43414a7-79a4-70bb-e4d0-245f330edfa6",
              "identifier": [
                  {
                      "value": "9941339116",
                      "system": "urn:oid:2.16.840.1.113883.4.6",
                      "type": {
                          "coding": [
                              {
                                  "code": "NPI",
                                  "display": "National provider identifier",
                                  "system": "http://terminology.hl7.org/CodeSystem/v2-0203"
                              }
                          ]
                      }
                  }
              ],
              "name": [
                  {
                      "family": "Mellie",
                      "given": [
                          "John"
                      ]
                  }
              ]
          },
          "request": {
              "method": "PUT",
              "url": "Practitioner/e43414a7-79a4-70bb-e4d0-245f330edfa6"
          }
      },
      {
          "fullUrl": "urn:uuid:fed47417-6454-131d-8879-aed8cafcc78b",
          "resource": {
              "resourceType": "Procedure",
              "id": "fed47417-6454-131d-8879-aed8cafcc78b",
              "code": {
                  "coding": [
                      {
                          "code": "71045",
                          "display": "Xray exam chest 1 view",
                          "system": "http://www.ama-assn.org/go/cpt"
                      }
                  ]
              },
              "status": "unknown",
              "subject": {
                  "reference": "Patient/9e909e52-61a1-be50-1878-a12ef8c36346"
              }
          },
          "request": {
              "method": "PUT",
              "url": "Procedure/fed47417-6454-131d-8879-aed8cafcc78b"
          }
      },
      {
          "fullUrl": "urn:uuid:2547c20b-a2b7-58ce-3f14-b40573fa7e83",
          "resource": {
              "resourceType": "MedicationDispense",
              "id": "2547c20b-a2b7-58ce-3f14-b40573fa7e83",
              "quantity": {
                  "value": 5,
                  "unit": "Capsule"
              },
              "authorizingPrescription": [
                  {
                      "identifier": {
                          "value": "PN-12345",
                          "type": {
                              "coding": [
                                  {
                                      "system": "http://example.com/v2-to-fhir-converter/CodeSystem/identifier-type-code",
                                      "code": "PRN",
                                      "display": "Prescription Number"
                                  }
                              ]
                          }
                      },
                      "type": "MedicationRequest"
                  }
              ],
              "status": "unknown",
              "subject": {
                  "reference": "Patient/9e909e52-61a1-be50-1878-a12ef8c36346"
              },
              "medicationCodeableConcept": {
                  "coding": [
                      {
                          "code": "0182-1061-05",
                          "display": "ASPIRIN EC",
                          "system": "http://hl7.org/fhir/sid/ndc"
                      }
                  ]
              }
          },
          "request": {
              "method": "PUT",
              "url": "MedicationDispense/2547c20b-a2b7-58ce-3f14-b40573fa7e83"
          }
      },
      {
          "fullUrl": "urn:uuid:3b0fa4d6-84b9-6c3e-c81d-231c9f16330a",
          "resource": {
              "resourceType": "Organization",
              "id": "3b0fa4d6-84b9-6c3e-c81d-231c9f16330a",
              "name": "Good Health Hospital",
              "identifier": [
                  {
                      "value": "544",
                      "type": {
                          "coding": [
                              {
                                  "code": "XX",
                                  "system": "http://terminology.hl7.org/CodeSystem/v2-0203"
                              }
                          ]
                      }
                  }
              ]
          },
          "request": {
              "method": "PUT",
              "url": "Organization/3b0fa4d6-84b9-6c3e-c81d-231c9f16330a"
          }
      },
      {
          "fullUrl": "urn:uuid:379abbe1-0596-62f8-5218-4f988127cd70",
          "resource": {
              "resourceType": "Organization",
              "id": "379abbe1-0596-62f8-5218-4f988127cd70",
              "name": "GOOD HEALTH HOSPITAL",
              "identifier": [
                  {
                      "value": "123456789"
                  }
              ]
          },
          "request": {
              "method": "PUT",
              "url": "Organization/379abbe1-0596-62f8-5218-4f988127cd70"
          }
      },
      {
          "fullUrl": "urn:uuid:2676707e-6e0a-3a9d-9b51-1b035b7f5f1f",
          "resource": {
              "resourceType": "Device",
              "id": "2676707e-6e0a-3a9d-9b51-1b035b7f5f1f",
              "identifier": [
                  {
                      "value": "Item-12345",
                      "system": "http://example.com/v2-to-fhir-converter/Identifier/L"
                  }
              ],
              "modelNumber": "Model-12345",
              "patient": {
                  "reference": "Patient/9e909e52-61a1-be50-1878-a12ef8c36346"
              }
          },
          "request": {
              "method": "PUT",
              "url": "Device/2676707e-6e0a-3a9d-9b51-1b035b7f5f1f"
          }
      }
  ]
}