{
    "resourceType": "Bundle",
    "type": "batch",
    "timestamp": "2021-01-15T16:20:00+02:15",
    "identifier": {
      "value": "MSG00014"
    },
    "id": "9ded1d35-26d3-a326-1f41-9ed7b458bc51",
    "entry": [
      {
        "fullUrl": "urn:uuid:0bcfd553-45fe-e480-31fe-c872804ed69a",
        "resource": {
          "resourceType": "MessageHeader",
          "id": "0bcfd553-45fe-e480-31fe-c872804ed69a",
          "source": {
            "name": "24GHH",
            "endpoint": "urn:oid:2.16.840.1.114884.10.20",
            "version": "2.4.3.52854",
            "software": "Rhapsody"
          },
          "destination": [
            {
              "name": "25GHH",
              "endpoint": "urn:oid:2.16.840.1.114884.10.23",
              "receiver": {
                "reference": "Organization/59be583f-56b6-faf0-52ba-ed27ec2132a1"
              }
            }
          ],
          "meta": {
            "security": [
              {
                "display": "SECURITY"
              }
            ],
            "tag": [
              {
                "code": "P",
                "system": "http://terminology.hl7.org/CodeSystem/v2-0103"
              }
            ]
          },
          "eventCoding": {
            "code": "I14",
            "system": "http://terminology.hl7.org/CodeSystem/v2-0003",
            "display": "REF^I14^REF_I12"
          },
          "language": "en-US",
          "sender": {
            "reference": "Organization/4356fb81-6ecd-2d70-57b1-47812638e785"
          },
          "responsible": {
            "reference": "Organization/33532a82-d220-4c0d-1abe-53e48951c201"
          }
        },
        "request": {
          "method": "PUT",
          "url": "MessageHeader/0bcfd553-45fe-e480-31fe-c872804ed69a"
        }
      },
      {
        "fullUrl": "urn:uuid:7beed73b-5c63-2f47-d793-8e393f68b681",
        "resource": {
          "resourceType": "Provenance",
          "id": "7beed73b-5c63-2f47-d793-8e393f68b681",
          "text": {
            "status": "generated",
            "div": "<div xmlns=\"http://www.w3.org/1999/xhtml\"><p><span>Resource bundle generated on 2022-03-28T09:52:28.155Z using Microsoft FHIR Converter.</span><span>Template Version: TEMPLATE_VERSION_PLACEHOLDER.</span><span>Template URL: https://github.com/microsoft/FHIR-Converter/releases/download/vTEMPLATE_VERSION_PLACEHOLDER/Hl7v2DefaultTemplates.tar.gz.</span><span>Root template: REF_I14.</span></p></div>"
          },
          "occurredDateTime": "2021-01-15T16:20:00+02:15",
          "recorded": "2021-01-15T16:20:00+02:15",
          "agent": [
            {
              "type": {
                "coding": [
                  {
                    "code": "author",
                    "system": "http://terminology.hl7.org/CodeSystem/provenance-participant-type"
                  }
                ]
              },
              "who": {
                "reference": "Organization/33532a82-d220-4c0d-1abe-53e48951c201"
              }
            }
          ],
          "activity": {
            "coding": [
              {
                "display": "REF^I14^REF_I12"
              }
            ]
          },
          "entity": [
            {
              "role": "source",
              "what": {
                "reference": "Device/358a3a4c-698d-24b2-099b-a151a23619ea"
              }
            }
          ],
          "target": [
            {
              "reference": "Bundle/9ded1d35-26d3-a326-1f41-9ed7b458bc51"
            }
          ]
        },
        "request": {
          "method": "PUT",
          "url": "Provenance/7beed73b-5c63-2f47-d793-8e393f68b681"
        }
      },
      {
        "fullUrl": "urn:uuid:4356fb81-6ecd-2d70-57b1-47812638e785",
        "resource": {
          "resourceType": "Organization",
          "id": "4356fb81-6ecd-2d70-57b1-47812638e785",
          "identifier": [
            {
              "value": "GHHSFacility",
              "system": "http://example.com/v2-to-fhir-converter/Identifier/GHHSFacility"
            },
            {
              "value": "urn:oid:2.16.840.1.122848.1.30",
              "system": "urn:ietf:rfc:3986",
              "type": {
                "coding": [
                  {
                    "code": "ISO",
                    "display": "An International Standards Organization Object Identifier (OID), in accordance with ISO/IEC 8824. Formatted as decimal digits separated by periods; recommended limit of 64 characters",
                    "system": "http://terminology.hl7.org/CodeSystem/v2-0301"
                  }
                ]
              }
            }
          ],
          "partOf": {
            "reference": "Organization/33532a82-d220-4c0d-1abe-53e48951c201"
          },
          "address": [
            {
              "country": "USA"
            }
          ]
        },
        "request": {
          "method": "PUT",
          "url": "Organization/4356fb81-6ecd-2d70-57b1-47812638e785"
        }
      },
      {
        "fullUrl": "urn:uuid:65739ce9-1766-bce1-da73-8bc2ba0385ce",
        "resource": {
          "resourceType": "Organization",
          "id": "65739ce9-1766-bce1-da73-8bc2ba0385ce",
          "identifier": [
            {
              "value": "RHHFacility",
              "system": "http://example.com/v2-to-fhir-converter/Identifier/RHHFacility"
            },
            {
              "value": "urn:oid:2.16.840.1.1122848.1.32",
              "system": "urn:ietf:rfc:3986",
              "type": {
                "coding": [
                  {
                    "code": "ISO",
                    "display": "An International Standards Organization Object Identifier (OID), in accordance with ISO/IEC 8824. Formatted as decimal digits separated by periods; recommended limit of 64 characters",
                    "system": "http://terminology.hl7.org/CodeSystem/v2-0301"
                  }
                ]
              }
            }
          ],
          "partOf": {
            "reference": "Organization/59be583f-56b6-faf0-52ba-ed27ec2132a1"
          },
          "address": [
            {
              "country": "USA"
            }
          ]
        },
        "request": {
          "method": "PUT",
          "url": "Organization/65739ce9-1766-bce1-da73-8bc2ba0385ce"
        }
      },
      {
        "fullUrl": "urn:uuid:33532a82-d220-4c0d-1abe-53e48951c201",
        "resource": {
          "resourceType": "Organization",
          "id": "33532a82-d220-4c0d-1abe-53e48951c201",
          "name": "22 GHH Inc."
        },
        "request": {
          "method": "PUT",
          "url": "Organization/33532a82-d220-4c0d-1abe-53e48951c201"
        }
      },
      {
        "fullUrl": "urn:uuid:59be583f-56b6-faf0-52ba-ed27ec2132a1",
        "resource": {
          "resourceType": "Organization",
          "id": "59be583f-56b6-faf0-52ba-ed27ec2132a1",
          "name": "23 RHH Inc."
        },
        "request": {
          "method": "PUT",
          "url": "Organization/59be583f-56b6-faf0-52ba-ed27ec2132a1"
        }
      },
      {
        "fullUrl": "urn:uuid:358a3a4c-698d-24b2-099b-a151a23619ea",
        "resource": {
          "resourceType": "Device",
          "id": "358a3a4c-698d-24b2-099b-a151a23619ea",
          "identifier": [
            {
              "value": "GHH"
            }
          ]
        },
        "request": {
          "method": "PUT",
          "url": "Device/358a3a4c-698d-24b2-099b-a151a23619ea"
        }
      },
      {
        "fullUrl": "urn:uuid:4b549918-a84d-cdaf-e150-c773a5d306e5",
        "resource": {
          "resourceType": "Device",
          "id": "4b549918-a84d-cdaf-e150-c773a5d306e5",
          "manufacturer": "Orion Health",
          "deviceName": [
            {
              "name": "Rhapsody",
              "type": "manufacturer-name"
            }
          ],
          "version": [
            {
              "value": "2.4.3.52854"
            }
          ],
          "modelNumber": "2.4.3.52854",
          "note": [
            {
              "text": "RAP234 Text"
            }
          ]
        },
        "request": {
          "method": "PUT",
          "url": "Device/4b549918-a84d-cdaf-e150-c773a5d306e5"
        }
      },
      {
        "fullUrl": "urn:uuid:80ff74d2-6469-90ca-3a77-3574d4c04598",
        "resource": {
          "resourceType": "Organization",
          "id": "80ff74d2-6469-90ca-3a77-3574d4c04598",
          "name": "Radiant Health Hospital"
        },
        "request": {
          "method": "PUT",
          "url": "Organization/80ff74d2-6469-90ca-3a77-3574d4c04598"
        }
      },
      {
        "fullUrl": "urn:uuid:e5175c8f-a538-de38-de67-e60dd1974cd5",
        "resource": {
          "resourceType": "Practitioner",
          "id": "e5175c8f-a538-de38-de67-e60dd1974cd5",
          "identifier": [
            {
              "value": "12131",
              "system": "http://example.com/v2-to-fhir-converter/Identifier/L",
              "type": {
                "coding": [
                  {
                    "code": "DN",
                    "display": "Doctor number",
                    "system": "http://terminology.hl7.org/CodeSystem/v2-0203"
                  }
                ]
              }
            }
          ],
          "name": [
            {
              "family": "McWilliams",
              "given": [
                "Paul",
                "H"
              ],
              "suffix": [
                "IV",
                "MD"
              ],
              "prefix": [
                "Dr"
              ],
              "use": "official"
            }
          ]
        },
        "request": {
          "method": "PUT",
          "url": "Practitioner/e5175c8f-a538-de38-de67-e60dd1974cd5"
        }
      },
      {
        "fullUrl": "urn:uuid:0dde495c-51b7-d47f-febd-19d8e4e764db",
        "resource": {
          "resourceType": "ServiceRequest",
          "id": "0dde495c-51b7-d47f-febd-19d8e4e764db",
          "status": "entered-in-error",
          "intent": "order",
          "identifier": [
            {
              "value": "226839",
              "system": "http://example.com/v2-to-fhir-converter/Identifier/EPIC"
            },
            {
              "value": "11001",
              "system": "http://example.com/v2-to-fhir-converter/Identifier/EXTID"
            }
          ],
          "category": [
            {
              "coding": [
                {
                  "system": "http://example.com/v2-to-fhir-converter/CodeSystem/additional-service-request-category-codes",
                  "code": "patient-referral-request",
                  "display": "Patient Referral Request"
                }
              ]
            },
            {
              "coding": [
                {
                  "code": "Med",
                  "display": "Medical",
                  "system": "http://example.com/v2-to-fhir-converter/CodeSystem/HL70281"
                }
              ]
            }
          ],
          "authoredOn": "2022-01-25",
          "performer": [
            {
              "reference": "Organization/80ff74d2-6469-90ca-3a77-3574d4c04598"
            },
            {
              "reference": "Practitioner/e5175c8f-a538-de38-de67-e60dd1974cd5"
            },
            {
              "reference": "PractitionerRole/51be9b51-6b32-13cf-3375-c6e493fccca1"
            }
          ],
          "locationCode": [
            {
              "coding": [
                {
                  "code": "I",
                  "display": "Inpatient",
                  "system": "http://example.com/v2-to-fhir-converter/CodeSystem/HL70284"
                }
              ]
            }
          ],
          "note": [
            {
              "text": "Referral to Specialist"
            },
            {
              "text": "Laboratoy test"
            }
          ],
          "occurrencePeriod": {
            "start": "2022-01-25",
            "end": "2022-02-10"
          },
          "priority": "routine",
          "reasonCode": [
            {
              "coding": [
                {
                  "code": "O",
                  "display": "Provider Ordered",
                  "system": "http://example.com/v2-to-fhir-converter/CodeSystem/HL70336"
                }
              ]
            }
          ],
          "subject": {
            "reference": "Patient/d5fe6802-a680-e762-8f43-9659340b00ac"
          },
          "encounter": {
            "reference": "Encounter/19f93d0c-778a-6a5d-4816-504675827c1e"
          },
          "requester": {
            "reference": "PractitionerRole/e2c956ec-0fec-19c6-ec84-91181e279d6b"
          }
        },
        "request": {
          "method": "PUT",
          "url": "ServiceRequest/0dde495c-51b7-d47f-febd-19d8e4e764db"
        }
      },
      {
        "fullUrl": "urn:uuid:46765d70-64d5-efcc-85eb-e193815b0869",
        "resource": {
          "resourceType": "Organization",
          "id": "46765d70-64d5-efcc-85eb-e193815b0869",
          "name": "HIIC(MI State Code)"
        },
        "request": {
          "method": "PUT",
          "url": "Organization/46765d70-64d5-efcc-85eb-e193815b0869"
        }
      },
      {
        "fullUrl": "urn:uuid:60ac8214-50fb-b39b-8481-1e7ed7376b91",
        "resource": {
          "resourceType": "ClaimResponse",
          "id": "60ac8214-50fb-b39b-8481-1e7ed7376b91",
          "identifier": [
            {
              "value": "HL71001111111111"
            }
          ],
          "status": "active",
          "use": "preauthorization",
          "created": "2022-02-10",
          "outcome": "complete",
          "item": [
            {
              "itemSequence": 1,
              "adjudication": [
                {
                  "value": 1,
                  "category": {
                    "coding": [
                      {
                        "code": "RNT",
                        "display": "Requested Number of Treatments",
                        "system": "http://example.com/v2-to-fhir-converter/CodeSystem/additional-adjudication"
                      }
                    ]
                  }
                },
                {
                  "value": 1,
                  "category": {
                    "coding": [
                      {
                        "code": "ANT",
                        "display": "Authorized Number of Treatments",
                        "system": "http://example.com/v2-to-fhir-converter/CodeSystem/additional-adjudication"
                      }
                    ]
                  }
                }
              ]
            }
          ],
          "total": [
            {
              "category": {
                "coding": [
                  {
                    "code": "benefit",
                    "display": "Benefit Amount",
                    "system": "http://terminology.hl7.org/CodeSystem/adjudication"
                  }
                ]
              },
              "amount": {
                "value": 175
              }
            },
            {
              "category": {
                "coding": [
                  {
                    "code": "benefit",
                    "display": "Benefit Amount",
                    "system": "http://terminology.hl7.org/CodeSystem/adjudication"
                  }
                ]
              },
              "amount": {
                "value": 200
              }
            }
          ],
          "preAuthPeriod": {
            "start": "2022-01-10",
            "end": "2022-02-10"
          },
          "processNote": [
            {
              "text": "comment"
            }
          ],
          "insurer": {
            "reference": "Organization/04a2a5f2-c971-1e42-e788-250ea487a889"
          },
          "patient": {
            "reference": "Patient/d5fe6802-a680-e762-8f43-9659340b00ac"
          },
          "type": {
            "coding": [
              {
                "code": "institutional",
                "display": "Instutional",
                "system": "http://terminology.hl7.org/CodeSystem/claim-type"
              }
            ]
          }
        },
        "request": {
          "method": "PUT",
          "url": "ClaimResponse/60ac8214-50fb-b39b-8481-1e7ed7376b91"
        }
      },
      {
        "fullUrl": "urn:uuid:61dd51ff-9cba-201f-8455-e33b8f0fa28b",
        "resource": {
          "resourceType": "Organization",
          "id": "61dd51ff-9cba-201f-8455-e33b8f0fa28b",
          "name": "HIIC(MI State Code)"
        },
        "request": {
          "method": "PUT",
          "url": "Organization/61dd51ff-9cba-201f-8455-e33b8f0fa28b"
        }
      },
      {
        "fullUrl": "urn:uuid:d5fe6802-a680-e762-8f43-9659340b00ac",
        "resource": {
          "resourceType": "Patient",
          "id": "d5fe6802-a680-e762-8f43-9659340b00ac",
          "identifier": [
            {
              "value": "PATID1234",
              "type": {
                "coding": [
                  {
                    "code": "GOOD HEALTH HOSPITAL",
                    "display": "GOOD HEALTH HOSPITAL"
                  }
                ]
              },
              "system": "http://example.com/v2-to-fhir-converter/Identifier/ADT1"
            },
            {
              "value": "123456789"
            },
            {
              "value": "220917255",
              "type": {
                "coding": [
                  {
                    "code": "SB",
                    "system": "http://terminology.hl7.org/CodeSystem/v2-0203"
                  }
                ]
              },
              "system": "http://hl7.org/fhir/sid/us-ssn"
            },
            {
              "value": "DL",
              "type": {
                "coding": [
                  {
                    "code": "DL"
                  }
                ]
              },
              "system": "http://example.com/v2-to-fhir-converter/CodeSystem/T05349638"
            },
            {
              "value": "Medicare-12345",
              "type": {
                "coding": [
                  {
                    "code": "MC",
                    "display": "Patient's Medicare number",
                    "system": "http://terminology.hl7.org/CodeSystem/v2-0203"
                  }
                ]
              },
              "system": "http://hl7.org/fhir/sid/us-medicare"
            },
            {
              "value": "MI-12345",
              "type": {
                "coding": [
                  {
                    "code": "MI",
                    "display": "Military ID number",
                    "system": "http://terminology.hl7.org/CodeSystem/v2-0203"
                  }
                ]
              },
              "system": "http://example.com/v2-to-fhir-converter/sid/us-military"
            },
            {
              "value": "MB-12345",
              "type": {
                "coding": [
                  {
                    "code": "MB",
                    "system": "http://terminology.hl7.org/CodeSystem/v2-0203",
                    "display": "Member Number"
                  }
                ]
              },
              "system": "urn:oid:2.16.840.1.113883.1.5"
            }
          ],
          "name": [
            {
              "family": "EVERYMAN",
              "given": [
                "ADAM",
                "A"
              ],
              "suffix": [
                "III"
              ]
            },
            {
              "family": "SMITH",
              "given": [
                "JOHN"
              ]
            }
          ],
          "birthDate": "1961-06-15",
          "gender": "male",
          "address": [
            {
              "line": [
                "115 MAINSTREET"
              ],
              "city": "GOODTOWN",
              "state": "KY",
              "postalCode": "42010",
              "country": "USA"
            }
          ],
          "telecom": [
            {
              "use": "home",
              "system": "phone"
            },
            {
              "value": "89898989",
              "use": "work",
              "system": "email"
            }
          ],
          "communication": [
            {
              "language": {
                "coding": [
                  {
                    "code": "EN",
                    "display": "ENGLISH",
                    "system": "http://example.com/v2-to-fhir-converter/CodeSystem/HL70296"
                  }
                ]
              },
              "preferred": true
            }
          ],
          "maritalStatus": {
            "coding": [
              {
                "code": "M",
                "display": "Married",
                "system": "http://terminology.hl7.org/CodeSystem/v3-MaritalStatus"
              }
            ]
          },
          "multipleBirthInteger": 1,
          "deceasedBoolean": false,
          "meta": {
            "lastUpdated": "2021-01-10T01:50:14+03:15"
          },
          "extension": [
            {
              "url": "http://hl7.org/fhir/us/core/StructureDefinition/us-core-race",
              "extension": [
                {
                  "url": "ombCategory",
                  "valueCoding": {
                    "code": "2106-3",
                    "display": "White",
                    "system": "urn:oid:2.16.840.1.113883.6.238"
                  }
                },
                {
                  "url": "text",
                  "valueString": "White"
                }
              ]
            },
            {
              "url": "http://hl7.org/fhir/StructureDefinition/patient-mothersMaidenName",
              "valueString": "Davis"
            },
            {
              "url": "http://hl7.org/fhir/StructureDefinition/patient-birthPlace",
              "valueAddress": {
                "text": "St. Francis Community Hospital of Lower South Side"
              }
            },
            {
              "url": "http://hl7.org/fhir/StructureDefinition/patient-religion",
              "valueCodeableConcept": {
                "coding": [
                  {
                    "code": "1009",
                    "display": "Baptist",
                    "system": "http://terminology.hl7.org/CodeSystem/v3-ReligiousAffiliation"
                  }
                ]
              }
            },
            {
              "url": "http://hl7.org/fhir/us/core/StructureDefinition/us-core-ethnicity",
              "extension": [
                {
                  "url": "ombCategory",
                  "valueCoding": {
                    "code": "2186-5",
                    "display": "Non Hispanic or Latino",
                    "system": "urn:oid:2.16.840.1.113883.6.238"
                  }
                },
                {
                  "url": "text",
                  "valueString": "Non Hispanic or Latino"
                }
              ]
            },
            {
              "url": "http://hl7.org/fhir/StructureDefinition/patient-citizenship",
              "extension": [
                {
                  "url": "code",
                  "valueCodeableConcept": {
                    "coding": [
                      {
                        "code": "US",
                        "display": "United States of America",
                        "system": "urn:iso:std:iso:3166"
                      }
                    ],
                    "text": "United States of America"
                  }
                }
              ]
            }
          ],
          "contact": [
            {
              "organization": {
                "reference": "Organization/9cfda40d-ffa1-3bb5-2627-0c0cb5825847"
              }
            },
            {
              "name": {
                "family": "DOE",
                "given": [
                  "MARY"
                ]
              },
              "address": {
                "line": [
                  "115 MAINSTREET"
                ],
                "city": "GOODTOWN",
                "state": "KY",
                "postalCode": "42010",
                "country": "USA"
              },
              "telecom": [
                {
                  "value": "(555) 555-2004",
                  "system": "phone",
                  "use": "home"
                },
                {
                  "value": "(555)555-2005",
                  "system": "phone",
                  "use": "work"
                },
                {
                  "value": "5493275904",
                  "system": "phone"
                },
                {
                  "value": "5492308914",
                  "system": "phone"
                }
              ],
              "period": {
                "start": "2021-01-01",
                "end": "2021-02-01"
              },
              "gender": "female"
            }
          ]
        },
        "request": {
          "method": "PUT",
          "url": "Patient/d5fe6802-a680-e762-8f43-9659340b00ac"
        }
      },
      {
        "fullUrl": "urn:uuid:56779f55-71e5-4933-f29e-b0105da7dce2",
        "resource": {
          "resourceType": "Location",
          "id": "56779f55-71e5-4933-f29e-b0105da7dce2",
          "name": "GENERAL FACILITY",
          "mode": "instance",
          "description": "GENERAL FACILITY--GHH MEDICAL CENTER",
          "physicalType": {
            "coding": [
              {
                "system": "http://terminology.hl7.org/CodeSystem/location-physical-type",
                "code": "si"
              }
            ]
          }
        },
        "request": {
          "method": "PUT",
          "url": "Location/56779f55-71e5-4933-f29e-b0105da7dce2"
        }
      },
      {
        "fullUrl": "urn:uuid:0ff51001-d32b-6524-e347-200aa293343d",
        "resource": {
          "resourceType": "Practitioner",
          "id": "0ff51001-d32b-6524-e347-200aa293343d",
          "identifier": [
            {
              "value": "PLN1001",
              "type": {
                "coding": [
                  {
                    "code": "SL",
                    "display": "State license number",
                    "system": "http://terminology.hl7.org/CodeSystem/v2-0203"
                  }
                ]
              },
              "period": {
                "end": "2024-01-12"
              }
            }
          ],
          "address": [
            {
              "line": [
                "1031 HEALTHCARE DRIVE"
              ],
              "city": "ANN ARBOR",
              "state": "MI",
              "postalCode": "99999"
            }
          ],
          "telecom": [
            {
              "value": "(626)555-1234",
              "use": "work",
              "system": "phone"
            }
          ],
          "name": [
            {
              "family": "POWELL",
              "given": [
                "ROBERT"
              ],
              "suffix": [
                "MD"
              ],
              "prefix": [
                "DR"
              ]
            }
          ]
        },
        "request": {
          "method": "PUT",
          "url": "Practitioner/0ff51001-d32b-6524-e347-200aa293343d"
        }
      },
      {
        "fullUrl": "urn:uuid:2d7d77cd-0ca7-13a5-c9ed-6e70b739adb4",
        "resource": {
          "resourceType": "Organization",
          "id": "2d7d77cd-0ca7-13a5-c9ed-6e70b739adb4",
          "name": "GOOD HEALTH HOSPITAL",
          "address": [
            {
              "line": [
                "1031 HEALTHCARE DRIVE"
              ],
              "city": "ANN ARBOR",
              "state": "MI",
              "postalCode": "99999"
            }
          ],
          "telecom": [
            {
              "value": "(626)555-7889",
              "use": "work",
              "system": "phone"
            }
          ]
        },
        "request": {
          "method": "PUT",
          "url": "Organization/2d7d77cd-0ca7-13a5-c9ed-6e70b739adb4"
        }
      },
      {
        "fullUrl": "urn:uuid:e2c956ec-0fec-19c6-ec84-91181e279d6b",
        "resource": {
          "resourceType": "PractitionerRole",
          "id": "e2c956ec-0fec-19c6-ec84-91181e279d6b",
          "code": [
            {
              "coding": [
                {
                  "code": "RP",
                  "display": "Referring Provider",
                  "system": "http://terminology.hl7.org/CodeSystem/v2-0443"
                }
              ]
            }
          ],
          "period": {
            "start": "2020-01-12",
            "end": "2024-01-12"
          },
          "location": [
            {
              "reference": "Location/56779f55-71e5-4933-f29e-b0105da7dce2"
            }
          ],
          "practitioner": {
            "reference": "Practitioner/0ff51001-d32b-6524-e347-200aa293343d"
          },
          "organization": {
            "reference": "Organization/2d7d77cd-0ca7-13a5-c9ed-6e70b739adb4"
          }
        },
        "request": {
          "method": "PUT",
          "url": "PractitionerRole/e2c956ec-0fec-19c6-ec84-91181e279d6b"
        }
      },
      {
        "fullUrl": "urn:uuid:80e01bb0-7b6f-5486-f099-86382c021ee0",
        "resource": {
          "resourceType": "Location",
          "id": "80e01bb0-7b6f-5486-f099-86382c021ee0",
          "name": "GI FACILITY",
          "mode": "instance",
          "description": "GI FACILITY--RHH MEDICAL CENTER",
          "physicalType": {
            "coding": [
              {
                "system": "http://terminology.hl7.org/CodeSystem/location-physical-type",
                "code": "si"
              }
            ]
          }
        },
        "request": {
          "method": "PUT",
          "url": "Location/80e01bb0-7b6f-5486-f099-86382c021ee0"
        }
      },
      {
        "fullUrl": "urn:uuid:9829051d-24ef-208a-c2ff-6073e176feab",
        "resource": {
          "resourceType": "Practitioner",
          "id": "9829051d-24ef-208a-c2ff-6073e176feab",
          "identifier": [
            {
              "value": "PLN5010",
              "type": {
                "coding": [
                  {
                    "code": "SL",
                    "display": "State license number",
                    "system": "http://terminology.hl7.org/CodeSystem/v2-0203"
                  }
                ]
              },
              "period": {
                "end": "2024-10-12"
              }
            }
          ],
          "address": [
            {
              "line": [
                "2000 PARK AVENUE"
              ],
              "city": "ANN ARBOR",
              "state": "MI",
              "postalCode": "99999"
            }
          ],
          "telecom": [
            {
              "value": "(626)555-5678",
              "use": "work",
              "system": "phone"
            }
          ],
          "name": [
            {
              "family": "McWILLIAMS",
              "given": [
                "PAUL"
              ],
              "suffix": [
                "MD"
              ],
              "prefix": [
                "DR"
              ]
            }
          ]
        },
        "request": {
          "method": "PUT",
          "url": "Practitioner/9829051d-24ef-208a-c2ff-6073e176feab"
        }
      },
      {
        "fullUrl": "urn:uuid:3aaaa5e2-17a8-41de-24e5-61ae935fd401",
        "resource": {
          "resourceType": "Organization",
          "id": "3aaaa5e2-17a8-41de-24e5-61ae935fd401",
          "name": "RADIANT HEALTH HOSPITAL",
          "address": [
            {
              "line": [
                "555 HEALTHCARE AVENUE"
              ],
              "city": "ANN ARBOR",
              "state": "MI",
              "postalCode": "99999"
            }
          ],
          "telecom": [
            {
              "value": "(426)545-9881",
              "use": "work",
              "system": "phone"
            }
          ]
        },
        "request": {
          "method": "PUT",
          "url": "Organization/3aaaa5e2-17a8-41de-24e5-61ae935fd401"
        }
      },
      {
        "fullUrl": "urn:uuid:51be9b51-6b32-13cf-3375-c6e493fccca1",
        "resource": {
          "resourceType": "PractitionerRole",
          "id": "51be9b51-6b32-13cf-3375-c6e493fccca1",
          "code": [
            {
              "coding": [
                {
                  "code": "RT",
                  "display": "Referred To Provider",
                  "system": "http://terminology.hl7.org/CodeSystem/v2-0443"
                }
              ]
            }
          ],
          "period": {
            "start": "2020-10-12",
            "end": "2024-10-12"
          },
          "location": [
            {
              "reference": "Location/80e01bb0-7b6f-5486-f099-86382c021ee0"
            }
          ],
          "practitioner": {
            "reference": "Practitioner/9829051d-24ef-208a-c2ff-6073e176feab"
          },
          "organization": {
            "reference": "Organization/3aaaa5e2-17a8-41de-24e5-61ae935fd401"
          }
        },
        "request": {
          "method": "PUT",
          "url": "PractitionerRole/51be9b51-6b32-13cf-3375-c6e493fccca1"
        }
      },
      {
        "fullUrl": "urn:uuid:4d89d103-815b-6284-c821-c995368a2aeb",
        "resource": {
          "resourceType": "Account",
          "id": "4d89d103-815b-6284-c821-c995368a2aeb",
          "identifier": [
            {
              "value": "PACCT110"
            }
          ],
          "status": "active",
          "subject": [
            {
              "reference": "Patient/d5fe6802-a680-e762-8f43-9659340b00ac"
            }
          ],
          "guarantor": [
            {
              "party": {
                "reference": "RelatedPerson/46749e7e-ddd5-a30c-2017-f63330154145"
              },
              "onHold": false,
              "period": {
                "start": "2016-01-01"
              }
            }
          ],
          "coverage": [
            {
              "coverage": {
                "reference": "Coverage/dfab6985-a691-c4f5-d2b2-6481fdfd59e4"
              }
            }
          ]
        },
        "request": {
          "method": "PUT",
          "url": "Account/4d89d103-815b-6284-c821-c995368a2aeb"
        }
      },
      {
        "fullUrl": "urn:uuid:46749e7e-ddd5-a30c-2017-f63330154145",
        "resource": {
          "resourceType": "RelatedPerson",
          "id": "46749e7e-ddd5-a30c-2017-f63330154145",
          "identifier": [
            {
              "value": "1516"
            },
            {
              "value": "19290207"
            },
            {
              "value": "2245367687",
              "type": {
                "coding": [
                  {
                    "code": "SB",
                    "system": "http://terminology.hl7.org/CodeSystem/v2-0203",
                    "display": "Social Beneficiary Identifier"
                  }
                ]
              },
              "system": "http://hl7.org/fhir/sid/us-ssn"
            }
          ],
          "relationship": [
            {
              "coding": [
                {
                  "code": "MOT",
                  "display": "MOT"
                }
              ]
            }
          ],
          "address": [
            {
              "line": [
                "1619 SOUTH UNIVERSITY"
              ],
              "city": "MADISON",
              "state": "WI",
              "postalCode": "53703",
              "country": "US"
            }
          ],
          "telecom": [
            {
              "value": "(608)251-7777",
              "system": "phone",
              "use": "home"
            },
            {
              "value": "(608)2517777",
              "system": "phone",
              "use": "work"
            }
          ],
          "name": [
            {
              "family": "RADIANT",
              "given": [
                "LUCY"
              ]
            }
          ],
          "gender": "female",
          "birthDate": "2001-04-12",
          "patient": {
            "reference": "Patient/d5fe6802-a680-e762-8f43-9659340b00ac"
          }
        },
        "request": {
          "method": "PUT",
          "url": "RelatedPerson/46749e7e-ddd5-a30c-2017-f63330154145"
        }
      },
      {
        "fullUrl": "urn:uuid:9cfda40d-ffa1-3bb5-2627-0c0cb5825847",
        "resource": {
          "resourceType": "Organization",
          "id": "9cfda40d-ffa1-3bb5-2627-0c0cb5825847",
          "name": "Bull Run Family Practice",
          "contact": [
            {
              "name": {
                "family": "Smith",
                "given": [
                  "John",
                  "L"
                ]
              },
              "telecom": [
                {
                  "value": "5426387999",
                  "system": "phone"
                }
              ],
              "address": {
                "line": [
                  "115 MAINSTREET"
                ],
                "city": "GOODTOWN",
                "state": "KY",
                "postalCode": "42010",
                "country": "USA"
              }
            }
          ]
        },
        "request": {
          "method": "PUT",
          "url": "Organization/9cfda40d-ffa1-3bb5-2627-0c0cb5825847"
        }
      },
      {
        "fullUrl": "urn:uuid:78fca696-5142-59aa-cf2b-c4a4bd7c69cc",
        "resource": {
          "resourceType": "RelatedPerson",
          "id": "78fca696-5142-59aa-cf2b-c4a4bd7c69cc",
          "relationship": [
            {
              "coding": [
                {
                  "code": "MTH",
                  "display": "mother",
                  "system": "http://terminology.hl7.org/CodeSystem/v3-RoleCode"
                }
              ]
            }
          ],
          "period": {
            "start": "2021-01-01",
            "end": "2021-02-01"
          },
          "address": [
            {
              "line": [
                "115 MAINSTREET"
              ],
              "city": "GOODTOWN",
              "state": "KY",
              "postalCode": "42010",
              "country": "USA"
            },
            {
              "line": [
                "115 MAINSTREET"
              ],
              "city": "GOODTOWN",
              "state": "KY",
              "postalCode": "42010",
              "country": "USA"
            }
          ],
          "telecom": [
            {
              "value": "(555) 555-2004",
              "system": "phone"
            },
            {
              "value": "(555)555-2005",
              "system": "phone",
              "use": "work"
            },
            {
              "value": "5426387999",
              "system": "phone"
            },
            {
              "value": "5493275904",
              "system": "phone"
            },
            {
              "value": "5492308914",
              "system": "phone"
            }
          ],
          "name": [
            {
              "family": "DOE",
              "given": [
                "MARY"
              ]
            },
            {
              "family": "Smith",
              "given": [
                "John",
                "L"
              ]
            }
          ],
          "gender": "female",
          "patient": {
            "reference": "Patient/d5fe6802-a680-e762-8f43-9659340b00ac"
          }
        },
        "request": {
          "method": "PUT",
          "url": "RelatedPerson/78fca696-5142-59aa-cf2b-c4a4bd7c69cc"
        }
      },
      {
        "fullUrl": "urn:uuid:dfab6985-a691-c4f5-d2b2-6481fdfd59e4",
        "resource": {
          "resourceType": "Coverage",
          "id": "dfab6985-a691-c4f5-d2b2-6481fdfd59e4",
          "class": [
            {
              "value": "BAV",
              "name": "Blue Advantage HMO",
              "type": {
                "coding": [
                  {
                    "system": "http://terminology.hl7.org/CodeSystem/coverage-class",
                    "code": "plan",
                    "display": "Plan"
                  }
                ]
              }
            },
            {
              "value": "Grp-12345",
              "name": "BCBS HMO",
              "type": {
                "coding": [
                  {
                    "system": "http://terminology.hl7.org/CodeSystem/coverage-class",
                    "code": "group",
                    "display": "Group"
                  }
                ]
              }
            }
          ],
          "network": "Blue Advantage HMO",
          "period": {
            "start": "1998-11-01"
          },
          "type": {
            "coding": [
              {
                "code": "HMO",
                "display": "health maintenance organization policy",
                "system": "http://terminology.hl7.org/CodeSystem/v3-ActCode"
              }
            ]
          },
          "identifier": [
            {
              "value": "548851236L",
              "type": {
                "coding": [
                  {
                    "code": "PLN",
                    "display": "Policy Number",
                    "system": "http://example.com/CodeSystem/additional-identifier"
                  }
                ]
              },
              "system": "http://example.com/v2-to-fhir-converter/Identifier/policy-id"
            },
            {
              "value": "Medicare-12345",
              "type": {
                "coding": [
                  {
                    "code": "MC",
                    "display": "Patient's Medicare number",
                    "system": "http://terminology.hl7.org/CodeSystem/v2-0203"
                  }
                ]
              },
              "system": "http://hl7.org/fhir/sid/us-medicare"
            },
            {
              "value": "MB-12345",
              "type": {
                "coding": [
                  {
                    "code": "MB",
                    "system": "http://terminology.hl7.org/CodeSystem/v2-0203",
                    "display": "Member Number"
                  }
                ]
              },
              "system": "urn:oid:2.16.840.1.113883.1.5"
            }
          ],
          "costToBeneficiary": [
            {
              "type": {
                "coding": [
                  {
                    "code": "DC",
                    "display": "direct unit cost",
                    "system": "http://terminology.hl7.org/CodeSystem/v2-0205"
                  }
                ]
              },
              "valueMoney": {
                "value": 150,
                "currency": "USD"
              }
            }
          ],
          "subscriberId": "HMO-12345",
          "status": "active",
          "beneficiary": {
            "reference": "Patient/d5fe6802-a680-e762-8f43-9659340b00ac"
          },
          "payor": [
            {
              "reference": "Organization/04a2a5f2-c971-1e42-e788-250ea487a889"
            }
          ],
          "policyHolder": {
            "reference": "Organization/0f21af2c-9880-54cb-14a5-5493a766da42"
          },
          "subscriber": {
            "reference": "RelatedPerson/86ff0da6-ff14-ac7d-679e-94ac8e8c3a55"
          },
          "relationship": {
            "coding": [
              {
                "code": "spouse",
                "display": "Spouse",
                "system": "http://terminology.hl7.org/CodeSystem/subscriber-relationship"
              }
            ]
          }
        },
        "request": {
          "method": "PUT",
          "url": "Coverage/dfab6985-a691-c4f5-d2b2-6481fdfd59e4"
        }
      },
      {
        "fullUrl": "urn:uuid:04a2a5f2-c971-1e42-e788-250ea487a889",
        "resource": {
          "resourceType": "Organization",
          "id": "04a2a5f2-c971-1e42-e788-250ea487a889",
          "address": [
            {
              "line": [
                "1979 MILKY WAY"
              ],
              "city": "VERONA",
              "state": "WI",
              "postalCode": "53593",
              "country": "US"
            }
          ],
          "contact": [
            {
              "name": {
                "family": "Roger",
                "given": [
                  "Dann"
                ]
              }
            }
          ],
          "telecom": [
            {
              "value": "(555)555-5555",
              "system": "phone"
            }
          ],
          "identifier": [
            {
              "value": "Org-12345",
              "type": {
                "coding": [
                  {
                    "code": "NIIP",
                    "system": "http://terminology.hl7.org/CodeSystem/v2-0203",
                    "display": "National Insurance Payor Identifier (Payor)"
                  }
                ]
              },
              "system": "urn:oid:2.16.840.1.113883.1.1"
            }
          ],
          "name": "Blue Cross Blue Shield of Texas"
        },
        "request": {
          "method": "PUT",
          "url": "Organization/04a2a5f2-c971-1e42-e788-250ea487a889"
        }
      },
      {
        "fullUrl": "urn:uuid:0f21af2c-9880-54cb-14a5-5493a766da42",
        "resource": {
          "resourceType": "Organization",
          "id": "0f21af2c-9880-54cb-14a5-5493a766da42",
          "address": [
            {
              "line": [
                "2000 MILKY WAY"
              ],
              "city": "VERONA",
              "state": "WI",
              "postalCode": "53593",
              "country": "US"
            }
          ],
          "identifier": [
            {
              "value": "Tel-12345",
              "type": {
                "coding": [
                  {
                    "code": "EN",
                    "system": "http://terminology.hl7.org/CodeSystem/v2-0203",
                    "display": "Employer number"
                  }
                ]
              },
              "system": "urn:oid:2.16.840.1.113883.1.2"
            }
          ],
          "name": "Telstra",
          "contact": [
            {
              "name": {
                "family": "Richard",
                "given": [
                  "Paul"
                ]
              },
              "telecom": [
                {
                  "value": "(555)555-1234",
                  "system": "phone"
                }
              ]
            }
          ],
          "telecom": [
            {
              "value": "(555)123-5678",
              "system": "phone"
            }
          ]
        },
        "request": {
          "method": "PUT",
          "url": "Organization/0f21af2c-9880-54cb-14a5-5493a766da42"
        }
      },
      {
        "fullUrl": "urn:uuid:86ff0da6-ff14-ac7d-679e-94ac8e8c3a55",
        "resource": {
          "resourceType": "RelatedPerson",
          "id": "86ff0da6-ff14-ac7d-679e-94ac8e8c3a55",
          "identifier": [
            {
              "value": "HMO-12345",
              "type": {
                "coding": [
                  {
                    "code": "NI",
                    "system": "http://terminology.hl7.org/CodeSystem/v2-0203",
                    "display": "National unique individual identifier"
                  }
                ]
              },
              "system": "urn:oid:2.16.840.1.113883.1.3"
            },
            {
              "value": "EI-12345",
              "type": {
                "coding": [
                  {
                    "code": "EI",
                    "system": "http://terminology.hl7.org/CodeSystem/v2-0203",
                    "display": "Employee number"
                  }
                ]
              },
              "system": "urn:oid:2.16.840.1.113883.1.4"
            },
            {
              "value": "425-57-9745",
              "type": {
                "coding": [
                  {
                    "code": "SS",
                    "display": "Social Security number",
                    "system": "http://terminology.hl7.org/CodeSystem/v2-0203"
                  }
                ]
              },
              "system": "http://hl7.org/fhir/sid/us-ssn"
            }
          ],
          "relationship": [
            {
              "coding": [
                {
                  "code": "SPS",
                  "display": "spouse",
                  "system": "http://terminology.hl7.org/CodeSystem/v3-RoleCode"
                }
              ]
            }
          ],
          "address": [
            {
              "line": [
                "3857 Velvet Treasure Terrace"
              ],
              "city": "Midnight",
              "state": "NC",
              "postalCode": "27878",
              "country": "US"
            }
          ],
          "name": [
            {
              "family": "Doe",
              "given": [
                "Rosallie",
                "John"
              ],
              "suffix": [
                "III",
                "Bachelors"
              ],
              "prefix": [
                "Mrs."
              ],
              "use": "official"
            }
          ],
          "gender": "female",
          "birthDate": "1975-02-28",
          "patient": {
            "reference": "Patient/d5fe6802-a680-e762-8f43-9659340b00ac"
          },
          "telecom": [
            {
              "value": "(555)123-1234",
              "system": "phone"
            }
          ],
          "communication": [
            {
              "language": {
                "coding": [
                  {
                    "code": "en",
                    "display": "English"
                  }
                ]
              },
              "preferred": true
            }
          ]
        },
        "request": {
          "method": "PUT",
          "url": "RelatedPerson/86ff0da6-ff14-ac7d-679e-94ac8e8c3a55"
        }
      },
      {
        "fullUrl": "urn:uuid:75e06d0e-7031-24eb-2f51-ec738de69cec",
        "resource": {
          "resourceType": "Practitioner",
          "id": "75e06d0e-7031-24eb-2f51-ec738de69cec",
          "identifier": [
            {
              "value": "Dr Goldberg"
            }
          ]
        },
        "request": {
          "method": "PUT",
          "url": "Practitioner/75e06d0e-7031-24eb-2f51-ec738de69cec"
        }
      },
      {
        "fullUrl": "urn:uuid:6cfea978-07a0-ded2-7310-1263d0dd3e0c",
        "resource": {
          "resourceType": "Location",
          "id": "6cfea978-07a0-ded2-7310-1263d0dd3e0c",
          "name": "Route 50 intersection",
          "address": {
            "line": [
              "Route 50",
              "Fairfax"
            ],
            "city": "VA",
            "state": "20324"
          }
        },
        "request": {
          "method": "PUT",
          "url": "Location/6cfea978-07a0-ded2-7310-1263d0dd3e0c"
        }
      },
      {
        "fullUrl": "urn:uuid:dfddbc26-7d75-05d7-d8e3-70e545afef70",
        "resource": {
          "resourceType": "Observation",
          "id": "dfddbc26-7d75-05d7-d8e3-70e545afef70",
          "identifier": [
            {
              "value": "5348"
            }
          ],
          "status": "final",
          "code": {
            "coding": [
              {
                "code": "injury-incident",
                "display": "Injury Incident Description Narrative",
                "system": "http://example.com/v2-to-fhir-converter/CodeSystem/observation-code"
              }
            ]
          },
          "component": [
            {
              "code": {
                "coding": [
                  {
                    "code": "AJRI",
                    "display": "Accident Job Related Indicator",
                    "system": "http://example.com/v2-to-fhir-converter/CodeSystem/accident-indicator"
                  }
                ]
              },
              "valueCodeableConcept": {
                "coding": [
                  {
                    "code": "534249",
                    "display": "534249"
                  }
                ]
              }
            },
            {
              "code": {
                "coding": [
                  {
                    "code": "ADI",
                    "display": "Accident Death Indicator",
                    "system": "http://example.com/v2-to-fhir-converter/CodeSystem/accident-indicator"
                  }
                ]
              },
              "valueCodeableConcept": {
                "coding": [
                  {
                    "code": "7878000",
                    "display": "7878000"
                  }
                ]
              }
            },
            {
              "code": {
                "coding": [
                  {
                    "code": "PNI",
                    "display": "Police Notified Indicator",
                    "system": "http://example.com/v2-to-fhir-converter/CodeSystem/accident-indicator"
                  }
                ]
              },
              "valueCodeableConcept": {
                "coding": [
                  {
                    "code": "546930",
                    "display": "546930"
                  }
                ]
              }
            }
          ],
          "valueString": "vehicle accident",
          "effectiveDateTime": "2014-03-17",
          "subject": {
            "reference": "Patient/d5fe6802-a680-e762-8f43-9659340b00ac"
          },
          "performer": [
            {
              "reference": "Practitioner/75e06d0e-7031-24eb-2f51-ec738de69cec"
            }
          ],
          "extension": [
            {
              "url": "http://hl7.org/fhir/us/vrdr/StructureDefinition/Observation-Location",
              "valueReference": {
                "reference": "Location/6cfea978-07a0-ded2-7310-1263d0dd3e0c"
              }
            }
          ]
        },
        "request": {
          "method": "PUT",
          "url": "Observation/dfddbc26-7d75-05d7-d8e3-70e545afef70"
        }
      },
      {
        "fullUrl": "urn:uuid:14493a95-7780-ead5-89cc-ad6c3bc31d51",
        "resource": {
          "resourceType": "Practitioner",
          "id": "14493a95-7780-ead5-89cc-ad6c3bc31d51",
          "identifier": [
            {
              "value": "005454"
            }
          ],
          "name": [
            {
              "family": "DIAG",
              "given": [
                "ROBIN",
                "B"
              ]
            }
          ]
        },
        "request": {
          "method": "PUT",
          "url": "Practitioner/14493a95-7780-ead5-89cc-ad6c3bc31d51"
        }
      },
      {
        "fullUrl": "urn:uuid:98b5d1f9-c308-2a89-f0b7-9fa6b800153f",
        "resource": {
          "resourceType": "Condition",
          "id": "98b5d1f9-c308-2a89-f0b7-9fa6b800153f",
          "code": {
            "coding": [
              {
                "code": "K63.3",
                "display": "Ulcer of Intestine",
                "system": "http://hl7.org/fhir/sid/icd-10"
              }
            ],
            "text": "Ulcer of Intestine"
          },
          "onsetDateTime": "2022-01-01T12:30:09Z",
          "identifier": [
            {
              "value": "DG1002"
            }
          ],
          "asserter": {
            "reference": "Practitioner/14493a95-7780-ead5-89cc-ad6c3bc31d51"
          },
          "subject": {
            "reference": "Patient/d5fe6802-a680-e762-8f43-9659340b00ac"
          },
          "extension": [
            {
              "url": "http://hl7.org/fhir/StructureDefinition/condition-assertedDate",
              "valueDateTime": "2020-05-01T13:30:15Z"
            },
            {
              "url": "http://hl7.org/fhir/StructureDefinition/condition-dueTo",
              "valueReference": {
                "reference": "Condition/1539107c-c58c-2197-899f-cb161b5f2102"
              }
            }
          ]
        },
        "request": {
          "method": "PUT",
          "url": "Condition/98b5d1f9-c308-2a89-f0b7-9fa6b800153f"
        }
      },
      {
        "fullUrl": "urn:uuid:19f93d0c-778a-6a5d-4816-504675827c1e",
        "resource": {
          "resourceType": "Encounter",
          "id": "19f93d0c-778a-6a5d-4816-504675827c1e",
          "diagnosis": [
            {
              "condition": {
                "reference": "Condition/98b5d1f9-c308-2a89-f0b7-9fa6b800153f"
              },
              "use": {
                "coding": [
                  {
                    "code": "DD",
                    "display": "Discharge Diagnosis",
                    "system": "http://terminology.hl7.org/CodeSystem/diagnosis-role"
                  }
                ]
              },
              "rank": 1
            },
            {
              "condition": {
                "reference": "Condition/98b5d1f9-c308-2a89-f0b7-9fa6b800153f"
              }
            }
          ],
          "account": [
            {
              "reference": "Account/4d89d103-815b-6284-c821-c995368a2aeb"
            }
          ],
          "class": {
            "code": "IMP",
            "display": "inpatient encounter",
            "system": "http://terminology.hl7.org/CodeSystem/v3-ActCode"
          },
          "status": "in-progress",
          "location": [
            {
              "status": "active",
              "location": {
                "reference": "Location/6f85cbf3-9b87-a975-6c7d-3bd83dc3e272"
              }
            },
            {
              "status": "completed",
              "location": {
                "reference": "Location/30faa287-a7a7-24b8-1e99-e6e958d70b82"
              }
            },
            {
              "status": "planned",
              "location": {
                "reference": "Location/7242d3ed-13e3-8da7-802d-1902c77245ab"
              }
            }
          ],
          "participant": [
            {
              "type": [
                {
                  "coding": [
                    {
                      "code": "ATND",
                      "system": "http://terminology.hl7.org/CodeSystem/v3-ParticipationType",
                      "display": "attender"
                    }
                  ]
                }
              ],
              "individual": {
                "reference": "Practitioner/d00df304-17fa-8d9a-bd02-3276b1781ea1"
              }
            },
            {
              "type": [
                {
                  "coding": [
                    {
                      "code": "REF",
                      "system": "http://terminology.hl7.org/CodeSystem/v3-ParticipationType"
                    }
                  ],
                  "text": "referrer"
                }
              ],
              "individual": {
                "reference": "Practitioner/21d5ab8b-8f3d-4fd9-f1c4-6f32568b0ae9"
              }
            },
            {
              "type": [
                {
                  "coding": [
                    {
                      "code": "REF",
                      "system": "http://terminology.hl7.org/CodeSystem/v3-ParticipationType"
                    }
                  ],
                  "text": "referrer"
                }
              ],
              "individual": {
                "reference": "Practitioner/43abcbc7-4a4f-99f7-0ac9-06d5d45f2df5"
              }
            }
          ],
          "identifier": [
            {
              "value": "5001",
              "system": "http://example.com/v2-to-fhir-converter/Identifier/AccMgr",
              "type": {
                "coding": [
                  {
                    "code": "VN",
                    "system": "http://terminology.hl7.org/CodeSystem/v2-0203"
                  }
                ],
                "text": "visit number"
              }
            }
          ],
          "period": {
            "start": "2021-01-15T16:00:10Z"
          },
          "reasonCode": [
            {
              "coding": [
                {
                  "code": "789.09",
                  "display": "Abdominal pain other specified site",
                  "system": "http://hl7.org/fhir/sid/icd-9-cm"
                }
              ]
            }
          ],
          "text": {
            "status": "generated",
            "div": "<div xmlns=\"http://www.w3.org/1999/xhtml\"><p><span>Visit Description: </span></p></div>"
          },
          "subject": {
            "reference": "Patient/d5fe6802-a680-e762-8f43-9659340b00ac"
          }
        },
        "request": {
          "method": "PUT",
          "url": "Encounter/19f93d0c-778a-6a5d-4816-504675827c1e"
        }
      },
      {
        "fullUrl": "urn:uuid:1539107c-c58c-2197-899f-cb161b5f2102",
        "resource": {
          "resourceType": "Condition",
          "id": "1539107c-c58c-2197-899f-cb161b5f2102",
          "identifier": [
            {
              "value": "DG1001"
            }
          ],
          "subject": {
            "reference": "Patient/d5fe6802-a680-e762-8f43-9659340b00ac"
          }
        },
        "request": {
          "method": "PUT",
          "url": "Condition/1539107c-c58c-2197-899f-cb161b5f2102"
        }
      },
      {
        "fullUrl": "urn:uuid:800f5a47-6496-6175-9370-2d3b09c28688",
        "resource": {
          "resourceType": "AllergyIntolerance",
          "id": "800f5a47-6496-6175-9370-2d3b09c28688",
          "category": [
            "medication"
          ],
          "type": "allergy",
          "code": {
            "coding": [
              {
                "code": "XYZallergen"
              }
            ]
          },
          "reaction": [
            {
              "manifestation": [
                {
                  "text": "moderate"
                }
              ],
              "onset": "2021-01-21"
            }
          ],
          "criticality": "low",
          "clinicalStatus": {
            "coding": [
              {
                "code": "active",
                "display": "Active",
                "system": "http://terminology.hl7.org/CodeSystem/allergyintolerance-clinical"
              }
            ]
          },
          "patient": {
            "reference": "Patient/d5fe6802-a680-e762-8f43-9659340b00ac"
          }
        },
        "request": {
          "method": "PUT",
          "url": "AllergyIntolerance/800f5a47-6496-6175-9370-2d3b09c28688"
        }
      },
      {
        "fullUrl": "urn:uuid:396e6ab6-624f-44a8-841c-6e1c4cebd765",
        "resource": {
          "resourceType": "Practitioner",
          "id": "396e6ab6-624f-44a8-841c-6e1c4cebd765",
          "identifier": [
            {
              "value": "1210"
            }
          ],
          "name": [
            {
              "family": "ANES",
              "given": [
                "MARK",
                "B"
              ]
            }
          ]
        },
        "request": {
          "method": "PUT",
          "url": "Practitioner/396e6ab6-624f-44a8-841c-6e1c4cebd765"
        }
      },
      {
        "fullUrl": "urn:uuid:48aa596d-3522-99c3-49f7-7c3f46f7e201",
        "resource": {
          "resourceType": "Practitioner",
          "id": "48aa596d-3522-99c3-49f7-7c3f46f7e201",
          "identifier": [
            {
              "value": "2210"
            }
          ],
          "name": [
            {
              "family": "SURGEON",
              "given": [
                "ROBERT",
                "M"
              ]
            }
          ]
        },
        "request": {
          "method": "PUT",
          "url": "Practitioner/48aa596d-3522-99c3-49f7-7c3f46f7e201"
        }
      },
      {
        "fullUrl": "urn:uuid:7d8bce1f-0d52-bf1b-d9d8-01528c67a864",
        "resource": {
          "resourceType": "Location",
          "id": "7d8bce1f-0d52-bf1b-d9d8-01528c67a864",
          "name": "OT",
          "mode": "instance",
          "description": "OT--201",
          "physicalType": {
            "coding": [
              {
                "system": "http://terminology.hl7.org/CodeSystem/location-physical-type",
                "code": "lvl"
              }
            ]
          }
        },
        "request": {
          "method": "PUT",
          "url": "Location/7d8bce1f-0d52-bf1b-d9d8-01528c67a864"
        }
      },
      {
        "fullUrl": "urn:uuid:f9abfa40-6028-663e-c46c-d7ba2e2c2c0d",
        "resource": {
          "resourceType": "Location",
          "id": "f9abfa40-6028-663e-c46c-d7ba2e2c2c0d",
          "partOf": {
            "reference": "Location/7d8bce1f-0d52-bf1b-d9d8-01528c67a864"
          },
          "name": "201",
          "mode": "instance",
          "description": "OT--201",
          "physicalType": {
            "coding": [
              {
                "system": "http://terminology.hl7.org/CodeSystem/location-physical-type",
                "code": "ro"
              }
            ]
          }
        },
        "request": {
          "method": "PUT",
          "url": "Location/f9abfa40-6028-663e-c46c-d7ba2e2c2c0d"
        }
      },
      {
        "fullUrl": "urn:uuid:d1b54d81-5db5-59a3-820b-cc2de9328e4e",
        "resource": {
          "resourceType": "Procedure",
          "id": "d1b54d81-5db5-59a3-820b-cc2de9328e4e",
          "status": "unknown",
          "identifier": [
            {
              "value": "PR1001"
            }
          ],
          "subject": {
            "reference": "Patient/d5fe6802-a680-e762-8f43-9659340b00ac"
          }
        },
        "request": {
          "method": "PUT",
          "url": "Procedure/d1b54d81-5db5-59a3-820b-cc2de9328e4e"
        }
      },
      {
        "fullUrl": "urn:uuid:67788ddb-a883-0905-ea3a-f5cc486b7ea0",
        "resource": {
          "resourceType": "Procedure",
          "id": "67788ddb-a883-0905-ea3a-f5cc486b7ea0",
          "code": {
            "coding": [
              {
                "code": "76164006",
                "display": "Biopsy of colon (procedure)",
                "system": "http://snomed.info/sct"
              }
            ],
            "text": "Biopsy of colon, which was part of colonoscopy"
          },
          "status": "unknown",
          "performedDateTime": "2021-09-07T11:22:33Z",
          "category": {
            "coding": [
              {
                "code": "D",
                "display": "Diagnostic Procedure",
                "system": "http://example.com/v2-to-fhir-converter/CodeSystem/HL70230"
              }
            ]
          },
          "performer": [
            {
              "actor": {
                "reference": "Practitioner/396e6ab6-624f-44a8-841c-6e1c4cebd765"
              },
              "function": {
                "coding": [
                  {
                    "code": "anesthesiologist",
                    "system": "http://example.com/v2-to-fhir-converter/CodeSystem/performer-role",
                    "display": "Anesthesiologist"
                  }
                ],
                "text": "Anesthesiologist"
              }
            },
            {
              "actor": {
                "reference": "Practitioner/48aa596d-3522-99c3-49f7-7c3f46f7e201"
              },
              "function": {
                "coding": [
                  {
                    "code": "surgeon",
                    "system": "http://example.com/v2-to-fhir-converter/CodeSystem/performer-role",
                    "display": "Surgeon"
                  }
                ],
                "text": "Surgeon"
              }
            }
          ],
          "reasonCode": [
            {
              "coding": [
                {
                  "code": "K63.3",
                  "display": "Ulcer of Intestine",
                  "system": "http://hl7.org/fhir/sid/icd-10"
                }
              ]
            }
          ],
          "identifier": [
            {
              "value": "PR1006"
            }
          ],
          "location": {
            "reference": "Location/7d8bce1f-0d52-bf1b-d9d8-01528c67a864"
          },
          "partOf": [
            {
              "reference": "Procedure/d1b54d81-5db5-59a3-820b-cc2de9328e4e"
            }
          ],
          "subject": {
            "reference": "Patient/d5fe6802-a680-e762-8f43-9659340b00ac"
          }
        },
        "request": {
          "method": "PUT",
          "url": "Procedure/67788ddb-a883-0905-ea3a-f5cc486b7ea0"
        }
      },
      {
        "fullUrl": "urn:uuid:b2e3cb0f-bee1-d015-d226-ff71bd5e0b22",
        "resource": {
          "resourceType": "ServiceRequest",
          "id": "b2e3cb0f-bee1-d015-d226-ff71bd5e0b22",
          "status": "active",
          "intent": "order",
          "quantityQuantity": {
            "value": 1
          },
          "occurrenceTiming": {
            "repeat": {
              "boundsPeriod": {
                "start": "2022-01-20T11:26:00+02:15"
              }
            }
          },
          "code": {
            "coding": [
              {
                "code": "22310-7",
                "display": "Helicobacter pylori Ab[Presence] in Serum",
                "system": "http://loinc.org"
              }
            ]
          },
          "subject": {
            "reference": "Patient/d5fe6802-a680-e762-8f43-9659340b00ac"
          },
          "encounter": {
            "reference": "Encounter/19f93d0c-778a-6a5d-4816-504675827c1e"
          },
          "requester": {
            "reference": "PractitionerRole/627e2fe2-3df3-0ac2-50c1-7752d7742c0d"
          },
          "note": [
            {
              "text": "Lab Test for Ulcer "
            }
          ]
        },
        "request": {
          "method": "PUT",
          "url": "ServiceRequest/b2e3cb0f-bee1-d015-d226-ff71bd5e0b22"
        }
      },
      {
        "fullUrl": "urn:uuid:bbabfd91-4ed9-cd15-6c06-b9b10bb44a5b",
        "resource": {
          "resourceType": "Practitioner",
          "id": "bbabfd91-4ed9-cd15-6c06-b9b10bb44a5b",
          "identifier": [
            {
              "value": "005454"
            }
          ],
          "name": [
            {
              "family": "PATH",
              "given": [
                "MARK",
                "B"
              ]
            }
          ]
        },
        "request": {
          "method": "PUT",
          "url": "Practitioner/bbabfd91-4ed9-cd15-6c06-b9b10bb44a5b"
        }
      },
      {
        "fullUrl": "urn:uuid:627e2fe2-3df3-0ac2-50c1-7752d7742c0d",
        "resource": {
          "resourceType": "PractitionerRole",
          "id": "627e2fe2-3df3-0ac2-50c1-7752d7742c0d",
          "code": [
            {
              "coding": [
                {
                  "code": "OP",
                  "display": "Ordering Provider",
                  "system": "http://terminology.hl7.org/CodeSystem/v2-0443"
                }
              ]
            }
          ],
          "practitioner": {
            "reference": "Practitioner/bbabfd91-4ed9-cd15-6c06-b9b10bb44a5b"
          }
        },
        "request": {
          "method": "PUT",
          "url": "PractitionerRole/627e2fe2-3df3-0ac2-50c1-7752d7742c0d"
        }
      },
      {
        "fullUrl": "urn:uuid:c40b8af0-c2c5-df5e-7f19-4708caac087f",
        "resource": {
          "resourceType": "Practitioner",
          "id": "c40b8af0-c2c5-df5e-7f19-4708caac087f",
          "identifier": [
            {
              "value": "005454"
            }
          ],
          "name": [
            {
              "family": "MARK"
            }
          ]
        },
        "request": {
          "method": "PUT",
          "url": "Practitioner/c40b8af0-c2c5-df5e-7f19-4708caac087f"
        }
      },
      {
        "fullUrl": "urn:uuid:c34feac7-d3b1-37e4-500e-5fea0af7a38b",
        "resource": {
          "resourceType": "PractitionerRole",
          "id": "c34feac7-d3b1-37e4-500e-5fea0af7a38b",
          "location": [
            {
              "reference": "Location/0ebc48bb-f3c1-0098-8ce5-56ee68d52654"
            }
          ],
          "practitioner": {
            "reference": "Practitioner/c40b8af0-c2c5-df5e-7f19-4708caac087f"
          }
        },
        "request": {
          "method": "PUT",
          "url": "PractitionerRole/c34feac7-d3b1-37e4-500e-5fea0af7a38b"
        }
      },
      {
        "fullUrl": "urn:uuid:0ebc48bb-f3c1-0098-8ce5-56ee68d52654",
        "resource": {
          "resourceType": "Location",
          "id": "0ebc48bb-f3c1-0098-8ce5-56ee68d52654",
          "name": "LABUnit02",
          "mode": "instance",
          "description": "005454--MARK--LABUnit02--Room02--GHH",
          "physicalType": {
            "coding": [
              {
                "system": "http://terminology.hl7.org/CodeSystem/location-physical-type",
                "code": "lvl"
              }
            ]
          }
        },
        "request": {
          "method": "PUT",
          "url": "Location/0ebc48bb-f3c1-0098-8ce5-56ee68d52654"
        }
      },
      {
        "fullUrl": "urn:uuid:d60a0eea-ecdf-5600-5240-cea2c87a23ba",
        "resource": {
          "resourceType": "Location",
          "id": "d60a0eea-ecdf-5600-5240-cea2c87a23ba",
          "partOf": {
            "reference": "Location/0ebc48bb-f3c1-0098-8ce5-56ee68d52654"
          },
          "name": "Room02",
          "mode": "instance",
          "description": "005454--MARK--LABUnit02--Room02--GHH",
          "physicalType": {
            "coding": [
              {
                "system": "http://terminology.hl7.org/CodeSystem/location-physical-type",
                "code": "ro"
              }
            ]
          }
        },
        "request": {
          "method": "PUT",
          "url": "Location/d60a0eea-ecdf-5600-5240-cea2c87a23ba"
        }
      },
      {
        "fullUrl": "urn:uuid:3ffd504f-44ae-ce29-6fc0-6baf5bc0a821",
        "resource": {
          "resourceType": "Location",
          "id": "3ffd504f-44ae-ce29-6fc0-6baf5bc0a821",
          "name": "GHH",
          "mode": "instance",
          "description": "005454--MARK--LABUnit02--Room02--GHH",
          "physicalType": {
            "coding": [
              {
                "system": "http://terminology.hl7.org/CodeSystem/location-physical-type",
                "code": "si"
              }
            ]
          }
        },
        "request": {
          "method": "PUT",
          "url": "Location/3ffd504f-44ae-ce29-6fc0-6baf5bc0a821"
        }
      },
      {
        "resource": {
          "resourceType": "DiagnosticReport",
          "id": "126cf106-e908-04ea-ec21-99de662bb513",
          "resultsInterpreter": [
            {
              "reference": "PractitionerRole/c34feac7-d3b1-37e4-500e-5fea0af7a38b"
            }
          ],
          "effectiveDateTime": "2022-01-20T12:00:00+02:15",
          "code": {
            "coding": [
              {
                "code": "22310-7",
                "display": "Helicobacter pylori Ab[Presence] in Serum",
                "system": "http://loinc.org"
              }
            ]
          },
          "status": "registered",
          "subject": {
            "reference": "Patient/d5fe6802-a680-e762-8f43-9659340b00ac"
          },
          "basedOn": [
            {
              "reference": "ServiceRequest/b2e3cb0f-bee1-d015-d226-ff71bd5e0b22"
            }
          ],
          "result": [
            {
              "reference": "Observation/11b40153-aabe-1f6d-664d-2dc27674590d"
            }
          ]
        },
        "fullUrl": "urn:uuid:126cf106-e908-04ea-ec21-99de662bb513",
        "request": {
          "method": "PUT",
          "url": "DiagnosticReport/126cf106-e908-04ea-ec21-99de662bb513"
        }
      },
      {
        "fullUrl": "urn:uuid:c617f6ba-843a-e58a-f573-72f341e608d3",
        "resource": {
          "resourceType": "Practitioner",
          "id": "c617f6ba-843a-e58a-f573-72f341e608d3",
          "identifier": [
            {
              "type": {
                "coding": [
                  {
                    "code": "Research Park"
                  }
                ]
              }
            }
          ]
        },
        "request": {
          "method": "PUT",
          "url": "Practitioner/c617f6ba-843a-e58a-f573-72f341e608d3"
        }
      },
      {
        "fullUrl": "urn:uuid:c30de4cb-ad91-c3b8-b7d6-918c0effbbda",
        "resource": {
          "resourceType": "PractitionerRole",
          "id": "c30de4cb-ad91-c3b8-b7d6-918c0effbbda",
          "code": [
            {
              "coding": [
                {
                  "code": "MDIR",
                  "display": "Medical Director",
                  "system": "http://terminology.hl7.org/CodeSystem/v2-0443"
                }
              ]
            }
          ],
          "practitioner": {
            "reference": "Practitioner/c617f6ba-843a-e58a-f573-72f341e608d3"
          },
          "organization": {
            "reference": "Organization/c8050d40-fa22-89b2-0814-4af42260af7f"
          }
        },
        "request": {
          "method": "PUT",
          "url": "PractitionerRole/c30de4cb-ad91-c3b8-b7d6-918c0effbbda"
        }
      },
      {
        "fullUrl": "urn:uuid:c8050d40-fa22-89b2-0814-4af42260af7f",
        "resource": {
          "resourceType": "Organization",
          "id": "c8050d40-fa22-89b2-0814-4af42260af7f",
          "name": "FairOaks Hospital"
        },
        "request": {
          "method": "PUT",
          "url": "Organization/c8050d40-fa22-89b2-0814-4af42260af7f"
        }
      },
      {
        "fullUrl": "urn:uuid:11b40153-aabe-1f6d-664d-2dc27674590d",
        "resource": {
          "resourceType": "Observation",
          "id": "11b40153-aabe-1f6d-664d-2dc27674590d",
          "status": "final",
          "code": {
            "coding": [
              {
                "code": "22310-7",
                "display": "Helicobacter pylori Ab[Presence] in Serum",
                "system": "http://loinc.org"
              }
            ]
          },
          "valueString": "Positive",
          "effectiveDateTime": "2022-01-20",
          "performer": [
            {
              "reference": "PractitionerRole/c30de4cb-ad91-c3b8-b7d6-918c0effbbda"
            }
          ],
          "interpretation": [
            {
              "coding": [
                {
                  "code": "A",
                  "display": "Abnormal",
                  "system": "http://terminology.hl7.org/CodeSystem/v3-ObservationInterpretation"
                }
              ]
            }
          ],
          "subject": {
            "reference": "Patient/d5fe6802-a680-e762-8f43-9659340b00ac"
          },
          "basedOn": [
            {
              "reference": "ServiceRequest/b2e3cb0f-bee1-d015-d226-ff71bd5e0b22"
            }
          ],
          "extension": [
            {
              "url": "http://example.com/v2-to-fhir-converter/Observation_Status",
              "valueCodeableConcept": {
                "coding": [
                  {
                    "code": "F",
                    "display": "Final",
                    "system": "http://terminology.hl7.org/CodeSystem/v2-0085"
                  }
                ],
                "text": "Final"
              }
            }
          ],
          "note": [
            {
              "text": "Test Positive.Infection indicates presence of ulcer"
            }
          ]
        },
        "request": {
          "method": "PUT",
          "url": "Observation/11b40153-aabe-1f6d-664d-2dc27674590d"
        }
      },
      {
        "fullUrl": "urn:uuid:c6c56e40-a853-e69a-a1f0-68eb31fd10b0",
        "resource": {
          "resourceType": "DiagnosticReport",
          "id": "c6c56e40-a853-e69a-a1f0-68eb31fd10b0",
          "code": {
            "coding": [
              {
                "code": "3DHISTECH_PREVIEWCAM",
                "display": "3DHISTECH Preview Camera Image",
                "system": "http://example.com/v2-to-fhir-converter/CodeSystem/L"
              },
              {
                "code": "S_IMAGE",
                "display": "Supplemental Image",
                "system": "http://example.com/v2-to-fhir-converter/CodeSystem/IHELAW"
              }
            ]
          },
          "status": "unknown",
          "presentedForm": [
            {
              "contentType": "image/jpeg",
              "data": "VGhpcyBpcyBhIEJhc2U2NCBzdHJpbmc="
            }
          ],
          "subject": {
            "reference": "Patient/d5fe6802-a680-e762-8f43-9659340b00ac"
          },
          "basedOn": [
            {
              "reference": "ServiceRequest/b2e3cb0f-bee1-d015-d226-ff71bd5e0b22"
            }
          ]
        },
        "request": {
          "method": "PUT",
          "url": "DiagnosticReport/c6c56e40-a853-e69a-a1f0-68eb31fd10b0"
        }
      },
      {
        "fullUrl": "urn:uuid:ef308499-985b-7318-c312-ce396f940af2",
        "resource": {
          "resourceType": "ServiceRequest",
          "id": "ef308499-985b-7318-c312-ce396f940af2",
          "status": "active",
          "intent": "order",
          "identifier": [
            {
              "value": "5ca95f51971d414bbcb4be9ca88e9846",
              "system": "http://example.com/v2-to-fhir-converter/Identifier/L",
              "type": {
                "coding": [
                  {
                    "code": "PLAC",
                    "system": "http://terminology.hl7.org/CodeSystem/v2-0203"
                  }
                ]
              }
            },
            {
              "value": "40bcbe96bcbf8cda8b07403263b92cb4",
              "type": {
                "coding": [
                  {
                    "code": "FILL",
                    "system": "http://terminology.hl7.org/CodeSystem/v2-0203"
                  }
                ]
              }
            }
          ],
          "code": {
            "coding": [
              {
                "code": "SCAN",
                "display": "Scan Slide",
                "system": "http://example.com/v2-to-fhir-converter/CodeSystem/3DHISTECH"
              }
            ]
          },
          "subject": {
            "reference": "Patient/d5fe6802-a680-e762-8f43-9659340b00ac"
          },
          "encounter": {
            "reference": "Encounter/19f93d0c-778a-6a5d-4816-504675827c1e"
          },
          "note": [
            {
              "text": "Lab Test for ECG "
            }
          ]
        },
        "request": {
          "method": "PUT",
          "url": "ServiceRequest/ef308499-985b-7318-c312-ce396f940af2"
        }
      },
      {
        "fullUrl": "urn:uuid:a361cb66-96d6-9c04-fd14-3a599184f451",
        "resource": {
          "resourceType": "DiagnosticReport",
          "id": "a361cb66-96d6-9c04-fd14-3a599184f451",
          "identifier": [
            {
              "value": "5ca95f51971d414bbcb4be9ca88e9846",
              "system": "http://example.com/v2-to-fhir-converter/Identifier/L",
              "type": {
                "coding": [
                  {
                    "code": "PLAC",
                    "system": "http://terminology.hl7.org/CodeSystem/v2-0203"
                  }
                ]
              }
            },
            {
              "value": "40bcbe96bcbf8cda8b07403263b92cb4",
              "type": {
                "coding": [
                  {
                    "code": "FILL",
                    "system": "http://terminology.hl7.org/CodeSystem/v2-0203"
                  }
                ]
              }
            }
          ],
          "code": {
            "coding": [
              {
                "code": "SCAN",
                "display": "Scan Slide",
                "system": "http://example.com/v2-to-fhir-converter/CodeSystem/3DHISTECH"
              }
            ]
          },
          "status": "unknown",
          "subject": {
            "reference": "Patient/d5fe6802-a680-e762-8f43-9659340b00ac"
          },
          "basedOn": [
            {
              "reference": "ServiceRequest/ef308499-985b-7318-c312-ce396f940af2"
            }
          ],
          "result": [
            {
              "reference": "Observation/8cba7656-b8bb-a1ec-5feb-b38b91c0e500"
            }
          ]
        },
        "request": {
          "method": "PUT",
          "url": "DiagnosticReport/a361cb66-96d6-9c04-fd14-3a599184f451"
        }
      },
      {
        "fullUrl": "urn:uuid:e82402a9-b2d1-2a28-3250-c099d5a77bf7",
        "resource": {
          "resourceType": "Organization",
          "id": "e82402a9-b2d1-2a28-3250-c099d5a77bf7",
          "identifier": [
            {
              "value": "PERSt",
              "system": "http://example.com/v2-to-fhir-converter/Identifier/PERSt"
            },
            {
              "value": "1.23",
              "system": "http://example.com/v2-to-fhir-converter/Identifier/HCD",
              "type": {
                "coding": [
                  {
                    "code": "HCD",
                    "display": "The CEN Healthcare Coding Scheme Designator",
                    "system": "http://terminology.hl7.org/CodeSystem/v2-0301"
                  }
                ]
              }
            }
          ]
        },
        "request": {
          "method": "PUT",
          "url": "Organization/e82402a9-b2d1-2a28-3250-c099d5a77bf7"
        }
      },
      {
        "fullUrl": "urn:uuid:ce70e6c3-c190-121d-c251-e4bae5cde6a1",
        "resource": {
          "resourceType": "Practitioner",
          "id": "ce70e6c3-c190-121d-c251-e4bae5cde6a1",
          "identifier": [
            {
              "value": "1134",
              "system": "http://example.com/v2-to-fhir-converter/Identifier/HCD",
              "assigner": {
                "reference": "Organization/e82402a9-b2d1-2a28-3250-c099d5a77bf7"
              },
              "type": {
                "coding": [
                  {
                    "code": "BR",
                    "display": "Birth registry number",
                    "system": "http://terminology.hl7.org/CodeSystem/v2-0203"
                  }
                ]
              }
            }
          ],
          "name": [
            {
              "family": "Aly",
              "given": [
                "Zafar",
                "Mahendra"
              ],
              "suffix": [
                "JR",
                "MD",
                "Al"
              ],
              "prefix": [
                "Dr."
              ],
              "period": {
                "start": "1924-10-10",
                "end": "1924-10-15"
              }
            }
          ]
        },
        "request": {
          "method": "PUT",
          "url": "Practitioner/ce70e6c3-c190-121d-c251-e4bae5cde6a1"
        }
      },
      {
        "fullUrl": "urn:uuid:88a53755-c972-6904-b4ce-8884b84ddc2e",
        "resource": {
          "resourceType": "PractitionerRole",
          "id": "88a53755-c972-6904-b4ce-8884b84ddc2e",
          "code": [
            {
              "coding": [
                {
                  "code": "RO",
                  "display": "Responsible Observer",
                  "system": "http://terminology.hl7.org/CodeSystem/v2-0443"
                }
              ]
            }
          ],
          "practitioner": {
            "reference": "Practitioner/ce70e6c3-c190-121d-c251-e4bae5cde6a1"
          }
        },
        "request": {
          "method": "PUT",
          "url": "PractitionerRole/88a53755-c972-6904-b4ce-8884b84ddc2e"
        }
      },
      {
        "fullUrl": "urn:uuid:3e0952c6-eea0-8938-96f8-07c224bf1577",
        "resource": {
          "resourceType": "Practitioner",
          "id": "3e0952c6-eea0-8938-96f8-07c224bf1577",
          "identifier": [
            {
              "value": "2234"
            }
          ],
          "name": [
            {
              "family": "Pauly",
              "given": [
                "Berrie",
                "Raud"
              ]
            }
          ]
        },
        "request": {
          "method": "PUT",
          "url": "Practitioner/3e0952c6-eea0-8938-96f8-07c224bf1577"
        }
      },
      {
        "fullUrl": "urn:uuid:bc78e290-ec67-c238-1e05-aefb6b252b0c",
        "resource": {
          "resourceType": "PractitionerRole",
          "id": "bc78e290-ec67-c238-1e05-aefb6b252b0c",
          "code": [
            {
              "coding": [
                {
                  "code": "RO",
                  "display": "Responsible Observer",
                  "system": "http://terminology.hl7.org/CodeSystem/v2-0443"
                }
              ]
            }
          ],
          "practitioner": {
            "reference": "Practitioner/3e0952c6-eea0-8938-96f8-07c224bf1577"
          }
        },
        "request": {
          "method": "PUT",
          "url": "PractitionerRole/bc78e290-ec67-c238-1e05-aefb6b252b0c"
        }
      },
      {
        "fullUrl": "urn:uuid:960162f4-e8c5-e229-eb52-e6f3f6224edc",
        "resource": {
          "resourceType": "Device",
          "id": "960162f4-e8c5-e229-eb52-e6f3f6224edc",
          "identifier": [
            {
              "value": "EI12.3",
              "system": "urn:uuid:426d2726-51fc-89fe-a946-8596e80a80eb",
              "type": {
                "coding": [
                  {
                    "code": "GUID",
                    "display": "The DCE Universal Unique Identifier, in accordance with RFC 4122. Recommended format is 32 hexadecimal digits separated by hyphens, in the digit grouping 8-4-4-4-12",
                    "system": "http://terminology.hl7.org/CodeSystem/v2-0301"
                  }
                ]
              }
            },
            {
              "system": "urn:oid:1.3.6.1.4.1.44750.1.2.2",
              "type": {
                "coding": [
                  {
                    "code": "ISO",
                    "display": "An International Standards Organization Object Identifier (OID), in accordance with ISO/IEC 8824. Formatted as decimal digits separated by periods; recommended limit of 64 characters",
                    "system": "http://terminology.hl7.org/CodeSystem/v2-0301"
                  }
                ]
              }
            }
          ]
        },
        "request": {
          "method": "PUT",
          "url": "Device/960162f4-e8c5-e229-eb52-e6f3f6224edc"
        }
      },
      {
        "fullUrl": "urn:uuid:45f65e47-46c4-1a54-f9fb-1321258e79b2",
        "resource": {
          "resourceType": "Practitioner",
          "id": "45f65e47-46c4-1a54-f9fb-1321258e79b2",
          "identifier": [
            {
              "type": {
                "coding": [
                  {
                    "code": "MD-25"
                  }
                ]
              }
            }
          ]
        },
        "request": {
          "method": "PUT",
          "url": "Practitioner/45f65e47-46c4-1a54-f9fb-1321258e79b2"
        }
      },
      {
        "fullUrl": "urn:uuid:090ea2e4-0a3a-eb7f-8f9f-16dd7d13f7f3",
        "resource": {
          "resourceType": "PractitionerRole",
          "id": "090ea2e4-0a3a-eb7f-8f9f-16dd7d13f7f3",
          "code": [
            {
              "coding": [
                {
                  "code": "MDIR",
                  "display": "Medical Director",
                  "system": "http://terminology.hl7.org/CodeSystem/v2-0443"
                }
              ]
            }
          ],
          "practitioner": {
            "reference": "Practitioner/45f65e47-46c4-1a54-f9fb-1321258e79b2"
          },
          "organization": {
            "reference": "Organization/056aa7c7-6b75-3c67-63c5-cf9604f16d25"
          }
        },
        "request": {
          "method": "PUT",
          "url": "PractitionerRole/090ea2e4-0a3a-eb7f-8f9f-16dd7d13f7f3"
        }
      },
      {
        "fullUrl": "urn:uuid:056aa7c7-6b75-3c67-63c5-cf9604f16d25",
        "resource": {
          "resourceType": "Organization",
          "id": "056aa7c7-6b75-3c67-63c5-cf9604f16d25",
          "name": "FairOaks Hspital",
          "address": [
            {
              "line": [
                "Research Park",
                "Fairfax"
              ],
              "city": "VA",
              "state": "22031",
              "postalCode": "USA"
            }
          ]
        },
        "request": {
          "method": "PUT",
          "url": "Organization/056aa7c7-6b75-3c67-63c5-cf9604f16d25"
        }
      },
      {
        "fullUrl": "urn:uuid:8cba7656-b8bb-a1ec-5feb-b38b91c0e500",
        "resource": {
          "resourceType": "Observation",
          "id": "8cba7656-b8bb-a1ec-5feb-b38b91c0e500",
          "identifier": [
            {
              "value": "EI21",
              "system": "http://example.com/v2-to-fhir-converter/Identifier/OII"
            },
            {
              "type": {
                "coding": [
                  {
                    "code": "FILL"
                  }
                ]
              }
            }
          ],
          "status": "unknown",
          "code": {
            "coding": [
              {
                "code": "8867-4",
                "display": "heartrate",
                "system": "http://loinc.org"
              }
            ]
          },
          "component": [
            {
              "code": {
                "coding": [
                  {
                    "code": "8867-4",
                    "display": "heartrate",
                    "system": "http://loinc.org"
                  }
                ]
              },
              "valueQuantity": {
                "value": 60,
                "code": "beats/min",
                "system": "urn:iso:std:iso:3986"
              },
              "referenceRange": [
                {
                  "text": "70-80"
                }
              ]
            },
            {
              "code": {
                "coding": [
                  {
                    "code": "8867-4",
                    "display": "heartrate",
                    "system": "http://loinc.org"
                  }
                ]
              },
              "valueQuantity": {
                "value": 120,
                "code": "beats/min",
                "system": "urn:iso:std:iso:3986"
              },
              "referenceRange": [
                {
                  "text": "70-80"
                }
              ]
            }
          ],
          "effectiveDateTime": "1999-07-02",
          "method": {
            "coding": [
              {
                "code": "OBS",
                "display": "This is test method",
                "system": "http://example.com/v2-to-fhir-converter/CodeSystem/AS4"
              }
            ]
          },
          "device": {
            "reference": "Device/960162f4-e8c5-e229-eb52-e6f3f6224edc"
          },
          "bodySite": {
            "coding": [
              {
                "code": "BU",
                "display": "Observation site",
                "system": "http://example.com/v2-to-fhir-converter/CodeSystem/E5"
              }
            ]
          },
          "performer": [
            {
              "reference": "PractitionerRole/88a53755-c972-6904-b4ce-8884b84ddc2e"
            },
            {
              "reference": "PractitionerRole/bc78e290-ec67-c238-1e05-aefb6b252b0c"
            },
            {
              "reference": "PractitionerRole/090ea2e4-0a3a-eb7f-8f9f-16dd7d13f7f3"
            }
          ],
          "interpretation": [
            {
              "coding": [
                {
                  "code": "A",
                  "display": "Abnormal",
                  "system": "http://terminology.hl7.org/CodeSystem/v3-ObservationInterpretation"
                }
              ]
            },
            {
              "coding": [
                {
                  "code": "B",
                  "display": "Better",
                  "system": "http://terminology.hl7.org/CodeSystem/v3-ObservationInterpretation"
                }
              ]
            }
          ],
          "subject": {
            "reference": "Patient/d5fe6802-a680-e762-8f43-9659340b00ac"
          },
          "basedOn": [
            {
              "reference": "ServiceRequest/ef308499-985b-7318-c312-ce396f940af2"
            }
          ],
          "extension": [
            {
              "url": "http://example.com/v2-to-fhir-converter/Observation_Status",
              "valueCodeableConcept": {
                "coding": [
                  {
                    "code": "S",
                    "display": "Partial",
                    "system": "http://terminology.hl7.org/CodeSystem/v2-0085"
                  }
                ],
                "text": "Partial"
              }
            }
          ],
          "note": [
            {
              "text": "Fluctuation in pulserate"
            }
          ]
        },
        "request": {
          "method": "PUT",
          "url": "Observation/8cba7656-b8bb-a1ec-5feb-b38b91c0e500"
        }
      },
      {
        "fullUrl": "urn:uuid:d00df304-17fa-8d9a-bd02-3276b1781ea1",
        "resource": {
          "resourceType": "Practitioner",
          "id": "d00df304-17fa-8d9a-bd02-3276b1781ea1",
          "identifier": [
            {
              "value": "0210"
            }
          ],
          "name": [
            {
              "family": "ATTEND",
              "given": [
                "AARON",
                "A"
              ]
            }
          ]
        },
        "request": {
          "method": "PUT",
          "url": "Practitioner/d00df304-17fa-8d9a-bd02-3276b1781ea1"
        }
      },
      {
        "fullUrl": "urn:uuid:21d5ab8b-8f3d-4fd9-f1c4-6f32568b0ae9",
        "resource": {
          "resourceType": "Practitioner",
          "id": "21d5ab8b-8f3d-4fd9-f1c4-6f32568b0ae9",
          "identifier": [
            {
              "value": "0310"
            }
          ],
          "name": [
            {
              "family": "REFER",
              "given": [
                "LINDA",
                "C"
              ]
            }
          ]
        },
        "request": {
          "method": "PUT",
          "url": "Practitioner/21d5ab8b-8f3d-4fd9-f1c4-6f32568b0ae9"
        }
      },
      {
        "fullUrl": "urn:uuid:43abcbc7-4a4f-99f7-0ac9-06d5d45f2df5",
        "resource": {
          "resourceType": "Practitioner",
          "id": "43abcbc7-4a4f-99f7-0ac9-06d5d45f2df5",
          "identifier": [
            {
              "value": "005454"
            }
          ],
          "name": [
            {
              "family": "REFSRC",
              "given": [
                "ROBIN",
                "B"
              ]
            }
          ]
        },
        "request": {
          "method": "PUT",
          "url": "Practitioner/43abcbc7-4a4f-99f7-0ac9-06d5d45f2df5"
        }
      },
      {
        "fullUrl": "urn:uuid:6f85cbf3-9b87-a975-6c7d-3bd83dc3e272",
        "resource": {
          "resourceType": "Location",
          "id": "6f85cbf3-9b87-a975-6c7d-3bd83dc3e272",
          "partOf": {
            "reference": "Location/b662aeaa-5f80-30bc-ea69-bfc02edd6fc2"
          },
          "name": "SPROOM",
          "mode": "instance",
          "description": "SPROOM--ROOM1--2.16.840.1.113883.4.642.1.1108--ISO--BED1--FACILITY1--BUILDING1--FLOOR1",
          "physicalType": {
            "coding": [
              {
                "system": "http://terminology.hl7.org/CodeSystem/location-physical-type",
                "code": "lvl"
              }
            ]
          }
        },
        "request": {
          "method": "PUT",
          "url": "Location/6f85cbf3-9b87-a975-6c7d-3bd83dc3e272"
        }
      },
      {
        "fullUrl": "urn:uuid:2722efa8-9c1c-af2d-a7d9-f786cdd2ed3c",
        "resource": {
          "resourceType": "Location",
          "id": "2722efa8-9c1c-af2d-a7d9-f786cdd2ed3c",
          "partOf": {
            "reference": "Location/6f85cbf3-9b87-a975-6c7d-3bd83dc3e272"
          },
          "name": "ROOM1",
          "identifier": [
            {
              "value": "urn:oid:2.16.840.1.113883.4.642.1.1108",
              "system": "urn:ietf:rfc:3986"
            }
          ],
          "mode": "instance",
          "description": "SPROOM--ROOM1--2.16.840.1.113883.4.642.1.1108--ISO--BED1--FACILITY1--BUILDING1--FLOOR1",
          "physicalType": {
            "coding": [
              {
                "system": "http://terminology.hl7.org/CodeSystem/location-physical-type",
                "code": "ro"
              }
            ]
          }
        },
        "request": {
          "method": "PUT",
          "url": "Location/2722efa8-9c1c-af2d-a7d9-f786cdd2ed3c"
        }
      },
      {
        "fullUrl": "urn:uuid:4deea28f-3bf0-39ed-f26f-3af8ff87ba77",
        "resource": {
          "resourceType": "Location",
          "id": "4deea28f-3bf0-39ed-f26f-3af8ff87ba77",
          "partOf": {
            "reference": "Location/2722efa8-9c1c-af2d-a7d9-f786cdd2ed3c"
          },
          "name": "BED1",
          "mode": "instance",
          "description": "SPROOM--ROOM1--2.16.840.1.113883.4.642.1.1108--ISO--BED1--FACILITY1--BUILDING1--FLOOR1",
          "physicalType": {
            "coding": [
              {
                "system": "http://terminology.hl7.org/CodeSystem/location-physical-type",
                "code": "bd"
              }
            ]
          }
        },
        "request": {
          "method": "PUT",
          "url": "Location/4deea28f-3bf0-39ed-f26f-3af8ff87ba77"
        }
      },
      {
        "fullUrl": "urn:uuid:e2b1be1f-f55c-d517-b426-e0d1a444e6f0",
        "resource": {
          "resourceType": "Location",
          "id": "e2b1be1f-f55c-d517-b426-e0d1a444e6f0",
          "name": "FACILITY1",
          "mode": "instance",
          "description": "SPROOM--ROOM1--2.16.840.1.113883.4.642.1.1108--ISO--BED1--FACILITY1--BUILDING1--FLOOR1",
          "physicalType": {
            "coding": [
              {
                "system": "http://terminology.hl7.org/CodeSystem/location-physical-type",
                "code": "si"
              }
            ]
          }
        },
        "request": {
          "method": "PUT",
          "url": "Location/e2b1be1f-f55c-d517-b426-e0d1a444e6f0"
        }
      },
      {
        "fullUrl": "urn:uuid:4b3128bd-df73-2831-f801-9f0b1ac78930",
        "resource": {
          "resourceType": "Location",
          "id": "4b3128bd-df73-2831-f801-9f0b1ac78930",
          "partOf": {
            "reference": "Location/e2b1be1f-f55c-d517-b426-e0d1a444e6f0"
          },
          "name": "BUILDING1",
          "mode": "instance",
          "description": "SPROOM--ROOM1--2.16.840.1.113883.4.642.1.1108--ISO--BED1--FACILITY1--BUILDING1--FLOOR1",
          "physicalType": {
            "coding": [
              {
                "system": "http://terminology.hl7.org/CodeSystem/location-physical-type",
                "code": "bu"
              }
            ]
          }
        },
        "request": {
          "method": "PUT",
          "url": "Location/4b3128bd-df73-2831-f801-9f0b1ac78930"
        }
      },
      {
        "fullUrl": "urn:uuid:b662aeaa-5f80-30bc-ea69-bfc02edd6fc2",
        "resource": {
          "resourceType": "Location",
          "id": "b662aeaa-5f80-30bc-ea69-bfc02edd6fc2",
          "partOf": {
            "reference": "Location/4b3128bd-df73-2831-f801-9f0b1ac78930"
          },
          "name": "FLOOR1",
          "mode": "instance",
          "description": "SPROOM--ROOM1--2.16.840.1.113883.4.642.1.1108--ISO--BED1--FACILITY1--BUILDING1--FLOOR1",
          "physicalType": {
            "coding": [
              {
                "system": "http://terminology.hl7.org/CodeSystem/location-physical-type",
                "code": "lvl"
              }
            ]
          }
        },
        "request": {
          "method": "PUT",
          "url": "Location/b662aeaa-5f80-30bc-ea69-bfc02edd6fc2"
        }
      },
      {
        "fullUrl": "urn:uuid:30faa287-a7a7-24b8-1e99-e6e958d70b82",
        "resource": {
          "resourceType": "Location",
          "id": "30faa287-a7a7-24b8-1e99-e6e958d70b82",
          "partOf": {
            "reference": "Location/a636e63f-9983-a4ea-7e00-c414197696be"
          },
          "name": "WAITINGROOM",
          "mode": "instance",
          "description": "WAITINGROOM--ROOM1--2.16.840.1.113883.4.642.1.1108--ISO--FACILITY1--BUILDING1--FLOOR0",
          "physicalType": {
            "coding": [
              {
                "system": "http://terminology.hl7.org/CodeSystem/location-physical-type",
                "code": "lvl"
              }
            ]
          }
        },
        "request": {
          "method": "PUT",
          "url": "Location/30faa287-a7a7-24b8-1e99-e6e958d70b82"
        }
      },
      {
        "fullUrl": "urn:uuid:885198c1-9b6f-f5f5-ed68-5550970e1ad7",
        "resource": {
          "resourceType": "Location",
          "id": "885198c1-9b6f-f5f5-ed68-5550970e1ad7",
          "partOf": {
            "reference": "Location/30faa287-a7a7-24b8-1e99-e6e958d70b82"
          },
          "name": "ROOM1",
          "identifier": [
            {
              "value": "urn:oid:2.16.840.1.113883.4.642.1.1108",
              "system": "urn:ietf:rfc:3986"
            }
          ],
          "mode": "instance",
          "description": "WAITINGROOM--ROOM1--2.16.840.1.113883.4.642.1.1108--ISO--FACILITY1--BUILDING1--FLOOR0",
          "physicalType": {
            "coding": [
              {
                "system": "http://terminology.hl7.org/CodeSystem/location-physical-type",
                "code": "ro"
              }
            ]
          }
        },
        "request": {
          "method": "PUT",
          "url": "Location/885198c1-9b6f-f5f5-ed68-5550970e1ad7"
        }
      },
      {
        "fullUrl": "urn:uuid:2ddedc1b-1224-cccb-cc32-5de31e153d55",
        "resource": {
          "resourceType": "Location",
          "id": "2ddedc1b-1224-cccb-cc32-5de31e153d55",
          "name": "FACILITY1",
          "mode": "instance",
          "description": "WAITINGROOM--ROOM1--2.16.840.1.113883.4.642.1.1108--ISO--FACILITY1--BUILDING1--FLOOR0",
          "physicalType": {
            "coding": [
              {
                "system": "http://terminology.hl7.org/CodeSystem/location-physical-type",
                "code": "si"
              }
            ]
          }
        },
        "request": {
          "method": "PUT",
          "url": "Location/2ddedc1b-1224-cccb-cc32-5de31e153d55"
        }
      },
      {
        "fullUrl": "urn:uuid:674d0d21-31a1-222d-a257-8e591d5bf31a",
        "resource": {
          "resourceType": "Location",
          "id": "674d0d21-31a1-222d-a257-8e591d5bf31a",
          "partOf": {
            "reference": "Location/2ddedc1b-1224-cccb-cc32-5de31e153d55"
          },
          "name": "BUILDING1",
          "mode": "instance",
          "description": "WAITINGROOM--ROOM1--2.16.840.1.113883.4.642.1.1108--ISO--FACILITY1--BUILDING1--FLOOR0",
          "physicalType": {
            "coding": [
              {
                "system": "http://terminology.hl7.org/CodeSystem/location-physical-type",
                "code": "bu"
              }
            ]
          }
        },
        "request": {
          "method": "PUT",
          "url": "Location/674d0d21-31a1-222d-a257-8e591d5bf31a"
        }
      },
      {
        "fullUrl": "urn:uuid:a636e63f-9983-a4ea-7e00-c414197696be",
        "resource": {
          "resourceType": "Location",
          "id": "a636e63f-9983-a4ea-7e00-c414197696be",
          "partOf": {
            "reference": "Location/674d0d21-31a1-222d-a257-8e591d5bf31a"
          },
          "name": "FLOOR0",
          "mode": "instance",
          "description": "WAITINGROOM--ROOM1--2.16.840.1.113883.4.642.1.1108--ISO--FACILITY1--BUILDING1--FLOOR0",
          "physicalType": {
            "coding": [
              {
                "system": "http://terminology.hl7.org/CodeSystem/location-physical-type",
                "code": "lvl"
              }
            ]
          }
        },
        "request": {
          "method": "PUT",
          "url": "Location/a636e63f-9983-a4ea-7e00-c414197696be"
        }
      },
      {
        "fullUrl": "urn:uuid:7242d3ed-13e3-8da7-802d-1902c77245ab",
        "resource": {
          "resourceType": "Location",
          "id": "7242d3ed-13e3-8da7-802d-1902c77245ab",
          "name": "ROOM1",
          "identifier": [
            {
              "value": "urn:oid:2.16.840.1.113883.4.642.1.1108",
              "system": "urn:ietf:rfc:3986"
            }
          ],
          "mode": "instance",
          "description": "ROOM1--2.16.840.1.113883.4.642.1.1108--ISO--BED1--FACILITY1--BUILDING1--FLOOR1",
          "physicalType": {
            "coding": [
              {
                "system": "http://terminology.hl7.org/CodeSystem/location-physical-type",
                "code": "ro"
              }
            ]
          }
        },
        "request": {
          "method": "PUT",
          "url": "Location/7242d3ed-13e3-8da7-802d-1902c77245ab"
        }
      },
      {
        "fullUrl": "urn:uuid:47be8e12-1cd6-f250-d854-0e5c73452a35",
        "resource": {
          "resourceType": "Location",
          "id": "47be8e12-1cd6-f250-d854-0e5c73452a35",
          "partOf": {
            "reference": "Location/7242d3ed-13e3-8da7-802d-1902c77245ab"
          },
          "name": "BED1",
          "mode": "instance",
          "description": "ROOM1--2.16.840.1.113883.4.642.1.1108--ISO--BED1--FACILITY1--BUILDING1--FLOOR1",
          "physicalType": {
            "coding": [
              {
                "system": "http://terminology.hl7.org/CodeSystem/location-physical-type",
                "code": "bd"
              }
            ]
          }
        },
        "request": {
          "method": "PUT",
          "url": "Location/47be8e12-1cd6-f250-d854-0e5c73452a35"
        }
      },
      {
        "fullUrl": "urn:uuid:1bc31588-100d-f6d4-556a-66ea92a026da",
        "resource": {
          "resourceType": "Location",
          "id": "1bc31588-100d-f6d4-556a-66ea92a026da",
          "name": "FACILITY1",
          "mode": "instance",
          "description": "ROOM1--2.16.840.1.113883.4.642.1.1108--ISO--BED1--FACILITY1--BUILDING1--FLOOR1",
          "physicalType": {
            "coding": [
              {
                "system": "http://terminology.hl7.org/CodeSystem/location-physical-type",
                "code": "si"
              }
            ]
          }
        },
        "request": {
          "method": "PUT",
          "url": "Location/1bc31588-100d-f6d4-556a-66ea92a026da"
        }
      },
      {
        "fullUrl": "urn:uuid:f11d29a4-f2b1-cb4d-cdda-1c63370d3168",
        "resource": {
          "resourceType": "Location",
          "id": "f11d29a4-f2b1-cb4d-cdda-1c63370d3168",
          "partOf": {
            "reference": "Location/1bc31588-100d-f6d4-556a-66ea92a026da"
          },
          "name": "BUILDING1",
          "mode": "instance",
          "description": "ROOM1--2.16.840.1.113883.4.642.1.1108--ISO--BED1--FACILITY1--BUILDING1--FLOOR1",
          "physicalType": {
            "coding": [
              {
                "system": "http://terminology.hl7.org/CodeSystem/location-physical-type",
                "code": "bu"
              }
            ]
          }
        },
        "request": {
          "method": "PUT",
          "url": "Location/f11d29a4-f2b1-cb4d-cdda-1c63370d3168"
        }
      },
      {
        "fullUrl": "urn:uuid:2581ba96-39c5-2882-a68d-94d04ab33b5f",
        "resource": {
          "resourceType": "Location",
          "id": "2581ba96-39c5-2882-a68d-94d04ab33b5f",
          "partOf": {
            "reference": "Location/f11d29a4-f2b1-cb4d-cdda-1c63370d3168"
          },
          "name": "FLOOR1",
          "mode": "instance",
          "description": "ROOM1--2.16.840.1.113883.4.642.1.1108--ISO--BED1--FACILITY1--BUILDING1--FLOOR1",
          "physicalType": {
            "coding": [
              {
                "system": "http://terminology.hl7.org/CodeSystem/location-physical-type",
                "code": "lvl"
              }
            ]
          }
        },
        "request": {
          "method": "PUT",
          "url": "Location/2581ba96-39c5-2882-a68d-94d04ab33b5f"
        }
      }
    ]
  }