{
  "resourceType": "Bundle",
  "type": "batch",
  "timestamp": "2019-03-11T14:46:33+05:30",
  "identifier": {
      "value": "1932"
  },
  "id": "bffbfea9-267e-a449-3090-456fa7efbcc4",
  "entry": [
      {
          "fullUrl": "urn:uuid:8d442ccc-3354-4ead-022e-2edfb1a641c1",
          "resource": {
              "resourceType": "MessageHeader",
              "id": "8d442ccc-3354-4ead-022e-2edfb1a641c1",
              "source": {
                  "name": "CASECENTER",
                  "_endpoint": {
                      "extension": [
                          {
                              "url": "http://hl7.org/fhir/StructureDefinition/data-absent-reason",
                              "valueCode": "unknown"
                          }
                      ]
                  },
                  "version": "2.4.3.52854",
                  "software": "Rhapsody"
              },
              "destination": [
                  {
                      "name": "IHEPALM",
                      "_endpoint": {
                          "extension": [
                              {
                                  "url": "http://hl7.org/fhir/StructureDefinition/data-absent-reason",
                                  "valueCode": "unknown"
                              }
                          ]
                      }
                  }
              ],
              "meta": {
                  "tag": [
                      {
                          "code": "P",
                          "system": "http://terminology.hl7.org/CodeSystem/v2-0103"
                      }
                  ]
              },
              "eventCoding": {
                  "code": "R22",
                  "system": "http://terminology.hl7.org/CodeSystem/v2-0003",
                  "display": "OUL^R22^OUL_R22"
              },
              "sender": {
                  "reference": "Organization/afbbb131-40a9-ea62-0eb1-23f0f33e8b20"
              }
          },
          "request": {
              "method": "PUT",
              "url": "MessageHeader/8d442ccc-3354-4ead-022e-2edfb1a641c1"
          }
      },
      {
          "fullUrl": "urn:uuid:75e5af24-916d-b795-559b-b27d3228eda3",
          "resource": {
              "resourceType": "Provenance",
              "id": "75e5af24-916d-b795-559b-b27d3228eda3",
              "text": {
                  "status": "generated",
                  "div": "<div xmlns=\"http://www.w3.org/1999/xhtml\"><p><span>Resource bundle generated on 2022-03-28T09:34:07.547Z using Microsoft FHIR Converter.</span><span>Template Version: TEMPLATE_VERSION_PLACEHOLDER.</span><span>Template URL: https://github.com/microsoft/FHIR-Converter/releases/download/vTEMPLATE_VERSION_PLACEHOLDER/Hl7v2DefaultTemplates.tar.gz.</span><span>Root template: OUL_R22.</span></p></div>"
              },
              "occurredDateTime": "2019-03-11T14:46:33+05:30",
              "recorded": "2019-03-11T14:46:33+05:30",
              "agent": [
                  {
                      "type": {
                          "coding": [
                              {
                                  "code": "author",
                                  "system": "http://terminology.hl7.org/CodeSystem/provenance-participant-type"
                              }
                          ]
                      },
                      "who": {
                          "reference": "Organization/afbbb131-40a9-ea62-0eb1-23f0f33e8b20"
                      }
                  }
              ],
              "activity": {
                  "coding": [
                      {
                          "display": "OUL^R22^OUL_R22"
                      }
                  ]
              },
              "target": [
                  {
                      "reference": "Bundle/bffbfea9-267e-a449-3090-456fa7efbcc4"
                  }
              ]
          },
          "request": {
              "method": "PUT",
              "url": "Provenance/75e5af24-916d-b795-559b-b27d3228eda3"
          }
      },
      {
          "fullUrl": "urn:uuid:afbbb131-40a9-ea62-0eb1-23f0f33e8b20",
          "resource": {
              "resourceType": "Organization",
              "id": "afbbb131-40a9-ea62-0eb1-23f0f33e8b20",
              "identifier": [
                  {
                      "value": "CASECENTER FACILITY",
                      "system": "http://example.com/v2-to-fhir-converter/Identifier/CASECENTER-FACILITY"
                  }
              ]
          },
          "request": {
              "method": "PUT",
              "url": "Organization/afbbb131-40a9-ea62-0eb1-23f0f33e8b20"
          }
      },
      {
          "fullUrl": "urn:uuid:4b549918-a84d-cdaf-e150-c773a5d306e5",
          "resource": {
              "resourceType": "Device",
              "id": "4b549918-a84d-cdaf-e150-c773a5d306e5",
              "manufacturer": "Orion",
              "deviceName": [
                  {
                      "name": "Rhapsody",
                      "type": "manufacturer-name"
                  }
              ],
              "version": [
                  {
                      "value": "2.4.3.52854"
                  }
              ],
              "modelNumber": "2.4.3",
              "note": [
                  {
                      "text": "Testactivity"
                  }
              ]
          },
          "request": {
              "method": "PUT",
              "url": "Device/4b549918-a84d-cdaf-e150-c773a5d306e5"
          }
      },
      {
          "fullUrl": "urn:uuid:bab57240-4a39-435b-578f-50b090bab311",
          "resource": {
              "resourceType": "Patient",
              "id": "bab57240-4a39-435b-578f-50b090bab311",
              "identifier": [
                  {
                      "value": "00000-0000000"
                  },
                  {
                      "value": "000000"
                  },
                  {
                      "value": "000-00-0000",
                      "type": {
                          "coding": [
                              {
                                  "code": "SB",
                                  "system": "http://terminology.hl7.org/CodeSystem/v2-0203"
                              }
                          ]
                      },
                      "system": "http://hl7.org/fhir/sid/us-ssn"
                  }
              ],
              "name": [
                  {
                      "family": "AAAAAAAA",
                      "given": [
                          "AAAAAA",
                          "A"
                      ]
                  }
              ],
              "birthDate": "2019-04-11",
              "_birthDate": {
                  "extension": [
                      {
                          "url": "http://hl7.org/fhir/StructureDefinition/patient-birthTime",
                          "valueDateTime": "2019-04-11T13:31:33+05:30"
                      }
                  ]
              },
              "gender": "male",
              "address": [
                  {
                      "line": [
                          "00000 A AA AA AAA"
                      ],
                      "city": "AAAAAA",
                      "state": "AA",
                      "postalCode": "00000 "
                  }
              ],
              "telecom": [
                  {
                      "value": "(700)000-0000",
                      "system": "phone",
                      "use": "home"
                  }
              ],
              "maritalStatus": {
                  "coding": [
                      {
                          "code": "S",
                          "display": "Never Married",
                          "system": "http://terminology.hl7.org/CodeSystem/v3-MaritalStatus"
                      }
                  ]
              },
              "extension": [
                  {
                      "url": "http://hl7.org/fhir/us/core/StructureDefinition/us-core-race",
                      "extension": [
                          {
                              "url": "ombCategory",
                              "valueCoding": {
                                  "code": "U",
                                  "display": "U"
                              }
                          },
                          {
                              "url": "text",
                              "valueString": "U"
                          }
                      ]
                  }
              ]
          },
          "request": {
              "method": "PUT",
              "url": "Patient/bab57240-4a39-435b-578f-50b090bab311"
          }
      },
      {
          "fullUrl": "urn:uuid:e82402a9-b2d1-2a28-3250-c099d5a77bf7",
          "resource": {
              "resourceType": "Organization",
              "id": "e82402a9-b2d1-2a28-3250-c099d5a77bf7",
              "identifier": [
                  {
                      "value": "PERSt",
                      "system": "http://example.com/v2-to-fhir-converter/Identifier/PERSt"
                  },
                  {
                      "value": "1.23",
                      "system": "http://example.com/v2-to-fhir-converter/Identifier/HCD",
                      "type": {
                          "coding": [
                              {
                                  "code": "HCD",
                                  "display": "The CEN Healthcare Coding Scheme Designator",
                                  "system": "http://terminology.hl7.org/CodeSystem/v2-0301"
                              }
                          ]
                      }
                  }
              ]
          },
          "request": {
              "method": "PUT",
              "url": "Organization/e82402a9-b2d1-2a28-3250-c099d5a77bf7"
          }
      },
      {
          "fullUrl": "urn:uuid:ce70e6c3-c190-121d-c251-e4bae5cde6a1",
          "resource": {
              "resourceType": "Practitioner",
              "id": "ce70e6c3-c190-121d-c251-e4bae5cde6a1",
              "identifier": [
                  {
                      "value": "1134",
                      "system": "http://example.com/v2-to-fhir-converter/Identifier/HCD",
                      "assigner": {
                          "reference": "Organization/e82402a9-b2d1-2a28-3250-c099d5a77bf7"
                      },
                      "type": {
                          "coding": [
                              {
                                  "code": "BR",
                                  "display": "Birth registry number",
                                  "system": "http://terminology.hl7.org/CodeSystem/v2-0203"
                              }
                          ]
                      }
                  }
              ],
              "name": [
                  {
                      "family": "Aly",
                      "given": [
                          "Zafar",
                          "Mahendra"
                      ],
                      "suffix": [
                          "JR",
                          "MD",
                          "Al"
                      ],
                      "prefix": [
                          "Dr."
                      ],
                      "period": {
                          "start": "1924-10-10",
                          "end": "1924-10-15"
                      }
                  }
              ]
          },
          "request": {
              "method": "PUT",
              "url": "Practitioner/ce70e6c3-c190-121d-c251-e4bae5cde6a1"
          }
      },
      {
          "fullUrl": "urn:uuid:88a53755-c972-6904-b4ce-8884b84ddc2e",
          "resource": {
              "resourceType": "PractitionerRole",
              "id": "88a53755-c972-6904-b4ce-8884b84ddc2e",
              "code": [
                  {
                      "coding": [
                          {
                              "code": "RO",
                              "display": "Responsible Observer",
                              "system": "http://terminology.hl7.org/CodeSystem/v2-0443"
                          }
                      ]
                  }
              ],
              "practitioner": {
                  "reference": "Practitioner/ce70e6c3-c190-121d-c251-e4bae5cde6a1"
              }
          },
          "request": {
              "method": "PUT",
              "url": "PractitionerRole/88a53755-c972-6904-b4ce-8884b84ddc2e"
          }
      },
      {
          "fullUrl": "urn:uuid:3e0952c6-eea0-8938-96f8-07c224bf1577",
          "resource": {
              "resourceType": "Practitioner",
              "id": "3e0952c6-eea0-8938-96f8-07c224bf1577",
              "identifier": [
                  {
                      "value": "2234"
                  }
              ],
              "name": [
                  {
                      "family": "Pauly",
                      "given": [
                          "Berrie",
                          "Raud"
                      ]
                  }
              ]
          },
          "request": {
              "method": "PUT",
              "url": "Practitioner/3e0952c6-eea0-8938-96f8-07c224bf1577"
          }
      },
      {
          "fullUrl": "urn:uuid:bc78e290-ec67-c238-1e05-aefb6b252b0c",
          "resource": {
              "resourceType": "PractitionerRole",
              "id": "bc78e290-ec67-c238-1e05-aefb6b252b0c",
              "code": [
                  {
                      "coding": [
                          {
                              "code": "RO",
                              "display": "Responsible Observer",
                              "system": "http://terminology.hl7.org/CodeSystem/v2-0443"
                          }
                      ]
                  }
              ],
              "practitioner": {
                  "reference": "Practitioner/3e0952c6-eea0-8938-96f8-07c224bf1577"
              }
          },
          "request": {
              "method": "PUT",
              "url": "PractitionerRole/bc78e290-ec67-c238-1e05-aefb6b252b0c"
          }
      },
      {
          "fullUrl": "urn:uuid:960162f4-e8c5-e229-eb52-e6f3f6224edc",
          "resource": {
              "resourceType": "Device",
              "id": "960162f4-e8c5-e229-eb52-e6f3f6224edc",
              "identifier": [
                  {
                      "value": "EI12.3",
                      "system": "urn:uuid:426d2726-51fc-89fe-a946-8596e80a80eb",
                      "type": {
                          "coding": [
                              {
                                  "code": "GUID",
                                  "display": "The DCE Universal Unique Identifier, in accordance with RFC 4122. Recommended format is 32 hexadecimal digits separated by hyphens, in the digit grouping 8-4-4-4-12",
                                  "system": "http://terminology.hl7.org/CodeSystem/v2-0301"
                              }
                          ]
                      }
                  },
                  {
                      "system": "urn:oid:1.3.6.1.4.1.44750.1.2.2",
                      "type": {
                          "coding": [
                              {
                                  "code": "ISO",
                                  "display": "An International Standards Organization Object Identifier (OID), in accordance with ISO/IEC 8824. Formatted as decimal digits separated by periods; recommended limit of 64 characters",
                                  "system": "http://terminology.hl7.org/CodeSystem/v2-0301"
                              }
                          ]
                      }
                  }
              ]
          },
          "request": {
              "method": "PUT",
              "url": "Device/960162f4-e8c5-e229-eb52-e6f3f6224edc"
          }
      },
      {
          "fullUrl": "urn:uuid:45f65e47-46c4-1a54-f9fb-1321258e79b2",
          "resource": {
              "resourceType": "Practitioner",
              "id": "45f65e47-46c4-1a54-f9fb-1321258e79b2",
              "identifier": [
                  {
                      "type": {
                          "coding": [
                              {
                                  "code": "MD-25"
                              }
                          ]
                      }
                  }
              ]
          },
          "request": {
              "method": "PUT",
              "url": "Practitioner/45f65e47-46c4-1a54-f9fb-1321258e79b2"
          }
      },
      {
          "fullUrl": "urn:uuid:090ea2e4-0a3a-eb7f-8f9f-16dd7d13f7f3",
          "resource": {
              "resourceType": "PractitionerRole",
              "id": "090ea2e4-0a3a-eb7f-8f9f-16dd7d13f7f3",
              "code": [
                  {
                      "coding": [
                          {
                              "code": "MDIR",
                              "display": "Medical Director",
                              "system": "http://terminology.hl7.org/CodeSystem/v2-0443"
                          }
                      ]
                  }
              ],
              "practitioner": {
                  "reference": "Practitioner/45f65e47-46c4-1a54-f9fb-1321258e79b2"
              },
              "organization": {
                  "reference": "Organization/056aa7c7-6b75-3c67-63c5-cf9604f16d25"
              }
          },
          "request": {
              "method": "PUT",
              "url": "PractitionerRole/090ea2e4-0a3a-eb7f-8f9f-16dd7d13f7f3"
          }
      },
      {
          "fullUrl": "urn:uuid:056aa7c7-6b75-3c67-63c5-cf9604f16d25",
          "resource": {
              "resourceType": "Organization",
              "id": "056aa7c7-6b75-3c67-63c5-cf9604f16d25",
              "name": "FairOaks Hspital",
              "address": [
                  {
                      "line": [
                          "Research Park",
                          "Fairfax"
                      ],
                      "city": "VA",
                      "state": "22031",
                      "postalCode": "USA"
                  }
              ]
          },
          "request": {
              "method": "PUT",
              "url": "Organization/056aa7c7-6b75-3c67-63c5-cf9604f16d25"
          }
      },
      {
          "fullUrl": "urn:uuid:defae2eb-fc37-c2d8-c3b9-ec4611beacf1",
          "resource": {
              "resourceType": "Observation",
              "id": "defae2eb-fc37-c2d8-c3b9-ec4611beacf1",
              "identifier": [
                  {
                      "value": "EI21",
                      "system": "http://example.com/v2-to-fhir-converter/Identifier/OII"
                  },
                  {
                      "type": {
                          "coding": [
                              {
                                  "code": "FILL"
                              }
                          ]
                      }
                  }
              ],
              "status": "unknown",
              "code": {
                  "coding": [
                      {
                          "code": "8867-4",
                          "display": "heartrate",
                          "system": "http://loinc.org"
                      }
                  ]
              },
              "component": [
                  {
                      "code": {
                          "coding": [
                              {
                                  "code": "8867-4",
                                  "display": "heartrate",
                                  "system": "http://loinc.org"
                              }
                          ]
                      },
                      "valueQuantity": {
                          "value": 60,
                          "code": "beats/min",
                          "system": "urn:iso:std:iso:3986"
                      },
                      "referenceRange": [
                          {
                              "text": "70-80"
                          }
                      ]
                  },
                  {
                      "code": {
                          "coding": [
                              {
                                  "code": "8867-4",
                                  "display": "heartrate",
                                  "system": "http://loinc.org"
                              }
                          ]
                      },
                      "valueQuantity": {
                          "value": 120,
                          "code": "beats/min",
                          "system": "urn:iso:std:iso:3986"
                      },
                      "referenceRange": [
                          {
                              "text": "70-80"
                          }
                      ]
                  }
              ],
              "effectiveDateTime": "1999-07-02",
              "method": {
                  "coding": [
                      {
                          "code": "OBS",
                          "display": "This is test method",
                          "system": "http://example.com/v2-to-fhir-converter/CodeSystem/AS4"
                      }
                  ]
              },
              "device": {
                  "reference": "Device/960162f4-e8c5-e229-eb52-e6f3f6224edc"
              },
              "bodySite": {
                  "coding": [
                      {
                          "code": "BU",
                          "display": "Observation site",
                          "system": "http://example.com/v2-to-fhir-converter/CodeSystem/E5"
                      }
                  ]
              },
              "performer": [
                  {
                      "reference": "PractitionerRole/88a53755-c972-6904-b4ce-8884b84ddc2e"
                  },
                  {
                      "reference": "PractitionerRole/bc78e290-ec67-c238-1e05-aefb6b252b0c"
                  },
                  {
                      "reference": "PractitionerRole/090ea2e4-0a3a-eb7f-8f9f-16dd7d13f7f3"
                  }
              ],
              "interpretation": [
                  {
                      "coding": [
                          {
                              "code": "A",
                              "display": "Abnormal",
                              "system": "http://terminology.hl7.org/CodeSystem/v3-ObservationInterpretation"
                          }
                      ]
                  },
                  {
                      "coding": [
                          {
                              "code": "B",
                              "display": "Better",
                              "system": "http://terminology.hl7.org/CodeSystem/v3-ObservationInterpretation"
                          }
                      ]
                  }
              ],
              "subject": {
                  "reference": "Patient/bab57240-4a39-435b-578f-50b090bab311"
              },
              "extension": [
                  {
                      "url": "http://example.com/v2-to-fhir-converter/Observation_Status",
                      "valueCodeableConcept": {
                          "coding": [
                              {
                                  "code": "S",
                                  "display": "Partial",
                                  "system": "http://terminology.hl7.org/CodeSystem/v2-0085"
                              }
                          ],
                          "text": "Partial"
                      }
                  }
              ]
          },
          "request": {
              "method": "PUT",
              "url": "Observation/defae2eb-fc37-c2d8-c3b9-ec4611beacf1"
          }
      },
      {
          "fullUrl": "urn:uuid:270fd480-c315-53b2-d0bc-f714da2af549",
          "resource": {
              "resourceType": "Practitioner",
              "id": "270fd480-c315-53b2-d0bc-f714da2af549",
              "identifier": [
                  {
                      "value": "dszczepaniak"
                  }
              ]
          },
          "request": {
              "method": "PUT",
              "url": "Practitioner/270fd480-c315-53b2-d0bc-f714da2af549"
          }
      },
      {
          "fullUrl": "urn:uuid:7f6d6f85-ffa3-ae4e-acf9-99d8283241b8",
          "resource": {
              "resourceType": "Location",
              "id": "7f6d6f85-ffa3-ae4e-acf9-99d8283241b8",
              "name": "BMGPED",
              "mode": "instance",
              "description": "BMGPED",
              "physicalType": {
                  "coding": [
                      {
                          "system": "http://terminology.hl7.org/CodeSystem/location-physical-type",
                          "code": "si"
                      }
                  ]
              }
          },
          "request": {
              "method": "PUT",
              "url": "Location/7f6d6f85-ffa3-ae4e-acf9-99d8283241b8"
          }
      },
      {
          "fullUrl": "urn:uuid:fdc3ad13-2492-66ee-2e5a-8458bfdcdcc2",
          "resource": {
              "resourceType": "Encounter",
              "id": "fdc3ad13-2492-66ee-2e5a-8458bfdcdcc2",
              "class": {
                  "code": "AMB",
                  "display": "ambulatory",
                  "system": "http://terminology.hl7.org/CodeSystem/v3-ActCode"
              },
              "status": "in-progress",
              "location": [
                  {
                      "status": "active",
                      "location": {
                          "reference": "Location/7f6d6f85-ffa3-ae4e-acf9-99d8283241b8"
                      }
                  }
              ],
              "participant": [
                  {
                      "type": [
                          {
                              "coding": [
                                  {
                                      "code": "ATND",
                                      "system": "http://terminology.hl7.org/CodeSystem/v3-ParticipationType",
                                      "display": "attender"
                                  }
                              ]
                          }
                      ],
                      "individual": {
                          "reference": "Practitioner/270fd480-c315-53b2-d0bc-f714da2af549"
                      }
                  }
              ],
              "text": {
                  "status": "generated",
                  "div": "<div xmlns=\"http://www.w3.org/1999/xhtml\"><p><span>Visit Description: </span></p></div>"
              },
              "subject": {
                  "reference": "Patient/bab57240-4a39-435b-578f-50b090bab311"
              }
          },
          "request": {
              "method": "PUT",
              "url": "Encounter/fdc3ad13-2492-66ee-2e5a-8458bfdcdcc2"
          }
      },
      {
          "fullUrl": "urn:uuid:06949f56-829f-df97-ece0-eb2a42b4f1bf",
          "resource": {
              "resourceType": "Specimen",
              "id": "06949f56-829f-df97-ece0-eb2a42b4f1bf",
              "identifier": [
                  {
                      "value": "2017-PAT-123456-1",
                      "type": {
                          "coding": [
                              {
                                  "code": "PGN",
                                  "system": "http://terminology.hl7.org/CodeSystem/v2-0203"
                              }
                          ]
                      }
                  }
              ],
              "type": {
                  "coding": [
                      {
                          "code": "SKBP",
                          "display": "Biopsy, Skin",
                          "system": "http://terminology.hl7.org/CodeSystem/v2-0487"
                      }
                  ]
              },
              "container": [
                  {
                      "identifier": [
                          {
                              "value": "2017-PAT-123456-1-2-5"
                          }
                      ]
                  },
                  {
                      "additiveReference": {
                          "reference": "Substance/f285d64a-e338-e669-05d3-ed4e7ad0cea7"
                      }
                  }
              ],
              "accessionIdentifier": {
                  "value": "2017-PAT-123456",
                  "system": "http://example.com/v2-to-fhir-converter/Identifier/L"
              },
              "subject": {
                  "reference": "Patient/bab57240-4a39-435b-578f-50b090bab311"
              },
              "parent": [
                  {
                      "reference": "Specimen/29334ec4-0dc0-b4ab-30e9-421cf1a8a35d"
                  },
                  {
                      "reference": "Specimen/22f600b0-05d3-ca8b-2c5c-a83c911e5b02"
                  },
                  {
                      "reference": "Specimen/7d524989-2de6-e3ab-a64b-d653007c1966"
                  }
              ]
          },
          "request": {
              "method": "PUT",
              "url": "Specimen/06949f56-829f-df97-ece0-eb2a42b4f1bf"
          }
      },
      {
          "fullUrl": "urn:uuid:f285d64a-e338-e669-05d3-ed4e7ad0cea7",
          "resource": {
              "resourceType": "Substance",
              "id": "f285d64a-e338-e669-05d3-ed4e7ad0cea7",
              "code": {
                  "coding": [
                      {
                          "code": "SI1234",
                          "display": "Substance_ID",
                          "system": "http://example.com/v2-to-fhir-converter/CodeSystem/HL70451"
                      }
                  ]
              },
              "status": "active",
              "category": [
                  {
                      "coding": [
                          {
                              "code": "RC",
                              "display": "Reagent Calibrator",
                              "system": "http://example.com/v2-to-fhir-converter/CodeSystem/HL70384"
                          }
                      ]
                  }
              ],
              "instance": [
                  {
                      "identifier": {
                          "value": "CONT1234",
                          "system": "http://example.com/v2-to-fhir-converter/Identifier/LabID"
                      },
                      "quantity": {
                          "value": 50,
                          "code": "ML",
                          "unit": "Mili Litre",
                          "system": "http://unitsofmeasure.org"
                      },
                      "expiry": "2021-01-31"
                  }
              ],
              "identifier": [
                  {
                      "value": "TST_ID12"
                  },
                  {
                      "value": "MFG_Lot 12"
                  },
                  {
                      "value": "SUPL_ID 34"
                  }
              ]
          },
          "request": {
              "method": "PUT",
              "url": "Substance/f285d64a-e338-e669-05d3-ed4e7ad0cea7"
          }
      },
      {
          "fullUrl": "urn:uuid:29334ec4-0dc0-b4ab-30e9-421cf1a8a35d",
          "resource": {
              "resourceType": "Specimen",
              "id": "29334ec4-0dc0-b4ab-30e9-421cf1a8a35d",
              "identifier": [
                  {
                      "value": "2017-PAT-123456",
                      "type": {
                          "coding": [
                              {
                                  "code": "PGN",
                                  "system": "http://terminology.hl7.org/CodeSystem/v2-0203"
                              }
                          ]
                      }
                  }
              ]
          },
          "request": {
              "method": "PUT",
              "url": "Specimen/29334ec4-0dc0-b4ab-30e9-421cf1a8a35d"
          }
      },
      {
          "fullUrl": "urn:uuid:22f600b0-05d3-ca8b-2c5c-a83c911e5b02",
          "resource": {
              "resourceType": "Specimen",
              "id": "22f600b0-05d3-ca8b-2c5c-a83c911e5b02",
              "identifier": [
                  {
                      "value": "2017-PAT",
                      "type": {
                          "coding": [
                              {
                                  "code": "PGN",
                                  "system": "http://terminology.hl7.org/CodeSystem/v2-0203"
                              }
                          ]
                      }
                  }
              ]
          },
          "request": {
              "method": "PUT",
              "url": "Specimen/22f600b0-05d3-ca8b-2c5c-a83c911e5b02"
          }
      },
      {
          "fullUrl": "urn:uuid:7d524989-2de6-e3ab-a64b-d653007c1966",
          "resource": {
              "resourceType": "Specimen",
              "id": "7d524989-2de6-e3ab-a64b-d653007c1966",
              "identifier": [
                  {
                      "value": "2017",
                      "type": {
                          "coding": [
                              {
                                  "code": "PGN",
                                  "system": "http://terminology.hl7.org/CodeSystem/v2-0203"
                              }
                          ]
                      }
                  }
              ]
          },
          "request": {
              "method": "PUT",
              "url": "Specimen/7d524989-2de6-e3ab-a64b-d653007c1966"
          }
      },
      {
          "fullUrl": "urn:uuid:7c80a3d2-db3e-23d7-fbcf-137c241ac9d9",
          "resource": {
              "resourceType": "Observation",
              "id": "7c80a3d2-db3e-23d7-fbcf-137c241ac9d9",
              "identifier": [
                  {
                      "value": "EI21",
                      "system": "http://example.com/v2-to-fhir-converter/Identifier/OII"
                  },
                  {
                      "type": {
                          "coding": [
                              {
                                  "code": "FILL"
                              }
                          ]
                      }
                  }
              ],
              "status": "unknown",
              "code": {
                  "coding": [
                      {
                          "code": "8867-4",
                          "display": "heartrate",
                          "system": "http://loinc.org"
                      }
                  ]
              },
              "component": [
                  {
                      "code": {
                          "coding": [
                              {
                                  "code": "8867-4",
                                  "display": "heartrate",
                                  "system": "http://loinc.org"
                              }
                          ]
                      },
                      "valueCodeableConcept": {
                          "coding": [
                              {
                                  "code": "160"
                              }
                          ]
                      },
                      "referenceRange": [
                          {
                              "text": "100-120"
                          }
                      ]
                  },
                  {
                      "code": {
                          "coding": [
                              {
                                  "code": "8867-4",
                                  "display": "heartrate",
                                  "system": "http://loinc.org"
                              }
                          ]
                      },
                      "valueCodeableConcept": {
                          "coding": [
                              {
                                  "code": "120"
                              }
                          ]
                      },
                      "referenceRange": [
                          {
                              "text": "100-120"
                          }
                      ]
                  }
              ],
              "effectiveDateTime": "1999-08-02",
              "method": {
                  "coding": [
                      {
                          "code": "OBS",
                          "display": "This is test method",
                          "system": "http://example.com/v2-to-fhir-converter/CodeSystem/AS4"
                      }
                  ]
              },
              "device": {
                  "reference": "Device/960162f4-e8c5-e229-eb52-e6f3f6224edc"
              },
              "bodySite": {
                  "coding": [
                      {
                          "code": "BU",
                          "display": "Observation site",
                          "system": "http://example.com/v2-to-fhir-converter/CodeSystem/E5"
                      }
                  ]
              },
              "performer": [
                  {
                      "reference": "PractitionerRole/88a53755-c972-6904-b4ce-8884b84ddc2e"
                  },
                  {
                      "reference": "PractitionerRole/bc78e290-ec67-c238-1e05-aefb6b252b0c"
                  },
                  {
                      "reference": "PractitionerRole/090ea2e4-0a3a-eb7f-8f9f-16dd7d13f7f3"
                  }
              ],
              "interpretation": [
                  {
                      "coding": [
                          {
                              "code": "A",
                              "display": "Abnormal",
                              "system": "http://terminology.hl7.org/CodeSystem/v3-ObservationInterpretation"
                          }
                      ]
                  },
                  {
                      "coding": [
                          {
                              "code": "B",
                              "display": "Better",
                              "system": "http://terminology.hl7.org/CodeSystem/v3-ObservationInterpretation"
                          }
                      ]
                  }
              ],
              "subject": {
                  "reference": "Patient/bab57240-4a39-435b-578f-50b090bab311"
              },
              "specimen": {
                  "reference": "Specimen/06949f56-829f-df97-ece0-eb2a42b4f1bf"
              },
              "extension": [
                  {
                      "url": "http://example.com/v2-to-fhir-converter/Observation_Status",
                      "valueCodeableConcept": {
                          "coding": [
                              {
                                  "code": "S",
                                  "display": "Partial",
                                  "system": "http://terminology.hl7.org/CodeSystem/v2-0085"
                              }
                          ],
                          "text": "Partial"
                      }
                  }
              ]
          },
          "request": {
              "method": "PUT",
              "url": "Observation/7c80a3d2-db3e-23d7-fbcf-137c241ac9d9"
          }
      },
      {
          "fullUrl": "urn:uuid:c2c19e02-069d-00e1-3a63-0f8115e4e043",
          "resource": {
              "resourceType": "ServiceRequest",
              "id": "c2c19e02-069d-00e1-3a63-0f8115e4e043",
              "status": "completed",
              "intent": "order",
              "identifier": [
                  {
                      "value": "5ca95f51971d414bbcb4be9ca88e9846",
                      "system": "http://example.com/v2-to-fhir-converter/Identifier/L",
                      "type": {
                          "coding": [
                              {
                                  "code": "PLAC",
                                  "system": "http://terminology.hl7.org/CodeSystem/v2-0203"
                              }
                          ]
                      }
                  },
                  {
                      "value": "40bcbe96bcbf8cda8b07403263b92cb4",
                      "type": {
                          "coding": [
                              {
                                  "code": "FILL",
                                  "system": "http://terminology.hl7.org/CodeSystem/v2-0203"
                              }
                          ]
                      }
                  },
                  {
                      "value": "9adf2339de714c6698063e3ddf5d0167&L",
                      "system": "http://example.com/v2-to-fhir-converter/Identifier/47371996286d40019903e76ba57e49e8&L",
                      "type": {
                          "coding": [
                              {
                                  "code": "PGN",
                                  "system": "http://terminology.hl7.org/CodeSystem/v2-0203"
                              }
                          ]
                      }
                  }
              ],
              "basedOn": [
                  {
                      "type": "ServiceRequest",
                      "identifier": {
                          "value": "PAI-8.1",
                          "type": {
                              "coding": [
                                  {
                                      "code": "PLAC",
                                      "system": "http://terminology.hl7.org/CodeSystem/v2-0203"
                                  }
                              ]
                          }
                      }
                  }
              ],
              "code": {
                  "coding": [
                      {
                          "code": "SCAN",
                          "display": "Scan Slide",
                          "system": "http://example.com/v2-to-fhir-converter/CodeSystem/3DHISTECH"
                      }
                  ]
              },
              "subject": {
                  "reference": "Patient/bab57240-4a39-435b-578f-50b090bab311"
              },
              "requester": {
                  "reference": "PractitionerRole/5533879c-986a-e0e9-3a02-dfa544988682"
              },
              "specimen": [
                  {
                      "reference": "Specimen/06949f56-829f-df97-ece0-eb2a42b4f1bf"
                  }
              ],
              "encounter": {
                  "reference": "Encounter/fdc3ad13-2492-66ee-2e5a-8458bfdcdcc2"
              },
              "reasonReference": [
                  {
                      "reference": "DocumentReference/c9562bfa-117f-9b25-6657-9b7cff7e1674"
                  }
              ],
              "note": [
                  {
                      "text": "Submission of serum",
                      "time": "2020-10-10T19:15:00+05:30",
                      "authorReference": {
                          "reference": "Practitioner/ca6d10cc-e8a7-9d21-bd61-ec6d1db557c2"
                      }
                  }
              ]
          },
          "request": {
              "method": "PUT",
              "url": "ServiceRequest/c2c19e02-069d-00e1-3a63-0f8115e4e043"
          }
      },
      {
          "fullUrl": "urn:uuid:56ba2e27-0822-82bb-4fd6-ca53c8ce4142",
          "resource": {
              "resourceType": "Organization",
              "id": "56ba2e27-0822-82bb-4fd6-ca53c8ce4142",
              "name": "Pathology Dep."
          },
          "request": {
              "method": "PUT",
              "url": "Organization/56ba2e27-0822-82bb-4fd6-ca53c8ce4142"
          }
      },
      {
          "fullUrl": "urn:uuid:5533879c-986a-e0e9-3a02-dfa544988682",
          "resource": {
              "resourceType": "PractitionerRole",
              "id": "5533879c-986a-e0e9-3a02-dfa544988682",
              "organization": {
                  "reference": "Organization/56ba2e27-0822-82bb-4fd6-ca53c8ce4142"
              }
          },
          "request": {
              "method": "PUT",
              "url": "PractitionerRole/5533879c-986a-e0e9-3a02-dfa544988682"
          }
      },
      {
          "fullUrl": "urn:uuid:a361cb66-96d6-9c04-fd14-3a599184f451",
          "resource": {
              "resourceType": "DiagnosticReport",
              "id": "a361cb66-96d6-9c04-fd14-3a599184f451",
              "identifier": [
                  {
                      "value": "5ca95f51971d414bbcb4be9ca88e9846",
                      "system": "http://example.com/v2-to-fhir-converter/Identifier/L",
                      "type": {
                          "coding": [
                              {
                                  "code": "PLAC",
                                  "system": "http://terminology.hl7.org/CodeSystem/v2-0203"
                              }
                          ]
                      }
                  },
                  {
                      "value": "40bcbe96bcbf8cda8b07403263b92cb4",
                      "type": {
                          "coding": [
                              {
                                  "code": "FILL",
                                  "system": "http://terminology.hl7.org/CodeSystem/v2-0203"
                              }
                          ]
                      }
                  },
                  {
                      "value": "9adf2339de714c6698063e3ddf5d0167&L",
                      "system": "http://example.com/v2-to-fhir-converter/Identifier/47371996286d40019903e76ba57e49e8&L",
                      "type": {
                          "coding": [
                              {
                                  "code": "PGN",
                                  "system": "http://terminology.hl7.org/CodeSystem/v2-0203"
                              }
                          ]
                      }
                  }
              ],
              "code": {
                  "coding": [
                      {
                          "code": "SCAN",
                          "display": "Scan Slide",
                          "system": "http://example.com/v2-to-fhir-converter/CodeSystem/3DHISTECH"
                      }
                  ]
              },
              "status": "unknown",
              "subject": {
                  "reference": "Patient/bab57240-4a39-435b-578f-50b090bab311"
              },
              "basedOn": [
                  {
                      "reference": "ServiceRequest/c2c19e02-069d-00e1-3a63-0f8115e4e043"
                  }
              ],
              "specimen": [
                  {
                      "reference": "Specimen/06949f56-829f-df97-ece0-eb2a42b4f1bf"
                  }
              ]
          },
          "request": {
              "method": "PUT",
              "url": "DiagnosticReport/a361cb66-96d6-9c04-fd14-3a599184f451"
          }
      },
      {
          "fullUrl": "urn:uuid:c9562bfa-117f-9b25-6657-9b7cff7e1674",
          "resource": {
              "resourceType": "DocumentReference",
              "id": "c9562bfa-117f-9b25-6657-9b7cff7e1674",
              "type": {
                  "coding": [
                      {
                          "code": "DIS"
                      }
                  ]
              },
              "context": {
                  "period": {
                      "start": "2010-11-10T21:33:00+05:30"
                  },
                  "related": [
                      {
                          "reference": "Practitioner/947f0d75-9af8-89a8-95bd-ff52ff01c0ca"
                      }
                  ]
              },
              "content": [
                  {
                      "attachment": {
                          "creation": "2010-11-03T03:15:00+05:30",
                          "contentType": "image/jpeg"
                      }
                  }
              ],
              "meta": {
                  "lastUpdated": "2010-11-03T17:01:00+05:30"
              },
              "author": [
                  {
                      "reference": "PractitionerRole/ad4f4bb2-0d02-6ca5-aa3b-ec7536350534"
                  }
              ],
              "authenticator": {
                  "reference": "PractitionerRole/d584ea61-be76-cc13-dd34-14aacfeec6ce"
              },
              "masterIdentifier": {
                  "value": "018840"
              },
              "identifier": [
                  {
                      "value": "54302-DEX",
                      "type": {
                          "coding": [
                              {
                                  "system": "http://example.com/v2-to-fhir-converter/CodeSystem/identifier-type-code",
                                  "code": "DOCI",
                                  "display": "Document Unique Identifier"
                              }
                          ],
                          "text": "Document unique file name"
                      }
                  }
              ],
              "relatesTo": [
                  {
                      "code": "appends",
                      "target": {
                          "type": "DocumentReference",
                          "identifier": {
                              "value": "1307506",
                              "system": "http://example.com/v2-to-fhir-converter/Identifier/test"
                          }
                      }
                  }
              ],
              "docStatus": "preliminary",
              "securityLabel": [
                  {
                      "coding": [
                          {
                              "code": "R",
                              "system": "http://terminology.hl7.org/CodeSystem/v3-Confidentiality"
                          }
                      ]
                  }
              ],
              "status": "current",
              "category": [
                  {
                      "coding": [
                          {
                              "code": "radiology report"
                          }
                      ]
                  }
              ],
              "description": "string ofCharacters",
              "subject": {
                  "reference": "Patient/bab57240-4a39-435b-578f-50b090bab311"
              }
          },
          "request": {
              "method": "PUT",
              "url": "DocumentReference/c9562bfa-117f-9b25-6657-9b7cff7e1674"
          }
      },
      {
          "fullUrl": "urn:uuid:947f0d75-9af8-89a8-95bd-ff52ff01c0ca",
          "resource": {
              "resourceType": "Practitioner",
              "id": "947f0d75-9af8-89a8-95bd-ff52ff01c0ca",
              "identifier": [
                  {
                      "value": "John Smith"
                  }
              ]
          },
          "request": {
              "method": "PUT",
              "url": "Practitioner/947f0d75-9af8-89a8-95bd-ff52ff01c0ca"
          }
      },
      {
          "fullUrl": "urn:uuid:a0aa5af5-861a-b4eb-7cdf-7e307438caac",
          "resource": {
              "resourceType": "Practitioner",
              "id": "a0aa5af5-861a-b4eb-7cdf-7e307438caac",
              "identifier": [
                  {
                      "value": "Chris Rock"
                  }
              ]
          },
          "request": {
              "method": "PUT",
              "url": "Practitioner/a0aa5af5-861a-b4eb-7cdf-7e307438caac"
          }
      },
      {
          "fullUrl": "urn:uuid:ad4f4bb2-0d02-6ca5-aa3b-ec7536350534",
          "resource": {
              "resourceType": "PractitionerRole",
              "id": "ad4f4bb2-0d02-6ca5-aa3b-ec7536350534",
              "practitioner": {
                  "reference": "Practitioner/a0aa5af5-861a-b4eb-7cdf-7e307438caac"
              }
          },
          "request": {
              "method": "PUT",
              "url": "PractitionerRole/ad4f4bb2-0d02-6ca5-aa3b-ec7536350534"
          }
      },
      {
          "fullUrl": "urn:uuid:d7921b9f-42a0-6e35-cc6e-ca15c5af36bb",
          "resource": {
              "resourceType": "Practitioner",
              "id": "d7921b9f-42a0-6e35-cc6e-ca15c5af36bb",
              "identifier": [
                  {
                      "value": "Emma Watson"
                  }
              ]
          },
          "request": {
              "method": "PUT",
              "url": "Practitioner/d7921b9f-42a0-6e35-cc6e-ca15c5af36bb"
          }
      },
      {
          "fullUrl": "urn:uuid:d584ea61-be76-cc13-dd34-14aacfeec6ce",
          "resource": {
              "resourceType": "PractitionerRole",
              "id": "d584ea61-be76-cc13-dd34-14aacfeec6ce",
              "practitioner": {
                  "reference": "Practitioner/d7921b9f-42a0-6e35-cc6e-ca15c5af36bb"
              }
          },
          "request": {
              "method": "PUT",
              "url": "PractitionerRole/d584ea61-be76-cc13-dd34-14aacfeec6ce"
          }
      },
      {
          "fullUrl": "urn:uuid:ca6d10cc-e8a7-9d21-bd61-ec6d1db557c2",
          "resource": {
              "resourceType": "Practitioner",
              "id": "ca6d10cc-e8a7-9d21-bd61-ec6d1db557c2",
              "identifier": [
                  {
                      "value": "MLEE"
                  }
              ],
              "name": [
                  {
                      "family": "ATTEND",
                      "given": [
                          "AARON",
                          "A"
                      ],
                      "suffix": [
                          "MD"
                      ]
                  }
              ]
          },
          "request": {
              "method": "PUT",
              "url": "Practitioner/ca6d10cc-e8a7-9d21-bd61-ec6d1db557c2"
          }
      },
      {
          "fullUrl": "urn:uuid:6b6a33c3-a435-90ec-be9e-ce6fd121f004",
          "resource": {
              "resourceType": "DiagnosticReport",
              "id": "6b6a33c3-a435-90ec-be9e-ce6fd121f004",
              "identifier": [
                  {
                      "value": "40bcbe96bcbf8cda8b07403263b92cb4",
                      "system": "http://example.com/v2-to-fhir-converter/Identifier/3DHISTECH_SLDID"
                  },
                  {
                      "type": {
                          "coding": [
                              {
                                  "code": "FILL"
                              }
                          ]
                      }
                  }
              ],
              "code": {
                  "coding": [
                      {
                          "code": "3DHISTECH_SLD",
                          "display": "3DHISTECH Digital Slide",
                          "system": "http://example.com/v2-to-fhir-converter/CodeSystem/L"
                      }
                  ]
              },
              "status": "unknown",
              "presentedForm": [
                  {
                      "contentType": "image/MRXS",
                      "url": "http://172.16.237.4/CaseCenter/index.php?ContainerType=CaseView&ContainerID=0&SlideID=40bcbe96bcbf8cda8b07403263b92cb4"
                  }
              ],
              "subject": {
                  "reference": "Patient/bab57240-4a39-435b-578f-50b090bab311"
              },
              "basedOn": [
                  {
                      "reference": "ServiceRequest/c2c19e02-069d-00e1-3a63-0f8115e4e043"
                  }
              ]
          },
          "request": {
              "method": "PUT",
              "url": "DiagnosticReport/6b6a33c3-a435-90ec-be9e-ce6fd121f004"
          }
      },
      {
          "fullUrl": "urn:uuid:f0c2a76a-0153-71b1-836e-ece181260cc2",
          "resource": {
              "resourceType": "Specimen",
              "id": "f0c2a76a-0153-71b1-836e-ece181260cc2",
              "identifier": [
                  {
                      "value": "2018-PAT-123456-1",
                      "type": {
                          "coding": [
                              {
                                  "code": "PGN",
                                  "system": "http://terminology.hl7.org/CodeSystem/v2-0203"
                              }
                          ]
                      }
                  }
              ],
              "type": {
                  "coding": [
                      {
                          "code": "SKBP",
                          "display": "Biopsy, Skin",
                          "system": "http://terminology.hl7.org/CodeSystem/v2-0487"
                      }
                  ]
              },
              "container": [
                  {
                      "identifier": [
                          {
                              "value": "2018-PAT-123456-1-2-5"
                          }
                      ]
                  },
                  {
                      "additiveReference": {
                          "reference": "Substance/03218fed-e075-17f5-eed3-9733b929be0a"
                      }
                  }
              ],
              "accessionIdentifier": {
                  "value": "2018-PAT-123456",
                  "system": "http://example.com/v2-to-fhir-converter/Identifier/L"
              },
              "subject": {
                  "reference": "Patient/bab57240-4a39-435b-578f-50b090bab311"
              },
              "parent": [
                  {
                      "reference": "Specimen/3a8c6870-b192-5d03-4d4d-ca62e32c799d"
                  },
                  {
                      "reference": "Specimen/b79a41c3-b416-5aba-39e3-7e05aa6c0b12"
                  },
                  {
                      "reference": "Specimen/7d524989-2de6-e3ab-a64b-d653007c1966"
                  }
              ]
          },
          "request": {
              "method": "PUT",
              "url": "Specimen/f0c2a76a-0153-71b1-836e-ece181260cc2"
          }
      },
      {
          "fullUrl": "urn:uuid:03218fed-e075-17f5-eed3-9733b929be0a",
          "resource": {
              "resourceType": "Substance",
              "id": "03218fed-e075-17f5-eed3-9733b929be0a",
              "code": {
                  "coding": [
                      {
                          "code": "SI12345",
                          "display": "Substance_ID1",
                          "system": "http://example.com/v2-to-fhir-converter/CodeSystem/HL704512"
                      }
                  ]
              },
              "status": "active",
              "category": [
                  {
                      "coding": [
                          {
                              "code": "RC",
                              "display": "Reagent Calibrator",
                              "system": "http://example.com/v2-to-fhir-converter/CodeSystem/HL70384"
                          }
                      ]
                  }
              ],
              "instance": [
                  {
                      "identifier": {
                          "value": "CONT1234",
                          "system": "http://example.com/v2-to-fhir-converter/Identifier/LabID"
                      },
                      "quantity": {
                          "value": 50,
                          "code": "ML",
                          "unit": "Mili Litre",
                          "system": "http://unitsofmeasure.org"
                      },
                      "expiry": "2021-01-31"
                  }
              ],
              "identifier": [
                  {
                      "value": "TST_ID12"
                  },
                  {
                      "value": "MFG_Lot 12"
                  },
                  {
                      "value": "SUPL_ID 34"
                  }
              ]
          },
          "request": {
              "method": "PUT",
              "url": "Substance/03218fed-e075-17f5-eed3-9733b929be0a"
          }
      },
      {
          "fullUrl": "urn:uuid:3a8c6870-b192-5d03-4d4d-ca62e32c799d",
          "resource": {
              "resourceType": "Specimen",
              "id": "3a8c6870-b192-5d03-4d4d-ca62e32c799d",
              "identifier": [
                  {
                      "value": "2018-PAT-123456",
                      "type": {
                          "coding": [
                              {
                                  "code": "PGN",
                                  "system": "http://terminology.hl7.org/CodeSystem/v2-0203"
                              }
                          ]
                      }
                  }
              ]
          },
          "request": {
              "method": "PUT",
              "url": "Specimen/3a8c6870-b192-5d03-4d4d-ca62e32c799d"
          }
      },
      {
          "fullUrl": "urn:uuid:b79a41c3-b416-5aba-39e3-7e05aa6c0b12",
          "resource": {
              "resourceType": "Specimen",
              "id": "b79a41c3-b416-5aba-39e3-7e05aa6c0b12",
              "identifier": [
                  {
                      "value": "2018-PAT",
                      "type": {
                          "coding": [
                              {
                                  "code": "PGN",
                                  "system": "http://terminology.hl7.org/CodeSystem/v2-0203"
                              }
                          ]
                      }
                  }
              ]
          },
          "request": {
              "method": "PUT",
              "url": "Specimen/b79a41c3-b416-5aba-39e3-7e05aa6c0b12"
          }
      },
      {
          "fullUrl": "urn:uuid:4f6daab9-2509-9217-8920-1561570f9fc3",
          "resource": {
              "resourceType": "Observation",
              "id": "4f6daab9-2509-9217-8920-1561570f9fc3",
              "identifier": [
                  {
                      "value": "EI21",
                      "system": "http://example.com/v2-to-fhir-converter/Identifier/OII"
                  },
                  {
                      "type": {
                          "coding": [
                              {
                                  "code": "FILL"
                              }
                          ]
                      }
                  }
              ],
              "status": "unknown",
              "code": {
                  "coding": [
                      {
                          "code": "8867-4",
                          "display": "heartrate",
                          "system": "http://loinc.org"
                      }
                  ]
              },
              "valueCodeableConcept": {
                  "coding": [
                      {
                          "code": "60"
                      }
                  ]
              },
              "referenceRange": [
                  {
                      "text": "100-120"
                  }
              ],
              "effectiveDateTime": "2000-08-02",
              "method": {
                  "coding": [
                      {
                          "code": "OBS",
                          "display": "This is test method",
                          "system": "http://example.com/v2-to-fhir-converter/CodeSystem/AS4"
                      }
                  ]
              },
              "device": {
                  "reference": "Device/960162f4-e8c5-e229-eb52-e6f3f6224edc"
              },
              "bodySite": {
                  "coding": [
                      {
                          "code": "BU",
                          "display": "Observation site",
                          "system": "http://example.com/v2-to-fhir-converter/CodeSystem/E5"
                      }
                  ]
              },
              "performer": [
                  {
                      "reference": "PractitionerRole/88a53755-c972-6904-b4ce-8884b84ddc2e"
                  },
                  {
                      "reference": "PractitionerRole/bc78e290-ec67-c238-1e05-aefb6b252b0c"
                  },
                  {
                      "reference": "PractitionerRole/090ea2e4-0a3a-eb7f-8f9f-16dd7d13f7f3"
                  }
              ],
              "interpretation": [
                  {
                      "coding": [
                          {
                              "code": "A",
                              "display": "Abnormal",
                              "system": "http://terminology.hl7.org/CodeSystem/v3-ObservationInterpretation"
                          }
                      ]
                  },
                  {
                      "coding": [
                          {
                              "code": "B",
                              "display": "Better",
                              "system": "http://terminology.hl7.org/CodeSystem/v3-ObservationInterpretation"
                          }
                      ]
                  }
              ],
              "subject": {
                  "reference": "Patient/bab57240-4a39-435b-578f-50b090bab311"
              },
              "specimen": {
                  "reference": "Specimen/f0c2a76a-0153-71b1-836e-ece181260cc2"
              },
              "extension": [
                  {
                      "url": "http://example.com/v2-to-fhir-converter/Observation_Status",
                      "valueCodeableConcept": {
                          "coding": [
                              {
                                  "code": "S",
                                  "display": "Partial",
                                  "system": "http://terminology.hl7.org/CodeSystem/v2-0085"
                              }
                          ],
                          "text": "Partial"
                      }
                  }
              ]
          },
          "request": {
              "method": "PUT",
              "url": "Observation/4f6daab9-2509-9217-8920-1561570f9fc3"
          }
      },
      {
          "fullUrl": "urn:uuid:fdf7f449-205a-3ba5-89b8-ed375d5aa562",
          "resource": {
              "resourceType": "ServiceRequest",
              "id": "fdf7f449-205a-3ba5-89b8-ed375d5aa562",
              "status": "completed",
              "intent": "order",
              "identifier": [
                  {
                      "value": "5ca95f519414bbcb4be9ca88e9846",
                      "system": "http://example.com/v2-to-fhir-converter/Identifier/L",
                      "type": {
                          "coding": [
                              {
                                  "code": "PLAC",
                                  "system": "http://terminology.hl7.org/CodeSystem/v2-0203"
                              }
                          ]
                      }
                  },
                  {
                      "value": "40bcbe9f8cda8b07403263b92cb4",
                      "type": {
                          "coding": [
                              {
                                  "code": "FILL",
                                  "system": "http://terminology.hl7.org/CodeSystem/v2-0203"
                              }
                          ]
                      }
                  },
                  {
                      "value": "9f2339de714c6698063e3ddf5d0167&L",
                      "system": "http://example.com/v2-to-fhir-converter/Identifier/47371996286d400199036ba57e49e8&L",
                      "type": {
                          "coding": [
                              {
                                  "code": "PGN",
                                  "system": "http://terminology.hl7.org/CodeSystem/v2-0203"
                              }
                          ]
                      }
                  }
              ],
              "basedOn": [
                  {
                      "type": "ServiceRequest",
                      "identifier": {
                          "value": "PAI-II-8.1",
                          "type": {
                              "coding": [
                                  {
                                      "code": "PLAC",
                                      "system": "http://terminology.hl7.org/CodeSystem/v2-0203"
                                  }
                              ]
                          }
                      }
                  }
              ],
              "code": {
                  "coding": [
                      {
                          "code": "SCAN",
                          "display": "can Slide",
                          "system": "http://example.com/v2-to-fhir-converter/CodeSystem/3DHISTECH"
                      }
                  ]
              },
              "subject": {
                  "reference": "Patient/bab57240-4a39-435b-578f-50b090bab311"
              },
              "requester": {
                  "reference": "PractitionerRole/5533879c-986a-e0e9-3a02-dfa544988682"
              },
              "specimen": [
                  {
                      "reference": "Specimen/f0c2a76a-0153-71b1-836e-ece181260cc2"
                  }
              ],
              "encounter": {
                  "reference": "Encounter/fdc3ad13-2492-66ee-2e5a-8458bfdcdcc2"
              },
              "reasonReference": [
                  {
                      "reference": "DocumentReference/53f0795f-f6dc-8f05-499e-9a0b4fe93a4f"
                  }
              ],
              "note": [
                  {
                      "text": "Submission",
                      "time": "2020-10-10T19:15:00+05:30",
                      "authorReference": {
                          "reference": "Practitioner/ca6d10cc-e8a7-9d21-bd61-ec6d1db557c2"
                      }
                  }
              ]
          },
          "request": {
              "method": "PUT",
              "url": "ServiceRequest/fdf7f449-205a-3ba5-89b8-ed375d5aa562"
          }
      },
      {
          "fullUrl": "urn:uuid:31489faa-bf0f-4e84-53f7-5d3cf0a37142",
          "resource": {
              "resourceType": "DiagnosticReport",
              "id": "31489faa-bf0f-4e84-53f7-5d3cf0a37142",
              "identifier": [
                  {
                      "value": "5ca95f519414bbcb4be9ca88e9846",
                      "system": "http://example.com/v2-to-fhir-converter/Identifier/L",
                      "type": {
                          "coding": [
                              {
                                  "code": "PLAC",
                                  "system": "http://terminology.hl7.org/CodeSystem/v2-0203"
                              }
                          ]
                      }
                  },
                  {
                      "value": "40bcbe9f8cda8b07403263b92cb4",
                      "type": {
                          "coding": [
                              {
                                  "code": "FILL",
                                  "system": "http://terminology.hl7.org/CodeSystem/v2-0203"
                              }
                          ]
                      }
                  },
                  {
                      "value": "9f2339de714c6698063e3ddf5d0167&L",
                      "system": "http://example.com/v2-to-fhir-converter/Identifier/47371996286d400199036ba57e49e8&L",
                      "type": {
                          "coding": [
                              {
                                  "code": "PGN",
                                  "system": "http://terminology.hl7.org/CodeSystem/v2-0203"
                              }
                          ]
                      }
                  }
              ],
              "code": {
                  "coding": [
                      {
                          "code": "SCAN",
                          "display": "can Slide",
                          "system": "http://example.com/v2-to-fhir-converter/CodeSystem/3DHISTECH"
                      }
                  ]
              },
              "status": "unknown",
              "subject": {
                  "reference": "Patient/bab57240-4a39-435b-578f-50b090bab311"
              },
              "basedOn": [
                  {
                      "reference": "ServiceRequest/fdf7f449-205a-3ba5-89b8-ed375d5aa562"
                  }
              ],
              "specimen": [
                  {
                      "reference": "Specimen/f0c2a76a-0153-71b1-836e-ece181260cc2"
                  }
              ]
          },
          "request": {
              "method": "PUT",
              "url": "DiagnosticReport/31489faa-bf0f-4e84-53f7-5d3cf0a37142"
          }
      },
      {
          "fullUrl": "urn:uuid:53f0795f-f6dc-8f05-499e-9a0b4fe93a4f",
          "resource": {
              "resourceType": "DocumentReference",
              "id": "53f0795f-f6dc-8f05-499e-9a0b4fe93a4f",
              "type": {
                  "coding": [
                      {
                          "code": "CN"
                      }
                  ]
              },
              "context": {
                  "period": {
                      "start": "2000-11-10T21:33:00+05:30"
                  },
                  "related": [
                      {
                          "reference": "Practitioner/7ec0f9d7-b133-aa6a-9741-9b536eb14fcb"
                      }
                  ]
              },
              "content": [
                  {
                      "attachment": {
                          "creation": "2000-11-03T03:15:00+05:30",
                          "contentType": "image/jpeg"
                      }
                  }
              ],
              "meta": {
                  "lastUpdated": "2000-11-03T17:01:00+05:30"
              },
              "author": [
                  {
                      "reference": "PractitionerRole/83992e43-371b-2d63-da1c-8957ccb895c4"
                  }
              ],
              "authenticator": {
                  "reference": "PractitionerRole/bb5742ea-aac6-6933-3b3f-58c70431765e"
              },
              "masterIdentifier": {
                  "value": "018841"
              },
              "identifier": [
                  {
                      "value": "54402-DEX",
                      "type": {
                          "coding": [
                              {
                                  "system": "http://example.com/v2-to-fhir-converter/CodeSystem/identifier-type-code",
                                  "code": "DOCI",
                                  "display": "Document Unique Identifier"
                              }
                          ],
                          "text": "Document unique file name"
                      }
                  }
              ],
              "relatesTo": [
                  {
                      "code": "appends",
                      "target": {
                          "type": "DocumentReference",
                          "identifier": {
                              "value": "1307507",
                              "system": "http://example.com/v2-to-fhir-converter/Identifier/test"
                          }
                      }
                  }
              ],
              "docStatus": "preliminary",
              "securityLabel": [
                  {
                      "coding": [
                          {
                              "code": "R",
                              "system": "http://terminology.hl7.org/CodeSystem/v3-Confidentiality"
                          }
                      ]
                  }
              ],
              "status": "current",
              "category": [
                  {
                      "coding": [
                          {
                              "code": "radiology report"
                          }
                      ]
                  }
              ],
              "description": "string ofCharacters",
              "subject": {
                  "reference": "Patient/bab57240-4a39-435b-578f-50b090bab311"
              }
          },
          "request": {
              "method": "PUT",
              "url": "DocumentReference/53f0795f-f6dc-8f05-499e-9a0b4fe93a4f"
          }
      },
      {
          "fullUrl": "urn:uuid:7ec0f9d7-b133-aa6a-9741-9b536eb14fcb",
          "resource": {
              "resourceType": "Practitioner",
              "id": "7ec0f9d7-b133-aa6a-9741-9b536eb14fcb",
              "identifier": [
                  {
                      "value": "Smith"
                  }
              ]
          },
          "request": {
              "method": "PUT",
              "url": "Practitioner/7ec0f9d7-b133-aa6a-9741-9b536eb14fcb"
          }
      },
      {
          "fullUrl": "urn:uuid:a2aa2bff-0f8e-2ef6-04eb-7ae59266f912",
          "resource": {
              "resourceType": "Practitioner",
              "id": "a2aa2bff-0f8e-2ef6-04eb-7ae59266f912",
              "identifier": [
                  {
                      "value": "Rock"
                  }
              ]
          },
          "request": {
              "method": "PUT",
              "url": "Practitioner/a2aa2bff-0f8e-2ef6-04eb-7ae59266f912"
          }
      },
      {
          "fullUrl": "urn:uuid:83992e43-371b-2d63-da1c-8957ccb895c4",
          "resource": {
              "resourceType": "PractitionerRole",
              "id": "83992e43-371b-2d63-da1c-8957ccb895c4",
              "practitioner": {
                  "reference": "Practitioner/a2aa2bff-0f8e-2ef6-04eb-7ae59266f912"
              }
          },
          "request": {
              "method": "PUT",
              "url": "PractitionerRole/83992e43-371b-2d63-da1c-8957ccb895c4"
          }
      },
      {
          "fullUrl": "urn:uuid:677a5c96-0a9b-1c91-3741-83e0574eb458",
          "resource": {
              "resourceType": "Practitioner",
              "id": "677a5c96-0a9b-1c91-3741-83e0574eb458",
              "identifier": [
                  {
                      "value": "Watson"
                  }
              ]
          },
          "request": {
              "method": "PUT",
              "url": "Practitioner/677a5c96-0a9b-1c91-3741-83e0574eb458"
          }
      },
      {
          "fullUrl": "urn:uuid:bb5742ea-aac6-6933-3b3f-58c70431765e",
          "resource": {
              "resourceType": "PractitionerRole",
              "id": "bb5742ea-aac6-6933-3b3f-58c70431765e",
              "practitioner": {
                  "reference": "Practitioner/677a5c96-0a9b-1c91-3741-83e0574eb458"
              }
          },
          "request": {
              "method": "PUT",
              "url": "PractitionerRole/bb5742ea-aac6-6933-3b3f-58c70431765e"
          }
      },
      {
          "fullUrl": "urn:uuid:c6c56e40-a853-e69a-a1f0-68eb31fd10b0",
          "resource": {
              "resourceType": "DiagnosticReport",
              "id": "c6c56e40-a853-e69a-a1f0-68eb31fd10b0",
              "code": {
                  "coding": [
                      {
                          "code": "3DHISTECH_PREVIEWCAM",
                          "display": "3DHISTECH Preview Camera Image",
                          "system": "http://example.com/v2-to-fhir-converter/CodeSystem/L"
                      },
                      {
                          "code": "S_IMAGE",
                          "display": "Supplemental Image",
                          "system": "http://example.com/v2-to-fhir-converter/CodeSystem/IHELAW"
                      }
                  ]
              },
              "status": "unknown",
              "presentedForm": [
                  {
                      "contentType": "image/jpeg",
                      "data": "VGhpcyBpcyBhIEJhc2U2NCBzdHJpbmc="
                  }
              ],
              "subject": {
                  "reference": "Patient/bab57240-4a39-435b-578f-50b090bab311"
              },
              "basedOn": [
                  {
                      "reference": "ServiceRequest/fdf7f449-205a-3ba5-89b8-ed375d5aa562"
                  }
              ]
          },
          "request": {
              "method": "PUT",
              "url": "DiagnosticReport/c6c56e40-a853-e69a-a1f0-68eb31fd10b0"
          }
      }
  ]
}