{
  "resourceType": "Bundle",
  "type": "batch",
  "timestamp": "2019-03-11T14:46:33+05:30",
  "identifier": {
      "value": "1932"
  },
  "id": "bffbfea9-267e-a449-3090-456fa7efbcc4",
  "entry": [
      {
          "fullUrl": "urn:uuid:8d442ccc-3354-4ead-022e-2edfb1a641c1",
          "resource": {
              "resourceType": "MessageHeader",
              "id": "8d442ccc-3354-4ead-022e-2edfb1a641c1",
              "source": {
                  "name": "CASECENTER",
                  "_endpoint": {
                      "extension": [
                          {
                              "url": "http://hl7.org/fhir/StructureDefinition/data-absent-reason",
                              "valueCode": "unknown"
                          }
                      ]
                  },
                  "version": "2.4.3.52854",
                  "software": "Rhapsody"
              },
              "destination": [
                  {
                      "name": "IHEPALM",
                      "_endpoint": {
                          "extension": [
                              {
                                  "url": "http://hl7.org/fhir/StructureDefinition/data-absent-reason",
                                  "valueCode": "unknown"
                              }
                          ]
                      }
                  }
              ],
              "meta": {
                  "tag": [
                      {
                          "code": "P",
                          "system": "http://terminology.hl7.org/CodeSystem/v2-0103"
                      }
                  ]
              },
              "eventCoding": {
                  "code": "R22",
                  "system": "http://terminology.hl7.org/CodeSystem/v2-0003",
                  "display": "OUL^R22^OUL_R22"
              },
              "sender": {
                  "reference": "Organization/afbbb131-40a9-ea62-0eb1-23f0f33e8b20"
              }
          },
          "request": {
              "method": "PUT",
              "url": "MessageHeader/8d442ccc-3354-4ead-022e-2edfb1a641c1"
          }
      },
      {
          "fullUrl": "urn:uuid:75e5af24-916d-b795-559b-b27d3228eda3",
          "resource": {
              "resourceType": "Provenance",
              "id": "75e5af24-916d-b795-559b-b27d3228eda3",
              "text": {
                  "status": "generated",
                  "div": "<div xmlns=\"http://www.w3.org/1999/xhtml\"><p><span>Resource bundle generated on 2022-03-28T09:33:37.459Z using Microsoft FHIR Converter.</span><span>Template Version: TEMPLATE_VERSION_PLACEHOLDER.</span><span>Template URL: https://github.com/microsoft/FHIR-Converter/releases/download/vTEMPLATE_VERSION_PLACEHOLDER/Hl7v2DefaultTemplates.tar.gz.</span><span>Root template: OUL_R22.</span></p></div>"
              },
              "occurredDateTime": "2019-03-11T14:46:33+05:30",
              "recorded": "2019-03-11T14:46:33+05:30",
              "agent": [
                  {
                      "type": {
                          "coding": [
                              {
                                  "code": "author",
                                  "system": "http://terminology.hl7.org/CodeSystem/provenance-participant-type"
                              }
                          ]
                      },
                      "who": {
                          "reference": "Organization/afbbb131-40a9-ea62-0eb1-23f0f33e8b20"
                      }
                  }
              ],
              "activity": {
                  "coding": [
                      {
                          "display": "OUL^R22^OUL_R22"
                      }
                  ]
              },
              "target": [
                  {
                      "reference": "Bundle/bffbfea9-267e-a449-3090-456fa7efbcc4"
                  }
              ]
          },
          "request": {
              "method": "PUT",
              "url": "Provenance/75e5af24-916d-b795-559b-b27d3228eda3"
          }
      },
      {
          "fullUrl": "urn:uuid:afbbb131-40a9-ea62-0eb1-23f0f33e8b20",
          "resource": {
              "resourceType": "Organization",
              "id": "afbbb131-40a9-ea62-0eb1-23f0f33e8b20",
              "identifier": [
                  {
                      "value": "CASECENTER FACILITY",
                      "system": "http://example.com/v2-to-fhir-converter/Identifier/CASECENTER-FACILITY"
                  }
              ]
          },
          "request": {
              "method": "PUT",
              "url": "Organization/afbbb131-40a9-ea62-0eb1-23f0f33e8b20"
          }
      },
      {
          "fullUrl": "urn:uuid:4b549918-a84d-cdaf-e150-c773a5d306e5",
          "resource": {
              "resourceType": "Device",
              "id": "4b549918-a84d-cdaf-e150-c773a5d306e5",
              "manufacturer": "Orion",
              "deviceName": [
                  {
                      "name": "Rhapsody",
                      "type": "manufacturer-name"
                  }
              ],
              "version": [
                  {
                      "value": "2.4.3.52854"
                  }
              ],
              "modelNumber": "2.4.3",
              "note": [
                  {
                      "text": "Testactivity"
                  }
              ]
          },
          "request": {
              "method": "PUT",
              "url": "Device/4b549918-a84d-cdaf-e150-c773a5d306e5"
          }
      },
      {
          "fullUrl": "urn:uuid:bab57240-4a39-435b-578f-50b090bab311",
          "resource": {
              "resourceType": "Patient",
              "id": "bab57240-4a39-435b-578f-50b090bab311",
              "identifier": [
                  {
                      "value": "00000-0000000"
                  },
                  {
                      "value": "000000"
                  },
                  {
                      "value": "000-00-0000",
                      "type": {
                          "coding": [
                              {
                                  "code": "SB",
                                  "system": "http://terminology.hl7.org/CodeSystem/v2-0203"
                              }
                          ]
                      },
                      "system": "http://hl7.org/fhir/sid/us-ssn"
                  }
              ],
              "name": [
                  {
                      "family": "AAAAAAAA",
                      "given": [
                          "AAAAAA",
                          "A"
                      ]
                  }
              ],
              "birthDate": "2019-04-11",
              "_birthDate": {
                  "extension": [
                      {
                          "url": "http://hl7.org/fhir/StructureDefinition/patient-birthTime",
                          "valueDateTime": "2019-04-11T13:31:33+05:30"
                      }
                  ]
              },
              "gender": "male",
              "address": [
                  {
                      "line": [
                          "00000 A AA AA AAA"
                      ],
                      "city": "AAAAAA",
                      "state": "AA",
                      "postalCode": "00000 "
                  }
              ],
              "telecom": [
                  {
                      "value": "(700)000-0000",
                      "system": "phone",
                      "use": "home"
                  }
              ],
              "maritalStatus": {
                  "coding": [
                      {
                          "code": "S",
                          "display": "Never Married",
                          "system": "http://terminology.hl7.org/CodeSystem/v3-MaritalStatus"
                      }
                  ]
              },
              "extension": [
                  {
                      "url": "http://hl7.org/fhir/us/core/StructureDefinition/us-core-race",
                      "extension": [
                          {
                              "url": "ombCategory",
                              "valueCoding": {
                                  "code": "U",
                                  "display": "U"
                              }
                          },
                          {
                              "url": "text",
                              "valueString": "U"
                          }
                      ]
                  }
              ],
              "generalPractitioner": [
                  {
                      "reference": "PractitionerRole/69919204-f9b6-2966-d568-fa1c1405ca79"
                  }
              ]
          },
          "request": {
              "method": "PUT",
              "url": "Patient/bab57240-4a39-435b-578f-50b090bab311"
          }
      },
      {
          "fullUrl": "urn:uuid:69919204-f9b6-2966-d568-fa1c1405ca79",
          "resource": {
              "resourceType": "PractitionerRole",
              "id": "69919204-f9b6-2966-d568-fa1c1405ca79",
              "code": [
                  {
                      "coding": [
                          {
                              "code": "AD",
                              "display": "Admitting Provider",
                              "system": "http://terminology.hl7.org/CodeSystem/v2-0443"
                          }
                      ]
                  }
              ],
              "location": [
                  {
                      "reference": "Location/7e8c8f5b-e366-6646-d2c0-e943bd9d1145"
                  }
              ],
              "organization": {
                  "reference": "Organization/a5f89225-9b37-737d-9b70-c9cf83668801"
              },
              "practitioner": {
                  "reference": "Practitioner/4a47872d-8caf-a176-37c5-61d9e7f2d328"
              }
          },
          "request": {
              "method": "PUT",
              "url": "PractitionerRole/69919204-f9b6-2966-d568-fa1c1405ca79"
          }
      },
      {
          "fullUrl": "urn:uuid:4a47872d-8caf-a176-37c5-61d9e7f2d328",
          "resource": {
              "resourceType": "Practitioner",
              "id": "4a47872d-8caf-a176-37c5-61d9e7f2d328",
              "identifier": [
                  {
                      "value": "10535"
                  }
              ],
              "name": [
                  {
                      "family": "van Beethoven",
                      "given": [
                          "Ludwig",
                          "A"
                      ],
                      "suffix": [
                          "III",
                          "PHD"
                      ],
                      "prefix": [
                          "Dr"
                      ]
                  }
              ]
          },
          "request": {
              "method": "PUT",
              "url": "Practitioner/4a47872d-8caf-a176-37c5-61d9e7f2d328"
          }
      },
      {
          "fullUrl": "urn:uuid:7e8c8f5b-e366-6646-d2c0-e943bd9d1145",
          "resource": {
              "resourceType": "Location",
              "id": "7e8c8f5b-e366-6646-d2c0-e943bd9d1145",
              "partOf": {
                  "reference": "Location/ff93044f-a48c-31c6-e7bd-f400aff947e3"
              },
              "name": "HUH AE OMU",
              "identifier": [
                  {
                      "value": "urn:oid:9.8",
                      "system": "urn:ietf:rfc:3986"
                  }
              ],
              "mode": "instance",
              "description": "HUH AE OMU--9.8--ISO--OMU B--Bed 03--HOMERTON UNIVER--C--Homerton UH--Floor5",
              "physicalType": {
                  "coding": [
                      {
                          "system": "http://terminology.hl7.org/CodeSystem/location-physical-type",
                          "code": "lvl"
                      }
                  ]
              }
          },
          "request": {
              "method": "PUT",
              "url": "Location/7e8c8f5b-e366-6646-d2c0-e943bd9d1145"
          }
      },
      {
          "fullUrl": "urn:uuid:21db7463-3dcf-df06-09f7-657d2a3149da",
          "resource": {
              "resourceType": "Location",
              "id": "21db7463-3dcf-df06-09f7-657d2a3149da",
              "partOf": {
                  "reference": "Location/7e8c8f5b-e366-6646-d2c0-e943bd9d1145"
              },
              "name": "OMU B",
              "mode": "instance",
              "description": "HUH AE OMU--9.8--ISO--OMU B--Bed 03--HOMERTON UNIVER--C--Homerton UH--Floor5",
              "physicalType": {
                  "coding": [
                      {
                          "system": "http://terminology.hl7.org/CodeSystem/location-physical-type",
                          "code": "ro"
                      }
                  ]
              }
          },
          "request": {
              "method": "PUT",
              "url": "Location/21db7463-3dcf-df06-09f7-657d2a3149da"
          }
      },
      {
          "fullUrl": "urn:uuid:8c9f471c-25cf-4f9d-a67a-da6dccc64c88",
          "resource": {
              "resourceType": "Location",
              "id": "8c9f471c-25cf-4f9d-a67a-da6dccc64c88",
              "partOf": {
                  "reference": "Location/21db7463-3dcf-df06-09f7-657d2a3149da"
              },
              "name": "Bed 03",
              "mode": "instance",
              "description": "HUH AE OMU--9.8--ISO--OMU B--Bed 03--HOMERTON UNIVER--C--Homerton UH--Floor5",
              "physicalType": {
                  "coding": [
                      {
                          "system": "http://terminology.hl7.org/CodeSystem/location-physical-type",
                          "code": "bd"
                      }
                  ]
              }
          },
          "request": {
              "method": "PUT",
              "url": "Location/8c9f471c-25cf-4f9d-a67a-da6dccc64c88"
          }
      },
      {
          "fullUrl": "urn:uuid:35c140b2-668e-8d32-7516-6ec7d7edecc7",
          "resource": {
              "resourceType": "Location",
              "id": "35c140b2-668e-8d32-7516-6ec7d7edecc7",
              "name": "HOMERTON UNIVER",
              "mode": "instance",
              "description": "HUH AE OMU--9.8--ISO--OMU B--Bed 03--HOMERTON UNIVER--C--Homerton UH--Floor5",
              "physicalType": {
                  "coding": [
                      {
                          "system": "http://terminology.hl7.org/CodeSystem/location-physical-type",
                          "code": "si"
                      }
                  ]
              }
          },
          "request": {
              "method": "PUT",
              "url": "Location/35c140b2-668e-8d32-7516-6ec7d7edecc7"
          }
      },
      {
          "fullUrl": "urn:uuid:7fce0afa-27f7-3408-86ef-838840491ff0",
          "resource": {
              "resourceType": "Location",
              "id": "7fce0afa-27f7-3408-86ef-838840491ff0",
              "partOf": {
                  "reference": "Location/35c140b2-668e-8d32-7516-6ec7d7edecc7"
              },
              "name": "Homerton UH",
              "mode": "instance",
              "description": "HUH AE OMU--9.8--ISO--OMU B--Bed 03--HOMERTON UNIVER--C--Homerton UH--Floor5",
              "physicalType": {
                  "coding": [
                      {
                          "system": "http://terminology.hl7.org/CodeSystem/location-physical-type",
                          "code": "bu"
                      }
                  ]
              }
          },
          "request": {
              "method": "PUT",
              "url": "Location/7fce0afa-27f7-3408-86ef-838840491ff0"
          }
      },
      {
          "fullUrl": "urn:uuid:ff93044f-a48c-31c6-e7bd-f400aff947e3",
          "resource": {
              "resourceType": "Location",
              "id": "ff93044f-a48c-31c6-e7bd-f400aff947e3",
              "partOf": {
                  "reference": "Location/7fce0afa-27f7-3408-86ef-838840491ff0"
              },
              "name": "Floor5",
              "mode": "instance",
              "description": "HUH AE OMU--9.8--ISO--OMU B--Bed 03--HOMERTON UNIVER--C--Homerton UH--Floor5",
              "physicalType": {
                  "coding": [
                      {
                          "system": "http://terminology.hl7.org/CodeSystem/location-physical-type",
                          "code": "lvl"
                      }
                  ]
              }
          },
          "request": {
              "method": "PUT",
              "url": "Location/ff93044f-a48c-31c6-e7bd-f400aff947e3"
          }
      },
      {
          "fullUrl": "urn:uuid:a5f89225-9b37-737d-9b70-c9cf83668801",
          "resource": {
              "resourceType": "Organization",
              "id": "a5f89225-9b37-737d-9b70-c9cf83668801",
              "name": "Good Health Hospital"
          },
          "request": {
              "method": "PUT",
              "url": "Organization/a5f89225-9b37-737d-9b70-c9cf83668801"
          }
      },
      {
          "fullUrl": "urn:uuid:e82402a9-b2d1-2a28-3250-c099d5a77bf7",
          "resource": {
              "resourceType": "Organization",
              "id": "e82402a9-b2d1-2a28-3250-c099d5a77bf7",
              "identifier": [
                  {
                      "value": "PERSt",
                      "system": "http://example.com/v2-to-fhir-converter/Identifier/PERSt"
                  },
                  {
                      "value": "1.23",
                      "system": "http://example.com/v2-to-fhir-converter/Identifier/HCD",
                      "type": {
                          "coding": [
                              {
                                  "code": "HCD",
                                  "display": "The CEN Healthcare Coding Scheme Designator",
                                  "system": "http://terminology.hl7.org/CodeSystem/v2-0301"
                              }
                          ]
                      }
                  }
              ]
          },
          "request": {
              "method": "PUT",
              "url": "Organization/e82402a9-b2d1-2a28-3250-c099d5a77bf7"
          }
      },
      {
          "fullUrl": "urn:uuid:ce70e6c3-c190-121d-c251-e4bae5cde6a1",
          "resource": {
              "resourceType": "Practitioner",
              "id": "ce70e6c3-c190-121d-c251-e4bae5cde6a1",
              "identifier": [
                  {
                      "value": "1134",
                      "system": "http://example.com/v2-to-fhir-converter/Identifier/HCD",
                      "assigner": {
                          "reference": "Organization/e82402a9-b2d1-2a28-3250-c099d5a77bf7"
                      },
                      "type": {
                          "coding": [
                              {
                                  "code": "BR",
                                  "display": "Birth registry number",
                                  "system": "http://terminology.hl7.org/CodeSystem/v2-0203"
                              }
                          ]
                      }
                  }
              ],
              "name": [
                  {
                      "family": "Aly",
                      "given": [
                          "Zafar",
                          "Mahendra"
                      ],
                      "suffix": [
                          "JR",
                          "MD",
                          "Al"
                      ],
                      "prefix": [
                          "Dr."
                      ],
                      "period": {
                          "start": "1924-10-10",
                          "end": "1924-10-15"
                      }
                  }
              ]
          },
          "request": {
              "method": "PUT",
              "url": "Practitioner/ce70e6c3-c190-121d-c251-e4bae5cde6a1"
          }
      },
      {
          "fullUrl": "urn:uuid:88a53755-c972-6904-b4ce-8884b84ddc2e",
          "resource": {
              "resourceType": "PractitionerRole",
              "id": "88a53755-c972-6904-b4ce-8884b84ddc2e",
              "code": [
                  {
                      "coding": [
                          {
                              "code": "RO",
                              "display": "Responsible Observer",
                              "system": "http://terminology.hl7.org/CodeSystem/v2-0443"
                          }
                      ]
                  }
              ],
              "practitioner": {
                  "reference": "Practitioner/ce70e6c3-c190-121d-c251-e4bae5cde6a1"
              }
          },
          "request": {
              "method": "PUT",
              "url": "PractitionerRole/88a53755-c972-6904-b4ce-8884b84ddc2e"
          }
      },
      {
          "fullUrl": "urn:uuid:3e0952c6-eea0-8938-96f8-07c224bf1577",
          "resource": {
              "resourceType": "Practitioner",
              "id": "3e0952c6-eea0-8938-96f8-07c224bf1577",
              "identifier": [
                  {
                      "value": "2234"
                  }
              ],
              "name": [
                  {
                      "family": "Pauly",
                      "given": [
                          "Berrie",
                          "Raud"
                      ]
                  }
              ]
          },
          "request": {
              "method": "PUT",
              "url": "Practitioner/3e0952c6-eea0-8938-96f8-07c224bf1577"
          }
      },
      {
          "fullUrl": "urn:uuid:bc78e290-ec67-c238-1e05-aefb6b252b0c",
          "resource": {
              "resourceType": "PractitionerRole",
              "id": "bc78e290-ec67-c238-1e05-aefb6b252b0c",
              "code": [
                  {
                      "coding": [
                          {
                              "code": "RO",
                              "display": "Responsible Observer",
                              "system": "http://terminology.hl7.org/CodeSystem/v2-0443"
                          }
                      ]
                  }
              ],
              "practitioner": {
                  "reference": "Practitioner/3e0952c6-eea0-8938-96f8-07c224bf1577"
              }
          },
          "request": {
              "method": "PUT",
              "url": "PractitionerRole/bc78e290-ec67-c238-1e05-aefb6b252b0c"
          }
      },
      {
          "fullUrl": "urn:uuid:32424199-272b-4aaa-6709-07bd28380c84",
          "resource": {
              "resourceType": "Device",
              "id": "32424199-272b-4aaa-6709-07bd28380c84",
              "identifier": [
                  {
                      "value": "PD-10.1",
                      "system": "http://example.com/v2-to-fhir-converter/Identifier/PD-10.2"
                  }
              ]
          },
          "request": {
              "method": "PUT",
              "url": "Device/32424199-272b-4aaa-6709-07bd28380c84"
          }
      },
      {
          "fullUrl": "urn:uuid:45f65e47-46c4-1a54-f9fb-1321258e79b2",
          "resource": {
              "resourceType": "Practitioner",
              "id": "45f65e47-46c4-1a54-f9fb-1321258e79b2",
              "identifier": [
                  {
                      "type": {
                          "coding": [
                              {
                                  "code": "MD-25"
                              }
                          ]
                      }
                  }
              ]
          },
          "request": {
              "method": "PUT",
              "url": "Practitioner/45f65e47-46c4-1a54-f9fb-1321258e79b2"
          }
      },
      {
          "fullUrl": "urn:uuid:090ea2e4-0a3a-eb7f-8f9f-16dd7d13f7f3",
          "resource": {
              "resourceType": "PractitionerRole",
              "id": "090ea2e4-0a3a-eb7f-8f9f-16dd7d13f7f3",
              "code": [
                  {
                      "coding": [
                          {
                              "code": "MDIR",
                              "display": "Medical Director",
                              "system": "http://terminology.hl7.org/CodeSystem/v2-0443"
                          }
                      ]
                  }
              ],
              "practitioner": {
                  "reference": "Practitioner/45f65e47-46c4-1a54-f9fb-1321258e79b2"
              },
              "organization": {
                  "reference": "Organization/056aa7c7-6b75-3c67-63c5-cf9604f16d25"
              }
          },
          "request": {
              "method": "PUT",
              "url": "PractitionerRole/090ea2e4-0a3a-eb7f-8f9f-16dd7d13f7f3"
          }
      },
      {
          "fullUrl": "urn:uuid:056aa7c7-6b75-3c67-63c5-cf9604f16d25",
          "resource": {
              "resourceType": "Organization",
              "id": "056aa7c7-6b75-3c67-63c5-cf9604f16d25",
              "name": "FairOaks Hspital",
              "address": [
                  {
                      "line": [
                          "Research Park",
                          "Fairfax"
                      ],
                      "city": "VA",
                      "state": "22031",
                      "postalCode": "USA"
                  }
              ]
          },
          "request": {
              "method": "PUT",
              "url": "Organization/056aa7c7-6b75-3c67-63c5-cf9604f16d25"
          }
      },
      {
          "fullUrl": "urn:uuid:defae2eb-fc37-c2d8-c3b9-ec4611beacf1",
          "resource": {
              "resourceType": "Observation",
              "id": "defae2eb-fc37-c2d8-c3b9-ec4611beacf1",
              "identifier": [
                  {
                      "value": "EI21",
                      "system": "http://example.com/v2-to-fhir-converter/Identifier/OII"
                  },
                  {
                      "type": {
                          "coding": [
                              {
                                  "code": "FILL"
                              }
                          ]
                      }
                  }
              ],
              "status": "unknown",
              "code": {
                  "coding": [
                      {
                          "code": "8867-4",
                          "display": "heartrate",
                          "system": "http://loinc.org"
                      }
                  ]
              },
              "component": [
                  {
                      "code": {
                          "coding": [
                              {
                                  "code": "8867-4",
                                  "display": "heartrate",
                                  "system": "http://loinc.org"
                              }
                          ]
                      },
                      "valueQuantity": {
                          "value": 60,
                          "code": "beats/min",
                          "system": "urn:iso:std:iso:3986"
                      },
                      "referenceRange": [
                          {
                              "text": "70-80"
                          }
                      ]
                  },
                  {
                      "code": {
                          "coding": [
                              {
                                  "code": "8867-4",
                                  "display": "heartrate",
                                  "system": "http://loinc.org"
                              }
                          ]
                      },
                      "valueQuantity": {
                          "value": 120,
                          "code": "beats/min",
                          "system": "urn:iso:std:iso:3986"
                      },
                      "referenceRange": [
                          {
                              "text": "70-80"
                          }
                      ]
                  }
              ],
              "effectiveDateTime": "1999-07-02",
              "method": {
                  "coding": [
                      {
                          "code": "OBS",
                          "display": "This is test method",
                          "system": "http://example.com/v2-to-fhir-converter/CodeSystem/AS4"
                      }
                  ]
              },
              "device": {
                  "reference": "Device/32424199-272b-4aaa-6709-07bd28380c84"
              },
              "bodySite": {
                  "coding": [
                      {
                          "code": "BU",
                          "display": "Observation site",
                          "system": "http://example.com/v2-to-fhir-converter/CodeSystem/E5"
                      }
                  ]
              },
              "performer": [
                  {
                      "reference": "PractitionerRole/88a53755-c972-6904-b4ce-8884b84ddc2e"
                  },
                  {
                      "reference": "PractitionerRole/bc78e290-ec67-c238-1e05-aefb6b252b0c"
                  },
                  {
                      "reference": "PractitionerRole/090ea2e4-0a3a-eb7f-8f9f-16dd7d13f7f3"
                  },
                  {
                      "reference": "Organization/62996c83-212a-97b1-8d88-2ba81c9dfaf7"
                  }
              ],
              "interpretation": [
                  {
                      "coding": [
                          {
                              "code": "A",
                              "display": "Abnormal",
                              "system": "http://terminology.hl7.org/CodeSystem/v3-ObservationInterpretation"
                          }
                      ]
                  },
                  {
                      "coding": [
                          {
                              "code": "B",
                              "display": "Better",
                              "system": "http://terminology.hl7.org/CodeSystem/v3-ObservationInterpretation"
                          }
                      ]
                  }
              ],
              "subject": {
                  "reference": "Patient/bab57240-4a39-435b-578f-50b090bab311"
              },
              "extension": [
                  {
                      "url": "http://example.com/v2-to-fhir-converter/Observation_Status",
                      "valueCodeableConcept": {
                          "coding": [
                              {
                                  "code": "S",
                                  "display": "Partial",
                                  "system": "http://terminology.hl7.org/CodeSystem/v2-0085"
                              }
                          ],
                          "text": "Partial"
                      }
                  }
              ]
          },
          "request": {
              "method": "PUT",
              "url": "Observation/defae2eb-fc37-c2d8-c3b9-ec4611beacf1"
          }
      },
      {
          "fullUrl": "urn:uuid:62996c83-212a-97b1-8d88-2ba81c9dfaf7",
          "resource": {
              "resourceType": "Organization",
              "id": "62996c83-212a-97b1-8d88-2ba81c9dfaf7",
              "name": "General Medical Center"
          },
          "request": {
              "method": "PUT",
              "url": "Organization/62996c83-212a-97b1-8d88-2ba81c9dfaf7"
          }
      },
      {
          "fullUrl": "urn:uuid:f788aadd-443f-ec74-4f40-5f3d712041a2",
          "resource": {
              "resourceType": "Location",
              "id": "f788aadd-443f-ec74-4f40-5f3d712041a2",
              "name": "Street-5",
              "mode": "instance",
              "description": "Street-5--136--B--CommunityHospital--N",
              "physicalType": {
                  "coding": [
                      {
                          "system": "http://terminology.hl7.org/CodeSystem/location-physical-type",
                          "code": "lvl"
                      }
                  ]
              },
              "managingOrganization": {
                  "reference": "Organization/62996c83-212a-97b1-8d88-2ba81c9dfaf7"
              }
          },
          "request": {
              "method": "PUT",
              "url": "Location/f788aadd-443f-ec74-4f40-5f3d712041a2"
          }
      },
      {
          "fullUrl": "urn:uuid:1418fa31-f48a-9edf-f4c0-a8a2972d319a",
          "resource": {
              "resourceType": "Location",
              "id": "1418fa31-f48a-9edf-f4c0-a8a2972d319a",
              "partOf": {
                  "reference": "Location/f788aadd-443f-ec74-4f40-5f3d712041a2"
              },
              "name": "136",
              "mode": "instance",
              "description": "Street-5--136--B--CommunityHospital--N",
              "physicalType": {
                  "coding": [
                      {
                          "system": "http://terminology.hl7.org/CodeSystem/location-physical-type",
                          "code": "ro"
                      }
                  ]
              }
          },
          "request": {
              "method": "PUT",
              "url": "Location/1418fa31-f48a-9edf-f4c0-a8a2972d319a"
          }
      },
      {
          "fullUrl": "urn:uuid:d944504d-f772-1e20-6b74-44ce62896188",
          "resource": {
              "resourceType": "Location",
              "id": "d944504d-f772-1e20-6b74-44ce62896188",
              "partOf": {
                  "reference": "Location/1418fa31-f48a-9edf-f4c0-a8a2972d319a"
              },
              "name": "B",
              "mode": "instance",
              "description": "Street-5--136--B--CommunityHospital--N",
              "physicalType": {
                  "coding": [
                      {
                          "system": "http://terminology.hl7.org/CodeSystem/location-physical-type",
                          "code": "bd"
                      }
                  ]
              }
          },
          "request": {
              "method": "PUT",
              "url": "Location/d944504d-f772-1e20-6b74-44ce62896188"
          }
      },
      {
          "fullUrl": "urn:uuid:e811271f-41a0-6b14-b188-acc29aee24d2",
          "resource": {
              "resourceType": "Location",
              "id": "e811271f-41a0-6b14-b188-acc29aee24d2",
              "name": "CommunityHospital",
              "mode": "instance",
              "description": "Street-5--136--B--CommunityHospital--N",
              "physicalType": {
                  "coding": [
                      {
                          "system": "http://terminology.hl7.org/CodeSystem/location-physical-type",
                          "code": "si"
                      }
                  ]
              }
          },
          "request": {
              "method": "PUT",
              "url": "Location/e811271f-41a0-6b14-b188-acc29aee24d2"
          }
      },
      {
          "fullUrl": "urn:uuid:270fd480-c315-53b2-d0bc-f714da2af549",
          "resource": {
              "resourceType": "Practitioner",
              "id": "270fd480-c315-53b2-d0bc-f714da2af549",
              "identifier": [
                  {
                      "value": "dszczepaniak"
                  }
              ]
          },
          "request": {
              "method": "PUT",
              "url": "Practitioner/270fd480-c315-53b2-d0bc-f714da2af549"
          }
      },
      {
          "fullUrl": "urn:uuid:7f6d6f85-ffa3-ae4e-acf9-99d8283241b8",
          "resource": {
              "resourceType": "Location",
              "id": "7f6d6f85-ffa3-ae4e-acf9-99d8283241b8",
              "name": "BMGPED",
              "mode": "instance",
              "description": "BMGPED",
              "physicalType": {
                  "coding": [
                      {
                          "system": "http://terminology.hl7.org/CodeSystem/location-physical-type",
                          "code": "si"
                      }
                  ]
              }
          },
          "request": {
              "method": "PUT",
              "url": "Location/7f6d6f85-ffa3-ae4e-acf9-99d8283241b8"
          }
      },
      {
          "fullUrl": "urn:uuid:fdc3ad13-2492-66ee-2e5a-8458bfdcdcc2",
          "resource": {
              "resourceType": "Encounter",
              "id": "fdc3ad13-2492-66ee-2e5a-8458bfdcdcc2",
              "class": {
                  "code": "AMB",
                  "display": "ambulatory",
                  "system": "http://terminology.hl7.org/CodeSystem/v3-ActCode"
              },
              "status": "in-progress",
              "location": [
                  {
                      "status": "active",
                      "location": {
                          "reference": "Location/7f6d6f85-ffa3-ae4e-acf9-99d8283241b8"
                      }
                  },
                  {
                      "location": {
                          "reference": "Location/b48de5a7-00ae-ea14-a5c7-e32e76717fff"
                      }
                  }
              ],
              "participant": [
                  {
                      "type": [
                          {
                              "coding": [
                                  {
                                      "code": "ATND",
                                      "system": "http://terminology.hl7.org/CodeSystem/v3-ParticipationType",
                                      "display": "attender"
                                  }
                              ]
                          }
                      ],
                      "individual": {
                          "reference": "Practitioner/270fd480-c315-53b2-d0bc-f714da2af549"
                      }
                  }
              ],
              "text": {
                  "status": "generated",
                  "div": "<div xmlns=\"http://www.w3.org/1999/xhtml\"><p><span>Visit Description: </span></p></div>"
              },
              "subject": {
                  "reference": "Patient/bab57240-4a39-435b-578f-50b090bab311"
              }
          },
          "request": {
              "method": "PUT",
              "url": "Encounter/fdc3ad13-2492-66ee-2e5a-8458bfdcdcc2"
          }
      },
      {
          "fullUrl": "urn:uuid:b48de5a7-00ae-ea14-a5c7-e32e76717fff",
          "resource": {
              "resourceType": "Location",
              "id": "b48de5a7-00ae-ea14-a5c7-e32e76717fff",
              "partOf": {
                  "reference": "Location/70844c90-e5c8-5d0c-bfe8-bc926c083487"
              },
              "name": "Eastlane",
              "identifier": [
                  {
                      "value": "urn:oid:9.8",
                      "system": "urn:ietf:rfc:3986"
                  }
              ],
              "mode": "instance",
              "description": "Eastlane--9.8--ISO--OMU B--Bed 03--HOMERTON UNIVER--C--Homerton UH--Floor5",
              "physicalType": {
                  "coding": [
                      {
                          "system": "http://terminology.hl7.org/CodeSystem/location-physical-type",
                          "code": "lvl"
                      }
                  ]
              }
          },
          "request": {
              "method": "PUT",
              "url": "Location/b48de5a7-00ae-ea14-a5c7-e32e76717fff"
          }
      },
      {
          "fullUrl": "urn:uuid:bb00e49d-df4e-8e0c-4aa9-c565d9c8524f",
          "resource": {
              "resourceType": "Location",
              "id": "bb00e49d-df4e-8e0c-4aa9-c565d9c8524f",
              "partOf": {
                  "reference": "Location/b48de5a7-00ae-ea14-a5c7-e32e76717fff"
              },
              "name": "OMU B",
              "mode": "instance",
              "description": "Eastlane--9.8--ISO--OMU B--Bed 03--HOMERTON UNIVER--C--Homerton UH--Floor5",
              "physicalType": {
                  "coding": [
                      {
                          "system": "http://terminology.hl7.org/CodeSystem/location-physical-type",
                          "code": "ro"
                      }
                  ]
              }
          },
          "request": {
              "method": "PUT",
              "url": "Location/bb00e49d-df4e-8e0c-4aa9-c565d9c8524f"
          }
      },
      {
          "fullUrl": "urn:uuid:3e6f3dce-b30a-40d4-0dc8-42d83bbffed3",
          "resource": {
              "resourceType": "Location",
              "id": "3e6f3dce-b30a-40d4-0dc8-42d83bbffed3",
              "partOf": {
                  "reference": "Location/bb00e49d-df4e-8e0c-4aa9-c565d9c8524f"
              },
              "name": "Bed 03",
              "mode": "instance",
              "description": "Eastlane--9.8--ISO--OMU B--Bed 03--HOMERTON UNIVER--C--Homerton UH--Floor5",
              "physicalType": {
                  "coding": [
                      {
                          "system": "http://terminology.hl7.org/CodeSystem/location-physical-type",
                          "code": "bd"
                      }
                  ]
              }
          },
          "request": {
              "method": "PUT",
              "url": "Location/3e6f3dce-b30a-40d4-0dc8-42d83bbffed3"
          }
      },
      {
          "fullUrl": "urn:uuid:4717178e-0563-2aed-80b6-e78cee78685f",
          "resource": {
              "resourceType": "Location",
              "id": "4717178e-0563-2aed-80b6-e78cee78685f",
              "name": "HOMERTON UNIVER",
              "mode": "instance",
              "description": "Eastlane--9.8--ISO--OMU B--Bed 03--HOMERTON UNIVER--C--Homerton UH--Floor5",
              "physicalType": {
                  "coding": [
                      {
                          "system": "http://terminology.hl7.org/CodeSystem/location-physical-type",
                          "code": "si"
                      }
                  ]
              }
          },
          "request": {
              "method": "PUT",
              "url": "Location/4717178e-0563-2aed-80b6-e78cee78685f"
          }
      },
      {
          "fullUrl": "urn:uuid:9eb3879e-ebae-13bc-a58c-bf1760bddd24",
          "resource": {
              "resourceType": "Location",
              "id": "9eb3879e-ebae-13bc-a58c-bf1760bddd24",
              "partOf": {
                  "reference": "Location/4717178e-0563-2aed-80b6-e78cee78685f"
              },
              "name": "Homerton UH",
              "mode": "instance",
              "description": "Eastlane--9.8--ISO--OMU B--Bed 03--HOMERTON UNIVER--C--Homerton UH--Floor5",
              "physicalType": {
                  "coding": [
                      {
                          "system": "http://terminology.hl7.org/CodeSystem/location-physical-type",
                          "code": "bu"
                      }
                  ]
              }
          },
          "request": {
              "method": "PUT",
              "url": "Location/9eb3879e-ebae-13bc-a58c-bf1760bddd24"
          }
      },
      {
          "fullUrl": "urn:uuid:70844c90-e5c8-5d0c-bfe8-bc926c083487",
          "resource": {
              "resourceType": "Location",
              "id": "70844c90-e5c8-5d0c-bfe8-bc926c083487",
              "partOf": {
                  "reference": "Location/9eb3879e-ebae-13bc-a58c-bf1760bddd24"
              },
              "name": "Floor5",
              "mode": "instance",
              "description": "Eastlane--9.8--ISO--OMU B--Bed 03--HOMERTON UNIVER--C--Homerton UH--Floor5",
              "physicalType": {
                  "coding": [
                      {
                          "system": "http://terminology.hl7.org/CodeSystem/location-physical-type",
                          "code": "lvl"
                      }
                  ]
              }
          },
          "request": {
              "method": "PUT",
              "url": "Location/70844c90-e5c8-5d0c-bfe8-bc926c083487"
          }
      },
      {
          "fullUrl": "urn:uuid:06949f56-829f-df97-ece0-eb2a42b4f1bf",
          "resource": {
              "resourceType": "Specimen",
              "id": "06949f56-829f-df97-ece0-eb2a42b4f1bf",
              "identifier": [
                  {
                      "value": "2017-PAT-123456-1",
                      "type": {
                          "coding": [
                              {
                                  "code": "PGN",
                                  "system": "http://terminology.hl7.org/CodeSystem/v2-0203"
                              }
                          ]
                      }
                  }
              ],
              "type": {
                  "coding": [
                      {
                          "code": "SKBP",
                          "display": "Biopsy, Skin",
                          "system": "http://terminology.hl7.org/CodeSystem/v2-0487"
                      }
                  ]
              },
              "container": [
                  {
                      "identifier": [
                          {
                              "value": "2017-PAT-123456-1-2-5"
                          }
                      ]
                  },
                  {
                      "additiveReference": {
                          "reference": "Substance/f285d64a-e338-e669-05d3-ed4e7ad0cea7"
                      }
                  }
              ],
              "accessionIdentifier": {
                  "value": "2017-PAT-123456",
                  "system": "http://example.com/v2-to-fhir-converter/Identifier/L"
              },
              "subject": {
                  "reference": "Patient/bab57240-4a39-435b-578f-50b090bab311"
              },
              "parent": [
                  {
                      "reference": "Specimen/29334ec4-0dc0-b4ab-30e9-421cf1a8a35d"
                  },
                  {
                      "reference": "Specimen/22f600b0-05d3-ca8b-2c5c-a83c911e5b02"
                  },
                  {
                      "reference": "Specimen/7d524989-2de6-e3ab-a64b-d653007c1966"
                  }
              ]
          },
          "request": {
              "method": "PUT",
              "url": "Specimen/06949f56-829f-df97-ece0-eb2a42b4f1bf"
          }
      },
      {
          "fullUrl": "urn:uuid:f285d64a-e338-e669-05d3-ed4e7ad0cea7",
          "resource": {
              "resourceType": "Substance",
              "id": "f285d64a-e338-e669-05d3-ed4e7ad0cea7",
              "code": {
                  "coding": [
                      {
                          "code": "SI1234",
                          "display": "Substance_ID",
                          "system": "http://example.com/v2-to-fhir-converter/CodeSystem/HL70451"
                      }
                  ]
              },
              "status": "active",
              "category": [
                  {
                      "coding": [
                          {
                              "code": "RC",
                              "display": "Reagent Calibrator",
                              "system": "http://example.com/v2-to-fhir-converter/CodeSystem/HL70384"
                          }
                      ]
                  }
              ],
              "instance": [
                  {
                      "identifier": {
                          "value": "CONT1234",
                          "system": "http://example.com/v2-to-fhir-converter/Identifier/LabID"
                      },
                      "quantity": {
                          "value": 25,
                          "code": "ML",
                          "unit": "Mili Litre",
                          "system": "http://unitsofmeasure.org"
                      },
                      "expiry": "2021-01-31"
                  }
              ],
              "identifier": [
                  {
                      "value": "TST_ID12"
                  },
                  {
                      "value": "MFG_Lot 12"
                  },
                  {
                      "value": "SUPL_ID 18",
                      "system": "http://example.com/v2-to-fhir-converter/Identifier/XYZ"
                  }
              ]
          },
          "request": {
              "method": "PUT",
              "url": "Substance/f285d64a-e338-e669-05d3-ed4e7ad0cea7"
          }
      },
      {
          "fullUrl": "urn:uuid:29334ec4-0dc0-b4ab-30e9-421cf1a8a35d",
          "resource": {
              "resourceType": "Specimen",
              "id": "29334ec4-0dc0-b4ab-30e9-421cf1a8a35d",
              "identifier": [
                  {
                      "value": "2017-PAT-123456",
                      "type": {
                          "coding": [
                              {
                                  "code": "PGN",
                                  "system": "http://terminology.hl7.org/CodeSystem/v2-0203"
                              }
                          ]
                      }
                  }
              ]
          },
          "request": {
              "method": "PUT",
              "url": "Specimen/29334ec4-0dc0-b4ab-30e9-421cf1a8a35d"
          }
      },
      {
          "fullUrl": "urn:uuid:22f600b0-05d3-ca8b-2c5c-a83c911e5b02",
          "resource": {
              "resourceType": "Specimen",
              "id": "22f600b0-05d3-ca8b-2c5c-a83c911e5b02",
              "identifier": [
                  {
                      "value": "2017-PAT",
                      "type": {
                          "coding": [
                              {
                                  "code": "PGN",
                                  "system": "http://terminology.hl7.org/CodeSystem/v2-0203"
                              }
                          ]
                      }
                  }
              ]
          },
          "request": {
              "method": "PUT",
              "url": "Specimen/22f600b0-05d3-ca8b-2c5c-a83c911e5b02"
          }
      },
      {
          "fullUrl": "urn:uuid:7d524989-2de6-e3ab-a64b-d653007c1966",
          "resource": {
              "resourceType": "Specimen",
              "id": "7d524989-2de6-e3ab-a64b-d653007c1966",
              "identifier": [
                  {
                      "value": "2017",
                      "type": {
                          "coding": [
                              {
                                  "code": "PGN",
                                  "system": "http://terminology.hl7.org/CodeSystem/v2-0203"
                              }
                          ]
                      }
                  }
              ]
          },
          "request": {
              "method": "PUT",
              "url": "Specimen/7d524989-2de6-e3ab-a64b-d653007c1966"
          }
      },
      {
          "fullUrl": "urn:uuid:960162f4-e8c5-e229-eb52-e6f3f6224edc",
          "resource": {
              "resourceType": "Device",
              "id": "960162f4-e8c5-e229-eb52-e6f3f6224edc",
              "identifier": [
                  {
                      "value": "EI12.3",
                      "system": "urn:uuid:426d2726-51fc-89fe-a946-8596e80a80eb",
                      "type": {
                          "coding": [
                              {
                                  "code": "GUID",
                                  "display": "The DCE Universal Unique Identifier, in accordance with RFC 4122. Recommended format is 32 hexadecimal digits separated by hyphens, in the digit grouping 8-4-4-4-12",
                                  "system": "http://terminology.hl7.org/CodeSystem/v2-0301"
                              }
                          ]
                      }
                  },
                  {
                      "system": "urn:oid:1.3.6.1.4.1.44750.1.2.2",
                      "type": {
                          "coding": [
                              {
                                  "code": "ISO",
                                  "display": "An International Standards Organization Object Identifier (OID), in accordance with ISO/IEC 8824. Formatted as decimal digits separated by periods; recommended limit of 64 characters",
                                  "system": "http://terminology.hl7.org/CodeSystem/v2-0301"
                              }
                          ]
                      }
                  }
              ]
          },
          "request": {
              "method": "PUT",
              "url": "Device/960162f4-e8c5-e229-eb52-e6f3f6224edc"
          }
      },
      {
          "fullUrl": "urn:uuid:7c80a3d2-db3e-23d7-fbcf-137c241ac9d9",
          "resource": {
              "resourceType": "Observation",
              "id": "7c80a3d2-db3e-23d7-fbcf-137c241ac9d9",
              "identifier": [
                  {
                      "value": "EI21",
                      "system": "http://example.com/v2-to-fhir-converter/Identifier/OII"
                  },
                  {
                      "type": {
                          "coding": [
                              {
                                  "code": "FILL"
                              }
                          ]
                      }
                  }
              ],
              "status": "unknown",
              "code": {
                  "coding": [
                      {
                          "code": "8867-4",
                          "display": "heartrate",
                          "system": "http://loinc.org"
                      }
                  ]
              },
              "component": [
                  {
                      "code": {
                          "coding": [
                              {
                                  "code": "8867-4",
                                  "display": "heartrate",
                                  "system": "http://loinc.org"
                              }
                          ]
                      },
                      "valueCodeableConcept": {
                          "coding": [
                              {
                                  "code": "160"
                              }
                          ]
                      },
                      "referenceRange": [
                          {
                              "text": "100-120"
                          }
                      ]
                  },
                  {
                      "code": {
                          "coding": [
                              {
                                  "code": "8867-4",
                                  "display": "heartrate",
                                  "system": "http://loinc.org"
                              }
                          ]
                      },
                      "valueCodeableConcept": {
                          "coding": [
                              {
                                  "code": "120"
                              }
                          ]
                      },
                      "referenceRange": [
                          {
                              "text": "100-120"
                          }
                      ]
                  }
              ],
              "effectiveDateTime": "1999-08-02",
              "method": {
                  "coding": [
                      {
                          "code": "OBS",
                          "display": "This is test method",
                          "system": "http://example.com/v2-to-fhir-converter/CodeSystem/AS4"
                      }
                  ]
              },
              "device": {
                  "reference": "Device/960162f4-e8c5-e229-eb52-e6f3f6224edc"
              },
              "bodySite": {
                  "coding": [
                      {
                          "code": "BU",
                          "display": "Observation site",
                          "system": "http://example.com/v2-to-fhir-converter/CodeSystem/E5"
                      }
                  ]
              },
              "performer": [
                  {
                      "reference": "PractitionerRole/88a53755-c972-6904-b4ce-8884b84ddc2e"
                  },
                  {
                      "reference": "PractitionerRole/bc78e290-ec67-c238-1e05-aefb6b252b0c"
                  },
                  {
                      "reference": "PractitionerRole/090ea2e4-0a3a-eb7f-8f9f-16dd7d13f7f3"
                  },
                  {
                      "reference": "Organization/62996c83-212a-97b1-8d88-2ba81c9dfaf7"
                  }
              ],
              "interpretation": [
                  {
                      "coding": [
                          {
                              "code": "A",
                              "display": "Abnormal",
                              "system": "http://terminology.hl7.org/CodeSystem/v3-ObservationInterpretation"
                          }
                      ]
                  },
                  {
                      "coding": [
                          {
                              "code": "B",
                              "display": "Better",
                              "system": "http://terminology.hl7.org/CodeSystem/v3-ObservationInterpretation"
                          }
                      ]
                  }
              ],
              "subject": {
                  "reference": "Patient/bab57240-4a39-435b-578f-50b090bab311"
              },
              "specimen": {
                  "reference": "Specimen/06949f56-829f-df97-ece0-eb2a42b4f1bf"
              },
              "extension": [
                  {
                      "url": "http://example.com/v2-to-fhir-converter/Observation_Status",
                      "valueCodeableConcept": {
                          "coding": [
                              {
                                  "code": "S",
                                  "display": "Partial",
                                  "system": "http://terminology.hl7.org/CodeSystem/v2-0085"
                              }
                          ],
                          "text": "Partial"
                      }
                  }
              ]
          },
          "request": {
              "method": "PUT",
              "url": "Observation/7c80a3d2-db3e-23d7-fbcf-137c241ac9d9"
          }
      },
      {
          "fullUrl": "urn:uuid:c2c19e02-069d-00e1-3a63-0f8115e4e043",
          "resource": {
              "resourceType": "ServiceRequest",
              "id": "c2c19e02-069d-00e1-3a63-0f8115e4e043",
              "status": "completed",
              "intent": "order",
              "identifier": [
                  {
                      "value": "5ca95f51971d414bbcb4be9ca88e9846",
                      "system": "http://example.com/v2-to-fhir-converter/Identifier/L",
                      "type": {
                          "coding": [
                              {
                                  "code": "PLAC",
                                  "system": "http://terminology.hl7.org/CodeSystem/v2-0203"
                              }
                          ]
                      }
                  },
                  {
                      "value": "40bcbe96bcbf8cda8b07403263b92cb4",
                      "type": {
                          "coding": [
                              {
                                  "code": "FILL",
                                  "system": "http://terminology.hl7.org/CodeSystem/v2-0203"
                              }
                          ]
                      }
                  },
                  {
                      "value": "9adf2339de714c6698063e3ddf5d0167&L",
                      "system": "http://example.com/v2-to-fhir-converter/Identifier/47371996286d40019903e76ba57e49e8&L",
                      "type": {
                          "coding": [
                              {
                                  "code": "PGN",
                                  "system": "http://terminology.hl7.org/CodeSystem/v2-0203"
                              }
                          ]
                      }
                  }
              ],
              "code": {
                  "coding": [
                      {
                          "code": "SCAN",
                          "display": "Scan Slide",
                          "system": "http://example.com/v2-to-fhir-converter/CodeSystem/3DHISTECH"
                      }
                  ]
              },
              "subject": {
                  "reference": "Patient/bab57240-4a39-435b-578f-50b090bab311"
              },
              "requester": {
                  "reference": "PractitionerRole/5533879c-986a-e0e9-3a02-dfa544988682"
              },
              "specimen": [
                  {
                      "reference": "Specimen/06949f56-829f-df97-ece0-eb2a42b4f1bf"
                  }
              ],
              "encounter": {
                  "reference": "Encounter/fdc3ad13-2492-66ee-2e5a-8458bfdcdcc2"
              },
              "supportingInfo": [
                  {
                      "reference": "PractitionerRole/1b232964-2b1d-a517-7d84-56e759ed0429"
                  },
                  {
                      "reference": "Organization/671cd07b-e021-ef1b-ff40-b60602db87b2"
                  },
                  {
                      "reference": "Device/e7598f04-7119-f7a0-b0b7-c788548f491a"
                  },
                  {
                      "reference": "ResearchStudy/16f5c983-f4f6-d905-94ea-688e4ef9ab17"
                  }
              ],
              "reasonReference": [
                  {
                      "reference": "DocumentReference/c9562bfa-117f-9b25-6657-9b7cff7e1674"
                  }
              ],
              "note": [
                  {
                      "text": "Submission of serum",
                      "time": "2020-10-10T19:15:00+05:30",
                      "authorReference": {
                          "reference": "Practitioner/ca6d10cc-e8a7-9d21-bd61-ec6d1db557c2"
                      }
                  },
                  {
                      "text": "Please follow the text instructions"
                  }
              ],
              "asNeededCodeableConcept": {
                  "text": "This is condition text"
              },
              "quantityQuantity": {
                  "value": 54,
                  "unit": "lbs"
              },
              "occurrenceTiming": {
                  "code": {
                      "coding": [
                          {
                              "code": "P",
                              "display": "Post (after)",
                              "system": "http://terminology.hl7.org/CodeSystem/v2-0335"
                          }
                      ]
                  },
                  "repeat": {
                      "period": 12,
                      "periodUnit": "min",
                      "when": [
                          "ACM"
                      ],
                      "offset": 2,
                      "boundsPeriod": {
                          "start": "2021-10-10T05:30:00+05:30",
                          "end": "2021-11-10T05:30:00+05:30"
                      },
                      "duration": 2,
                      "durationUnit": "h",
                      "count": 5
                  }
              },
              "priority": "asap"
          },
          "request": {
              "method": "PUT",
              "url": "ServiceRequest/c2c19e02-069d-00e1-3a63-0f8115e4e043"
          }
      },
      {
          "fullUrl": "urn:uuid:56ba2e27-0822-82bb-4fd6-ca53c8ce4142",
          "resource": {
              "resourceType": "Organization",
              "id": "56ba2e27-0822-82bb-4fd6-ca53c8ce4142",
              "name": "Pathology Dep."
          },
          "request": {
              "method": "PUT",
              "url": "Organization/56ba2e27-0822-82bb-4fd6-ca53c8ce4142"
          }
      },
      {
          "fullUrl": "urn:uuid:5533879c-986a-e0e9-3a02-dfa544988682",
          "resource": {
              "resourceType": "PractitionerRole",
              "id": "5533879c-986a-e0e9-3a02-dfa544988682",
              "organization": {
                  "reference": "Organization/56ba2e27-0822-82bb-4fd6-ca53c8ce4142"
              }
          },
          "request": {
              "method": "PUT",
              "url": "PractitionerRole/5533879c-986a-e0e9-3a02-dfa544988682"
          }
      },
      {
          "fullUrl": "urn:uuid:a361cb66-96d6-9c04-fd14-3a599184f451",
          "resource": {
              "resourceType": "DiagnosticReport",
              "id": "a361cb66-96d6-9c04-fd14-3a599184f451",
              "identifier": [
                  {
                      "value": "5ca95f51971d414bbcb4be9ca88e9846",
                      "system": "http://example.com/v2-to-fhir-converter/Identifier/L",
                      "type": {
                          "coding": [
                              {
                                  "code": "PLAC",
                                  "system": "http://terminology.hl7.org/CodeSystem/v2-0203"
                              }
                          ]
                      }
                  },
                  {
                      "value": "40bcbe96bcbf8cda8b07403263b92cb4",
                      "type": {
                          "coding": [
                              {
                                  "code": "FILL",
                                  "system": "http://terminology.hl7.org/CodeSystem/v2-0203"
                              }
                          ]
                      }
                  },
                  {
                      "value": "9adf2339de714c6698063e3ddf5d0167&L",
                      "system": "http://example.com/v2-to-fhir-converter/Identifier/47371996286d40019903e76ba57e49e8&L",
                      "type": {
                          "coding": [
                              {
                                  "code": "PGN",
                                  "system": "http://terminology.hl7.org/CodeSystem/v2-0203"
                              }
                          ]
                      }
                  }
              ],
              "code": {
                  "coding": [
                      {
                          "code": "SCAN",
                          "display": "Scan Slide",
                          "system": "http://example.com/v2-to-fhir-converter/CodeSystem/3DHISTECH"
                      }
                  ]
              },
              "status": "unknown",
              "subject": {
                  "reference": "Patient/bab57240-4a39-435b-578f-50b090bab311"
              },
              "basedOn": [
                  {
                      "reference": "ServiceRequest/c2c19e02-069d-00e1-3a63-0f8115e4e043"
                  }
              ],
              "specimen": [
                  {
                      "reference": "Specimen/06949f56-829f-df97-ece0-eb2a42b4f1bf"
                  }
              ]
          },
          "request": {
              "method": "PUT",
              "url": "DiagnosticReport/a361cb66-96d6-9c04-fd14-3a599184f451"
          }
      },
      {
          "fullUrl": "urn:uuid:1b232964-2b1d-a517-7d84-56e759ed0429",
          "resource": {
              "resourceType": "PractitionerRole",
              "id": "1b232964-2b1d-a517-7d84-56e759ed0429",
              "code": [
                  {
                      "coding": [
                          {
                              "code": "CP",
                              "display": "Consulting Provider",
                              "system": "http://terminology.hl7.org/CodeSystem/v2-0443"
                          }
                      ]
                  }
              ],
              "location": [
                  {
                      "reference": "Location/cc9987df-1394-0261-ab58-4d981eeb8e8a"
                  }
              ],
              "organization": {
                  "reference": "Organization/9a62bcb3-1a0e-c4f0-929e-262e5b715edd"
              },
              "specialty": [
                  {
                      "coding": [
                          {
                              "code": "PPT"
                          }
                      ]
                  }
              ],
              "practitioner": {
                  "reference": "Practitioner/6a9b1747-4ada-4ce5-e4cf-948106bcdef3"
              }
          },
          "request": {
              "method": "PUT",
              "url": "PractitionerRole/1b232964-2b1d-a517-7d84-56e759ed0429"
          }
      },
      {
          "fullUrl": "urn:uuid:6a9b1747-4ada-4ce5-e4cf-948106bcdef3",
          "resource": {
              "resourceType": "Practitioner",
              "id": "6a9b1747-4ada-4ce5-e4cf-948106bcdef3",
              "identifier": [
                  {
                      "value": "58"
                  }
              ],
              "name": [
                  {
                      "family": "Jackson"
                  }
              ]
          },
          "request": {
              "method": "PUT",
              "url": "Practitioner/6a9b1747-4ada-4ce5-e4cf-948106bcdef3"
          }
      },
      {
          "fullUrl": "urn:uuid:cc9987df-1394-0261-ab58-4d981eeb8e8a",
          "resource": {
              "resourceType": "Location",
              "id": "cc9987df-1394-0261-ab58-4d981eeb8e8a",
              "name": "Eureka Springs",
              "mode": "instance",
              "description": "Eureka Springs--136--B--CommunityHospital--N",
              "physicalType": {
                  "coding": [
                      {
                          "system": "http://terminology.hl7.org/CodeSystem/location-physical-type",
                          "code": "lvl"
                      }
                  ]
              }
          },
          "request": {
              "method": "PUT",
              "url": "Location/cc9987df-1394-0261-ab58-4d981eeb8e8a"
          }
      },
      {
          "fullUrl": "urn:uuid:b7a4b3e0-33f5-999d-cb59-d5edf65dfe20",
          "resource": {
              "resourceType": "Location",
              "id": "b7a4b3e0-33f5-999d-cb59-d5edf65dfe20",
              "partOf": {
                  "reference": "Location/cc9987df-1394-0261-ab58-4d981eeb8e8a"
              },
              "name": "136",
              "mode": "instance",
              "description": "Eureka Springs--136--B--CommunityHospital--N",
              "physicalType": {
                  "coding": [
                      {
                          "system": "http://terminology.hl7.org/CodeSystem/location-physical-type",
                          "code": "ro"
                      }
                  ]
              }
          },
          "request": {
              "method": "PUT",
              "url": "Location/b7a4b3e0-33f5-999d-cb59-d5edf65dfe20"
          }
      },
      {
          "fullUrl": "urn:uuid:dcc546fd-dd44-532c-b59e-46df55ae0377",
          "resource": {
              "resourceType": "Location",
              "id": "dcc546fd-dd44-532c-b59e-46df55ae0377",
              "partOf": {
                  "reference": "Location/b7a4b3e0-33f5-999d-cb59-d5edf65dfe20"
              },
              "name": "B",
              "mode": "instance",
              "description": "Eureka Springs--136--B--CommunityHospital--N",
              "physicalType": {
                  "coding": [
                      {
                          "system": "http://terminology.hl7.org/CodeSystem/location-physical-type",
                          "code": "bd"
                      }
                  ]
              }
          },
          "request": {
              "method": "PUT",
              "url": "Location/dcc546fd-dd44-532c-b59e-46df55ae0377"
          }
      },
      {
          "fullUrl": "urn:uuid:94cec819-f263-b7dd-784c-78db10075c94",
          "resource": {
              "resourceType": "Location",
              "id": "94cec819-f263-b7dd-784c-78db10075c94",
              "name": "CommunityHospital",
              "mode": "instance",
              "description": "Eureka Springs--136--B--CommunityHospital--N",
              "physicalType": {
                  "coding": [
                      {
                          "system": "http://terminology.hl7.org/CodeSystem/location-physical-type",
                          "code": "si"
                      }
                  ]
              }
          },
          "request": {
              "method": "PUT",
              "url": "Location/94cec819-f263-b7dd-784c-78db10075c94"
          }
      },
      {
          "fullUrl": "urn:uuid:9a62bcb3-1a0e-c4f0-929e-262e5b715edd",
          "resource": {
              "resourceType": "Organization",
              "id": "9a62bcb3-1a0e-c4f0-929e-262e5b715edd",
              "name": "Mayo Memorial"
          },
          "request": {
              "method": "PUT",
              "url": "Organization/9a62bcb3-1a0e-c4f0-929e-262e5b715edd"
          }
      },
      {
          "fullUrl": "urn:uuid:671cd07b-e021-ef1b-ff40-b60602db87b2",
          "resource": {
              "resourceType": "Organization",
              "id": "671cd07b-e021-ef1b-ff40-b60602db87b2",
              "name": "N Memorial"
          },
          "request": {
              "method": "PUT",
              "url": "Organization/671cd07b-e021-ef1b-ff40-b60602db87b2"
          }
      },
      {
          "fullUrl": "urn:uuid:aa608b9b-e232-5f5e-c727-4bff6e5ef7a4",
          "resource": {
              "resourceType": "Location",
              "id": "aa608b9b-e232-5f5e-c727-4bff6e5ef7a4",
              "name": "Maryland street",
              "mode": "instance",
              "description": "Maryland street--136--B--CommunityHospital--N",
              "physicalType": {
                  "coding": [
                      {
                          "system": "http://terminology.hl7.org/CodeSystem/location-physical-type",
                          "code": "lvl"
                      }
                  ]
              },
              "managingOrganization": {
                  "reference": "Organization/671cd07b-e021-ef1b-ff40-b60602db87b2"
              }
          },
          "request": {
              "method": "PUT",
              "url": "Location/aa608b9b-e232-5f5e-c727-4bff6e5ef7a4"
          }
      },
      {
          "fullUrl": "urn:uuid:d5dcfe22-4c1a-9945-1742-e774c40d7d65",
          "resource": {
              "resourceType": "Location",
              "id": "d5dcfe22-4c1a-9945-1742-e774c40d7d65",
              "partOf": {
                  "reference": "Location/aa608b9b-e232-5f5e-c727-4bff6e5ef7a4"
              },
              "name": "136",
              "mode": "instance",
              "description": "Maryland street--136--B--CommunityHospital--N",
              "physicalType": {
                  "coding": [
                      {
                          "system": "http://terminology.hl7.org/CodeSystem/location-physical-type",
                          "code": "ro"
                      }
                  ]
              }
          },
          "request": {
              "method": "PUT",
              "url": "Location/d5dcfe22-4c1a-9945-1742-e774c40d7d65"
          }
      },
      {
          "fullUrl": "urn:uuid:b592d5c9-b0ac-fbc3-b10b-d5a5d50aed3a",
          "resource": {
              "resourceType": "Location",
              "id": "b592d5c9-b0ac-fbc3-b10b-d5a5d50aed3a",
              "partOf": {
                  "reference": "Location/d5dcfe22-4c1a-9945-1742-e774c40d7d65"
              },
              "name": "B",
              "mode": "instance",
              "description": "Maryland street--136--B--CommunityHospital--N",
              "physicalType": {
                  "coding": [
                      {
                          "system": "http://terminology.hl7.org/CodeSystem/location-physical-type",
                          "code": "bd"
                      }
                  ]
              }
          },
          "request": {
              "method": "PUT",
              "url": "Location/b592d5c9-b0ac-fbc3-b10b-d5a5d50aed3a"
          }
      },
      {
          "fullUrl": "urn:uuid:9d09b184-f5c7-b84e-e9be-64dd4c9370f1",
          "resource": {
              "resourceType": "Location",
              "id": "9d09b184-f5c7-b84e-e9be-64dd4c9370f1",
              "name": "CommunityHospital",
              "mode": "instance",
              "description": "Maryland street--136--B--CommunityHospital--N",
              "physicalType": {
                  "coding": [
                      {
                          "system": "http://terminology.hl7.org/CodeSystem/location-physical-type",
                          "code": "si"
                      }
                  ]
              }
          },
          "request": {
              "method": "PUT",
              "url": "Location/9d09b184-f5c7-b84e-e9be-64dd4c9370f1"
          }
      },
      {
          "fullUrl": "urn:uuid:e7598f04-7119-f7a0-b0b7-c788548f491a",
          "resource": {
              "resourceType": "Device",
              "id": "e7598f04-7119-f7a0-b0b7-c788548f491a",
              "identifier": [
                  {
                      "value": "PDORC-10.1",
                      "system": "http://example.com/v2-to-fhir-converter/Identifier/PD-10.2"
                  },
                  {
                      "value": "00643169001763",
                      "system": "urn:oid:2.51.1.1",
                      "type": {
                          "coding": [
                              {
                                  "code": "ISO",
                                  "display": "An International Standards Organization Object Identifier (OID), in accordance with ISO/IEC 8824. Formatted as decimal digits separated by periods; recommended limit of 64 characters",
                                  "system": "http://terminology.hl7.org/CodeSystem/v2-0301"
                              }
                          ]
                      }
                  }
              ],
              "manufactureDate": "2014-04-01",
              "expirationDate": "2022-07-12",
              "lotNumber": "123ABC",
              "serialNumber": "21A11F4855"
          },
          "request": {
              "method": "PUT",
              "url": "Device/e7598f04-7119-f7a0-b0b7-c788548f491a"
          }
      },
      {
          "fullUrl": "urn:uuid:c9562bfa-117f-9b25-6657-9b7cff7e1674",
          "resource": {
              "resourceType": "DocumentReference",
              "id": "c9562bfa-117f-9b25-6657-9b7cff7e1674",
              "type": {
                  "coding": [
                      {
                          "code": "DIS"
                      }
                  ]
              },
              "context": {
                  "period": {
                      "start": "2010-11-10T21:33:00+05:30"
                  },
                  "related": [
                      {
                          "reference": "Practitioner/947f0d75-9af8-89a8-95bd-ff52ff01c0ca"
                      }
                  ]
              },
              "content": [
                  {
                      "attachment": {
                          "creation": "2010-11-03T03:15:00+05:30",
                          "contentType": "image/jpeg"
                      }
                  }
              ],
              "meta": {
                  "lastUpdated": "2010-11-03T17:01:00+05:30"
              },
              "author": [
                  {
                      "reference": "PractitionerRole/ad4f4bb2-0d02-6ca5-aa3b-ec7536350534"
                  },
                  {
                      "reference": "Organization/27d6dc57-0d25-ebfe-47e0-740a9602456b"
                  },
                  {
                      "reference": "Device/ed1cb569-e03b-4605-20d8-2cffb8b18260"
                  }
              ],
              "authenticator": {
                  "reference": "PractitionerRole/d584ea61-be76-cc13-dd34-14aacfeec6ce"
              },
              "masterIdentifier": {
                  "value": "018840"
              },
              "identifier": [
                  {
                      "value": "54302-DEX",
                      "type": {
                          "coding": [
                              {
                                  "system": "http://example.com/v2-to-fhir-converter/CodeSystem/identifier-type-code",
                                  "code": "DOCI",
                                  "display": "Document Unique Identifier"
                              }
                          ],
                          "text": "Document unique file name"
                      }
                  }
              ],
              "relatesTo": [
                  {
                      "code": "appends",
                      "target": {
                          "type": "DocumentReference",
                          "identifier": {
                              "value": "1307506",
                              "system": "http://example.com/v2-to-fhir-converter/Identifier/test"
                          }
                      }
                  }
              ],
              "docStatus": "preliminary",
              "securityLabel": [
                  {
                      "coding": [
                          {
                              "code": "R",
                              "system": "http://terminology.hl7.org/CodeSystem/v3-Confidentiality"
                          }
                      ]
                  }
              ],
              "status": "current",
              "category": [
                  {
                      "coding": [
                          {
                              "code": "radiology report"
                          }
                      ]
                  }
              ],
              "description": "string ofCharacters",
              "subject": {
                  "reference": "Patient/bab57240-4a39-435b-578f-50b090bab311"
              }
          },
          "request": {
              "method": "PUT",
              "url": "DocumentReference/c9562bfa-117f-9b25-6657-9b7cff7e1674"
          }
      },
      {
          "fullUrl": "urn:uuid:947f0d75-9af8-89a8-95bd-ff52ff01c0ca",
          "resource": {
              "resourceType": "Practitioner",
              "id": "947f0d75-9af8-89a8-95bd-ff52ff01c0ca",
              "identifier": [
                  {
                      "value": "John Smith"
                  }
              ]
          },
          "request": {
              "method": "PUT",
              "url": "Practitioner/947f0d75-9af8-89a8-95bd-ff52ff01c0ca"
          }
      },
      {
          "fullUrl": "urn:uuid:a0aa5af5-861a-b4eb-7cdf-7e307438caac",
          "resource": {
              "resourceType": "Practitioner",
              "id": "a0aa5af5-861a-b4eb-7cdf-7e307438caac",
              "identifier": [
                  {
                      "value": "Chris Rock"
                  }
              ]
          },
          "request": {
              "method": "PUT",
              "url": "Practitioner/a0aa5af5-861a-b4eb-7cdf-7e307438caac"
          }
      },
      {
          "fullUrl": "urn:uuid:ad4f4bb2-0d02-6ca5-aa3b-ec7536350534",
          "resource": {
              "resourceType": "PractitionerRole",
              "id": "ad4f4bb2-0d02-6ca5-aa3b-ec7536350534",
              "practitioner": {
                  "reference": "Practitioner/a0aa5af5-861a-b4eb-7cdf-7e307438caac"
              }
          },
          "request": {
              "method": "PUT",
              "url": "PractitionerRole/ad4f4bb2-0d02-6ca5-aa3b-ec7536350534"
          }
      },
      {
          "fullUrl": "urn:uuid:d7921b9f-42a0-6e35-cc6e-ca15c5af36bb",
          "resource": {
              "resourceType": "Practitioner",
              "id": "d7921b9f-42a0-6e35-cc6e-ca15c5af36bb",
              "identifier": [
                  {
                      "value": "Emma Watson"
                  }
              ]
          },
          "request": {
              "method": "PUT",
              "url": "Practitioner/d7921b9f-42a0-6e35-cc6e-ca15c5af36bb"
          }
      },
      {
          "fullUrl": "urn:uuid:d584ea61-be76-cc13-dd34-14aacfeec6ce",
          "resource": {
              "resourceType": "PractitionerRole",
              "id": "d584ea61-be76-cc13-dd34-14aacfeec6ce",
              "practitioner": {
                  "reference": "Practitioner/d7921b9f-42a0-6e35-cc6e-ca15c5af36bb"
              }
          },
          "request": {
              "method": "PUT",
              "url": "PractitionerRole/d584ea61-be76-cc13-dd34-14aacfeec6ce"
          }
      },
      {
          "fullUrl": "urn:uuid:27d6dc57-0d25-ebfe-47e0-740a9602456b",
          "resource": {
              "resourceType": "Organization",
              "id": "27d6dc57-0d25-ebfe-47e0-740a9602456b",
              "name": "Birla Doc Org"
          },
          "request": {
              "method": "PUT",
              "url": "Organization/27d6dc57-0d25-ebfe-47e0-740a9602456b"
          }
      },
      {
          "fullUrl": "urn:uuid:96cdea29-8ed2-4826-87a0-8741a87c8a0f",
          "resource": {
              "resourceType": "Location",
              "id": "96cdea29-8ed2-4826-87a0-8741a87c8a0f",
              "name": "Doc Ref, room 136, bed B 4E",
              "mode": "instance",
              "description": "Doc Ref, room 136, bed B 4E--136--B--CommunityHospital--N",
              "physicalType": {
                  "coding": [
                      {
                          "system": "http://terminology.hl7.org/CodeSystem/location-physical-type",
                          "code": "lvl"
                      }
                  ]
              },
              "managingOrganization": {
                  "reference": "Organization/27d6dc57-0d25-ebfe-47e0-740a9602456b"
              }
          },
          "request": {
              "method": "PUT",
              "url": "Location/96cdea29-8ed2-4826-87a0-8741a87c8a0f"
          }
      },
      {
          "fullUrl": "urn:uuid:db3e6fa8-64ad-b7a6-dfa1-71dcad3bbe11",
          "resource": {
              "resourceType": "Location",
              "id": "db3e6fa8-64ad-b7a6-dfa1-71dcad3bbe11",
              "partOf": {
                  "reference": "Location/96cdea29-8ed2-4826-87a0-8741a87c8a0f"
              },
              "name": "136",
              "mode": "instance",
              "description": "Doc Ref, room 136, bed B 4E--136--B--CommunityHospital--N",
              "physicalType": {
                  "coding": [
                      {
                          "system": "http://terminology.hl7.org/CodeSystem/location-physical-type",
                          "code": "ro"
                      }
                  ]
              }
          },
          "request": {
              "method": "PUT",
              "url": "Location/db3e6fa8-64ad-b7a6-dfa1-71dcad3bbe11"
          }
      },
      {
          "fullUrl": "urn:uuid:9bd0e6ea-9005-0f00-ec5c-ec753f0fdb2a",
          "resource": {
              "resourceType": "Location",
              "id": "9bd0e6ea-9005-0f00-ec5c-ec753f0fdb2a",
              "partOf": {
                  "reference": "Location/db3e6fa8-64ad-b7a6-dfa1-71dcad3bbe11"
              },
              "name": "B",
              "mode": "instance",
              "description": "Doc Ref, room 136, bed B 4E--136--B--CommunityHospital--N",
              "physicalType": {
                  "coding": [
                      {
                          "system": "http://terminology.hl7.org/CodeSystem/location-physical-type",
                          "code": "bd"
                      }
                  ]
              }
          },
          "request": {
              "method": "PUT",
              "url": "Location/9bd0e6ea-9005-0f00-ec5c-ec753f0fdb2a"
          }
      },
      {
          "fullUrl": "urn:uuid:f41c3b41-e8e6-15de-874c-4c0d09d441e1",
          "resource": {
              "resourceType": "Location",
              "id": "f41c3b41-e8e6-15de-874c-4c0d09d441e1",
              "name": "CommunityHospital",
              "mode": "instance",
              "description": "Doc Ref, room 136, bed B 4E--136--B--CommunityHospital--N",
              "physicalType": {
                  "coding": [
                      {
                          "system": "http://terminology.hl7.org/CodeSystem/location-physical-type",
                          "code": "si"
                      }
                  ]
              }
          },
          "request": {
              "method": "PUT",
              "url": "Location/f41c3b41-e8e6-15de-874c-4c0d09d441e1"
          }
      },
      {
          "fullUrl": "urn:uuid:ed1cb569-e03b-4605-20d8-2cffb8b18260",
          "resource": {
              "resourceType": "Device",
              "id": "ed1cb569-e03b-4605-20d8-2cffb8b18260",
              "identifier": [
                  {
                      "value": "PD-101.1",
                      "system": "http://example.com/v2-to-fhir-converter/Identifier/PD-10.2"
                  }
              ]
          },
          "request": {
              "method": "PUT",
              "url": "Device/ed1cb569-e03b-4605-20d8-2cffb8b18260"
          }
      },
      {
          "fullUrl": "urn:uuid:ca6d10cc-e8a7-9d21-bd61-ec6d1db557c2",
          "resource": {
              "resourceType": "Practitioner",
              "id": "ca6d10cc-e8a7-9d21-bd61-ec6d1db557c2",
              "identifier": [
                  {
                      "value": "MLEE"
                  }
              ],
              "name": [
                  {
                      "family": "ATTEND",
                      "given": [
                          "AARON",
                          "A"
                      ],
                      "suffix": [
                          "MD"
                      ]
                  }
              ]
          },
          "request": {
              "method": "PUT",
              "url": "Practitioner/ca6d10cc-e8a7-9d21-bd61-ec6d1db557c2"
          }
      },
      {
          "fullUrl": "urn:uuid:6b6a33c3-a435-90ec-be9e-ce6fd121f004",
          "resource": {
              "resourceType": "DiagnosticReport",
              "id": "6b6a33c3-a435-90ec-be9e-ce6fd121f004",
              "identifier": [
                  {
                      "value": "40bcbe96bcbf8cda8b07403263b92cb4",
                      "system": "http://example.com/v2-to-fhir-converter/Identifier/3DHISTECH_SLDID"
                  },
                  {
                      "type": {
                          "coding": [
                              {
                                  "code": "FILL"
                              }
                          ]
                      }
                  }
              ],
              "code": {
                  "coding": [
                      {
                          "code": "3DHISTECH_SLD",
                          "display": "3DHISTECH Digital Slide",
                          "system": "http://example.com/v2-to-fhir-converter/CodeSystem/L"
                      }
                  ]
              },
              "status": "unknown",
              "presentedForm": [
                  {
                      "contentType": "image/MRXS",
                      "url": "http://172.16.237.4/CaseCenter/index.php?ContainerType=CaseView&ContainerID=0&SlideID=40bcbe96bcbf8cda8b07403263b92cb4"
                  }
              ],
              "subject": {
                  "reference": "Patient/bab57240-4a39-435b-578f-50b090bab311"
              },
              "basedOn": [
                  {
                      "reference": "ServiceRequest/c2c19e02-069d-00e1-3a63-0f8115e4e043"
                  }
              ]
          },
          "request": {
              "method": "PUT",
              "url": "DiagnosticReport/6b6a33c3-a435-90ec-be9e-ce6fd121f004"
          }
      },
      {
          "fullUrl": "urn:uuid:46cde5f6-db9b-7da4-6316-2aa4cb2d0d97",
          "resource": {
              "resourceType": "DiagnosticReport",
              "id": "46cde5f6-db9b-7da4-6316-2aa4cb2d0d97",
              "code": {
                  "coding": [
                      {
                          "code": "3DHISTECH_THUMBNAIL",
                          "display": "3DHISTECH Thumbnail Image",
                          "system": "http://example.com/v2-to-fhir-converter/CodeSystem/L"
                      },
                      {
                          "code": "S_IMAGE",
                          "display": "Supplemental Image",
                          "system": "http://example.com/v2-to-fhir-converter/CodeSystem/IHELAW"
                      }
                  ]
              },
              "status": "unknown",
              "presentedForm": [
                  {
                      "contentType": "image/jpeg",
                      "data": "VGhpcyBpcyBhIEJhc2U2NCBzdHJpbmc="
                  }
              ],
              "subject": {
                  "reference": "Patient/bab57240-4a39-435b-578f-50b090bab311"
              },
              "basedOn": [
                  {
                      "reference": "ServiceRequest/c2c19e02-069d-00e1-3a63-0f8115e4e043"
                  }
              ]
          },
          "request": {
              "method": "PUT",
              "url": "DiagnosticReport/46cde5f6-db9b-7da4-6316-2aa4cb2d0d97"
          }
      },
      {
          "fullUrl": "urn:uuid:d211f7d8-a40f-ac56-9d4b-8025a9c41ded",
          "resource": {
              "resourceType": "DiagnosticReport",
              "id": "d211f7d8-a40f-ac56-9d4b-8025a9c41ded",
              "code": {
                  "coding": [
                      {
                          "code": "3DHISTECH_LABELAREA",
                          "display": "3DHISTECH Label Area Image",
                          "system": "http://example.com/v2-to-fhir-converter/CodeSystem/L"
                      },
                      {
                          "code": "S_IMAGE",
                          "display": "Supplemental Image",
                          "system": "http://example.com/v2-to-fhir-converter/CodeSystem/IHELAW"
                      }
                  ]
              },
              "status": "unknown",
              "presentedForm": [
                  {
                      "contentType": "image/jpeg",
                      "data": "VGhpcyBpcyBhIEJhc2U2NCBzdHJpbmc="
                  }
              ],
              "subject": {
                  "reference": "Patient/bab57240-4a39-435b-578f-50b090bab311"
              },
              "basedOn": [
                  {
                      "reference": "ServiceRequest/c2c19e02-069d-00e1-3a63-0f8115e4e043"
                  }
              ]
          },
          "request": {
              "method": "PUT",
              "url": "DiagnosticReport/d211f7d8-a40f-ac56-9d4b-8025a9c41ded"
          }
      },
      {
          "fullUrl": "urn:uuid:def809d3-1912-2575-903c-833c5858ec62",
          "resource": {
              "resourceType": "DiagnosticReport",
              "id": "def809d3-1912-2575-903c-833c5858ec62",
              "code": {
                  "coding": [
                      {
                          "code": "3DHISTECH_PREVIEWCAM",
                          "display": "3DHISTECH Preview Camera Image",
                          "system": "http://example.com/v2-to-fhir-converter/CodeSystem/L"
                      },
                      {
                          "code": "S_IMAGE",
                          "display": "Supplemental Image",
                          "system": "http://example.com/v2-to-fhir-converter/CodeSystem/IHELAW"
                      }
                  ]
              },
              "status": "unknown",
              "presentedForm": [
                  {
                      "contentType": "image/jpeg",
                      "data": "VGhpcyBpcyBhIEJhc2U2NCBzdHJpbmc="
                  }
              ],
              "subject": {
                  "reference": "Patient/bab57240-4a39-435b-578f-50b090bab311"
              },
              "basedOn": [
                  {
                      "reference": "ServiceRequest/c2c19e02-069d-00e1-3a63-0f8115e4e043"
                  }
              ],
              "performer": [
                  {
                      "reference": "PractitionerRole/57734a17-e169-0f2f-c1f1-8b5e7dac7987"
                  }
              ]
          },
          "request": {
              "method": "PUT",
              "url": "DiagnosticReport/def809d3-1912-2575-903c-833c5858ec62"
          }
      },
      {
          "fullUrl": "urn:uuid:57734a17-e169-0f2f-c1f1-8b5e7dac7987",
          "resource": {
              "resourceType": "PractitionerRole",
              "id": "57734a17-e169-0f2f-c1f1-8b5e7dac7987",
              "code": [
                  {
                      "coding": [
                          {
                              "code": "CP",
                              "display": "Consulting Provider",
                              "system": "http://terminology.hl7.org/CodeSystem/v2-0443"
                          }
                      ]
                  }
              ],
              "location": [
                  {
                      "reference": "Location/cc9987df-1394-0261-ab58-4d981eeb8e8a"
                  }
              ],
              "organization": {
                  "reference": "Organization/fdd8bdba-e217-ead4-074f-9e4c1ef60c0f"
              },
              "specialty": [
                  {
                      "coding": [
                          {
                              "code": "PPT"
                          }
                      ]
                  }
              ],
              "practitioner": {
                  "reference": "Practitioner/f0c4f9be-2b96-83b9-da1a-65f0ca40d62e"
              }
          },
          "request": {
              "method": "PUT",
              "url": "PractitionerRole/57734a17-e169-0f2f-c1f1-8b5e7dac7987"
          }
      },
      {
          "fullUrl": "urn:uuid:f0c4f9be-2b96-83b9-da1a-65f0ca40d62e",
          "resource": {
              "resourceType": "Practitioner",
              "id": "f0c4f9be-2b96-83b9-da1a-65f0ca40d62e",
              "identifier": [
                  {
                      "value": "432"
                  }
              ],
              "name": [
                  {
                      "family": "Jartckson"
                  }
              ]
          },
          "request": {
              "method": "PUT",
              "url": "Practitioner/f0c4f9be-2b96-83b9-da1a-65f0ca40d62e"
          }
      },
      {
          "fullUrl": "urn:uuid:fdd8bdba-e217-ead4-074f-9e4c1ef60c0f",
          "resource": {
              "resourceType": "Organization",
              "id": "fdd8bdba-e217-ead4-074f-9e4c1ef60c0f",
              "name": "Mayo12 Memorial"
          },
          "request": {
              "method": "PUT",
              "url": "Organization/fdd8bdba-e217-ead4-074f-9e4c1ef60c0f"
          }
      },
      {
          "fullUrl": "urn:uuid:16f5c983-f4f6-d905-94ea-688e4ef9ab17",
          "resource": {
              "resourceType": "ResearchStudy",
              "id": "16f5c983-f4f6-d905-94ea-688e4ef9ab17",
              "status": "active",
              "identifier": [
                  {
                      "value": "RSID1234"
                  }
              ],
              "phase": {
                  "coding": [
                      {
                          "code": "1",
                          "display": "Phase_ID1",
                          "system": "http://example.com/v2-to-fhir-converter/CodeSystem/HL70396"
                      }
                  ]
              }
          },
          "request": {
              "method": "PUT",
              "url": "ResearchStudy/16f5c983-f4f6-d905-94ea-688e4ef9ab17"
          }
      }
  ]
}