{
  "resourceType": "Bundle",
  "id": "bundle-response",
  "type": "batch-response",
  "entry": [
    {
      "resource": {
        "resourceType": "Patient",
        "id": "f001",
        "meta": {
          "versionId": "1",
          "lastUpdated": "2018-11-12T03:35:20.715Z"
        },
        "identifier": [
          {
            "use": "usual",
            "type": {
              "coding": [
                {
                  "system": "http://terminology.hl7.org/CodeSystem/v2-0203",
                  "code": "MR"
                }
              ]
            },
            "system": "urn:oid:1.2.36.146.595.217.0.1",
            "value": "12345",
            "period": {
              "start": "2001-05-06"
            },
            "assigner": {
              "display": "Acme Healthcare"
            }
          }
        ],
        "active": true,
        "name": [
          {
            "use": "official",
            "family": "Chalmers",
            "given": [
              "Peter",
              "James"
            ]
          },
          {
            "use": "usual",
            "given": [
              "Jim"
            ]
          },
          {
            "use": "maiden",
            "family": "Windsor",
            "given": [
              "Peter",
              "James"
            ],
            "period": {
              "end": "2002"
            }
          }
        ],
        "telecom": [
          {
            "use": "home"
          },
          {
            "system": "phone",
            "value": "(03) 5555 6473",
            "use": "work",
            "rank": 1
          }
        ],
        "gender": "male",
        "birthDate": "1974-12-25",
        "deceasedBoolean": false,
        "address": [
          {
            "use": "home",
            "type": "both",
            "text": "534 Erewhon St PeasantVille, Rainbow, Vic 3999",
            "line": [
              "534 Erewhon St"
            ],
            "city": "PleasantVille",
            "district": "Rainbow",
            "state": "Vic",
            "postalCode": "3999",
            "period": {
              "start": "1974-12-25"
            }
          }
        ],
        "managingOrganization": {
          "reference": "Organization/1"
        }
      }
    },
    {
      "resourceType": "Encounter",
      "id": "123",
      "text": {
        "status": "generated"
      },
      "identifier": [
        {
          "use": "official",
          "system": "http://www.amc.nl/zorgportal/identifiers/visits",
          "value": "v1451"
        }
      ],
      "status": "in-progress",
      "class": [
        {
          "coding": [
            {
              "system": "http://terminology.hl7.org/CodeSystem/v3-ActCode",
              "code": "IMP",
              "display": "inpatient encounter"
            }
          ]
        }
      ],
      "subject": {
        "reference": "Patient/f001"
      },
      "subjectStatus": {
        "coding": [
          {
            "system": "http://terminology.hl7.org/CodeSystem/encounter-subject-status",
            "code": "receiving-care"
          }
        ]
      },
      "careTeam": [
        {
          "reference": "Encounter/123"
        }
      ]
    },
    {
      "resource": {
        "resourceType": "Observation",
        "id": "f001",
        "identifier": [
          {
            "use": "official",
            "system": "http://www.bmc.nl/zorgportal/identifiers/observations",
            "value": "6323"
          }
        ],
        "status": "final",
        "code": {
          "coding": [
            {
              "system": "http://loinc.org",
              "code": "15074-8",
              "display": "Glucose [Moles/volume] in Blood"
            }
          ]
        },
        "subject": {
          "reference": "Patient/f001",
          "display": "P. van de Heuvel"
        },
        "encounter": {
          "reference": "Encounter/123"
        },
        "effectiveDateTime": "2013-04-02T09:30:10+01:00",
        "issued": "2013-04-03T15:30:10+01:00",
        "performer": [
          {
            "reference": "Practitioner/f005",
            "display": "A. Langeveld"
          }
        ],
        "valueQuantity": {
          "value": 6.3,
          "unit": "mmol/l",
          "system": "http://unitsofmeasure.org",
          "code": "mmol/L"
        },
        "interpretation": [
          {
            "coding": [
              {
                "system": "http://terminology.hl7.org/CodeSystem/v3-ObservationInterpretation",
                "code": "H",
                "display": "High"
              }
            ]
          }
        ],
        "referenceRange": [
          {
            "low": {
              "value": 3.1,
              "unit": "mmol/l",
              "system": "http://unitsofmeasure.org",
              "code": "mmol/L"
            },
            "high": {
              "value": 6.2,
              "unit": "mmol/l",
              "system": "http://unitsofmeasure.org",
              "code": "mmol/L"
            }
          }
        ]
      }
    }
  ]
}