{
  "resourceType": "Bundle",
  "type": "batch",
  "entry": [
    {
      "fullUrl": "urn:uuid:aa9b0327-0d9f-945a-888c-07658da974df",
      "resource": {
        "resourceType": "MessageHeader",
        "id": "aa9b0327-0d9f-945a-888c-07658da974df",
        "source": {
          "name": "REDOX"
        },
        "meta": {
          "tag": [
            {
              "code": "T",
              "system": "http://terminology.hl7.org/CodeSystem/v2-0103"
            }
          ]
        }
      },
      "request": {
        "method": "PUT",
        "url": "MessageHeader/aa9b0327-0d9f-945a-888c-07658da974df"
      }
    },
    {
      "fullUrl": "urn:uuid:f7a9494a-3fac-e0e1-78d8-d7c20410ca33",
      "resource": {
        "resourceType": "Patient",
        "id": "f7a9494a-3fac-e0e1-78d8-d7c20410ca33",
        "identifier": [
          {
            "value": "0000000001"
          },
          {
            "value": "e167267c-16c9-4fe3-96ae-9cff5703e90a"
          },
          {
            "value": "a1d4ee8aba494ca"
          },
          {
            "value": "101-01-0001",
            "type": {
              "coding": [
                {
                  "code": "SS",
                  "system": "http://terminology.hl7.org/CodeSystem/v2-0203"
                }
              ]
            },
            "system": "http://hl7.org/fhir/sid/us-ssn"
          }
        ],
        "name": [
          {
            "family": "Bixby",
            "given": [
              "Timothy",
              "Paul"
            ]
          }
        ],
        "birthDate": "2008-01-06",
        "gender": "male",
        "address": [
          {
            "line": [
              "4762 Hickory Street"
            ],
            "city": "Monroe",
            "state": "WI",
            "postalCode": "53566",
            "country": "US"
          },
          {
            "district": "Green"
          }
        ],
        "telecom": [
          {
            "value": "8088675301",
            "use": "home"
          }
        ],
        "contact": [
          {
            "name": {
              "family": "Bixby",
              "given": [
                "Barbara"
              ]
            },
            "address": {
              "line": [
                "4762 Hickory Street"
              ],
              "city": "Monroe",
              "state": "WI",
              "postalCode": "53566",
              "country": "US"
            },
            "telecom": [
              {
                "value": "+19189368865"
              }
            ]
          }
        ]
      },
      "request": {
        "method": "PUT",
        "url": "Patient/f7a9494a-3fac-e0e1-78d8-d7c20410ca33"
      }
    },
    {
      "fullUrl": "urn:uuid:a81dc37f-d7f3-c46a-00b1-4ff08fa99061",
      "resource": {
        "resourceType": "Provenance",
        "id": "a81dc37f-d7f3-c46a-00b1-4ff08fa99061",
        "agent": [
          {
            "type": {
              "coding": [
                {
                  "code": "author",
                  "system": "http://terminology.hl7.org/CodeSystem/provenance-participant-type"
                }
              ]
            }
          }
        ],
        "recorded": "2019-05-04T18:12:05Z"
      },
      "request": {
        "method": "PUT",
        "url": "Provenance/a81dc37f-d7f3-c46a-00b1-4ff08fa99061"
      }
    },
    {
      "fullUrl": "urn:uuid:256cf56f-8ec4-5af5-cf3f-4f9a833482be",
      "resource": {
        "resourceType": "Account",
        "id": "256cf56f-8ec4-5af5-cf3f-4f9a833482be",
        "identifier": [
          {
            "value": "1234"
          }
        ]
      },
      "request": {
        "method": "PUT",
        "url": "Account/256cf56f-8ec4-5af5-cf3f-4f9a833482be"
      }
    },
    {
      "fullUrl": "urn:uuid:99425718-6c7d-d427-2df3-db51299fdb0b",
      "resource": {
        "resourceType": "Encounter",
        "id": "99425718-6c7d-d427-2df3-db51299fdb0b",
        "class": {
          "code": "IMP",
          "display": "inpatient encounter",
          "system": "http://terminology.hl7.org/CodeSystem/v3-ActCode"
        },
        "status": "unknown",
        "participant": [
          {
            "type": [
              {
                "coding": [
                  {
                    "code": "ATND",
                    "system": "http://terminology.hl7.org/CodeSystem/v3-ParticipationType",
                    "display": "attender"
                  }
                ]
              }
            ]
          },
          {
            "type": [
              {
                "coding": [
                  {
                    "code": "REF",
                    "system": "http://terminology.hl7.org/CodeSystem/v3-ParticipationType"
                  }
                ],
                "text": "referrer"
              }
            ]
          }
        ],
        "identifier": [
          {
            "value": "1234",
            "type": {
              "coding": [
                {
                  "system": "http://terminology.hl7.org/CodeSystem/v2-0203"
                }
              ],
              "text": "visit number"
            }
          }
        ],
        "period": {
          "start": "2018-10-17T22:28:05Z"
        },
        "location": [
          {
            "location": {
              "reference": "Location/a821376a-5d7b-7274-8d95-a3f7c7efaf1b"
            },
            "status": "active"
          }
        ],
        "subject": {
          "reference": "Patient/f7a9494a-3fac-e0e1-78d8-d7c20410ca33"
        }
      },
      "request": {
        "method": "PUT",
        "url": "Encounter/99425718-6c7d-d427-2df3-db51299fdb0b"
      }
    },
    {
      "fullUrl": "urn:uuid:a821376a-5d7b-7274-8d95-a3f7c7efaf1b",
      "resource": {
        "resourceType": "Location",
        "id": "a821376a-5d7b-7274-8d95-a3f7c7efaf1b",
        "mode": "instance",
        "physicalType": {
          "coding": [
            {
              "system": "http://terminology.hl7.org/CodeSystem/location-physical-type"
            }
          ]
        }
      },
      "request": {
        "method": "PUT",
        "url": "Location/a821376a-5d7b-7274-8d95-a3f7c7efaf1b"
      }
    },
    {
      "fullUrl": "urn:uuid:ece287da-a00b-b349-5de5-c25906e7ac53",
      "resource": {
        "resourceType": "RelatedPerson",
        "id": "ece287da-a00b-b349-5de5-c25906e7ac53",
        "address": [
          {
            "line": [
              "4762 Hickory Street"
            ],
            "city": "Monroe",
            "state": "WI",
            "postalCode": "53566",
            "country": "US"
          }
        ],
        "telecom": [
          {
            "value": "+19189368865"
          }
        ],
        "name": [
          {
            "family": "Bixby",
            "given": [
              "Barbara"
            ]
          }
        ],
        "patient": {
          "reference": "Patient/f7a9494a-3fac-e0e1-78d8-d7c20410ca33"
        }
      },
      "request": {
        "method": "PUT",
        "url": "RelatedPerson/ece287da-a00b-b349-5de5-c25906e7ac53"
      }
    }
  ]
}