{
  "resourceType": "Bundle",
  "type": "transaction",
  "timestamp": "2005-01-10T04:55:04",
  "identifier": {
      "value": "599102"
  },
  "entry": [
      {
          "fullUrl": "urn:uuid:d3171c25-5db7-e705-140c-19d0972f1ba2",
          "resource": {
              "resourceType": "MessageHeader",
              "id": "d3171c25-5db7-e705-140c-19d0972f1ba2",
              "source": {
                  "name": "AccMgr",
                  "_endpoint": {
                      "extension": [
                          {
                              "url": "http://hl7.org/fhir/StructureDefinition/data-absent-reason",
                              "valueCode": "unknown"
                          }
                      ]
                  }
              },
              "meta": {
                  "tag": [
                      {
                          "code": "P",
                          "system": "http://terminology.hl7.org/CodeSystem/v2-0103"
                      }
                  ]
              },
              "eventCoding": {
                  "code": "A01",
                  "system": "http://terminology.hl7.org/CodeSystem/v2-0003",
                  "display": "ADT^A01"
              },
              "sender": {
                  "reference": "Organization/3fa041fd-9a00-f9ae-30ba-4e3ad5585603"
              }
          },
          "request": {
              "method": "PUT",
              "url": "MessageHeader/d3171c25-5db7-e705-140c-19d0972f1ba2"
          }
      },
      {
          "fullUrl": "urn:uuid:fbc2f60d-f7f1-af9a-17ea-ff70b3f4d7ea",
          "resource": {
              "resourceType": "Provenance",
              "id": "fbc2f60d-f7f1-af9a-17ea-ff70b3f4d7ea",
              "text": {
                  "status": "generated",
                  "div": "<div xmlns=\"http://www.w3.org/1999/xhtml\"><p><span>Resource bundle generated on 2021-09-27T04:09:35.749Z using Microsoft FHIR Converter.</span><span>Template Version: TEMPLATE_VERSION_PLACEHOLDER.</span><span>Template URL: https://github.com/microsoft/FHIR-Converter/releases/download/vTEMPLATE_VERSION_PLACEHOLDER/Hl7v2DefaultTemplates.tar.gz.</span><span>Root template: ADT_A01.</span></p></div>"
              },
              "occurredDateTime": "2005-01-10T04:55:04",
              "recorded": "2005-01-10T04:55:04",
              "agent": [
                  {
                      "type": {
                          "coding": [
                              {
                                  "code": "author",
                                  "system": "http://terminology.hl7.org/CodeSystem/provenance-participant-type"
                              }
                          ]
                      },
                      "who": {
                          "reference": "Organization/3fa041fd-9a00-f9ae-30ba-4e3ad5585603"
                      }
                  }
              ],
              "activity": {
                  "coding": [
                      {
                          "display": "ADT^A01^"
                      }
                  ]
              },
              "target": [
                  {
                      "reference": "MessageHeader/d3171c25-5db7-e705-140c-19d0972f1ba2"
                  }
              ]
          },
          "request": {
              "method": "PUT",
              "url": "Provenance/fbc2f60d-f7f1-af9a-17ea-ff70b3f4d7ea"
          }
      },
      {
          "fullUrl": "urn:uuid:3fa041fd-9a00-f9ae-30ba-4e3ad5585603",
          "resource": {
              "resourceType": "Organization",
              "id": "3fa041fd-9a00-f9ae-30ba-4e3ad5585603",
              "identifier": [
                  {
                      "value": "1",
                      "system": "http://example.com/v2-to-fhir-converter/assigning-authority-local-system-1"
                  }
              ]
          },
          "request": {
              "method": "PUT",
              "url": "Organization/3fa041fd-9a00-f9ae-30ba-4e3ad5585603"
          }
      },
      {
          "fullUrl": "urn:uuid:bab5ca58-f272-4c06-4b3f-f9661e45a22b",
          "resource": {
              "resourceType": "Patient",
              "id": "bab5ca58-f272-4c06-4b3f-f9661e45a22b",
              "identifier": [
                  {
                      "value": "10006579",
                      "type": {
                          "coding": [
                              {
                                  "code": "MR",
                                  "system": "http://terminology.hl7.org/CodeSystem/v2-0203",
                                  "display": "Medical record number"
                              }
                          ]
                      },
                      "system": "http://example.com/v2-to-fhir-converter/assigning-authority-local-system-1"
                  },
                  {
                      "value": "123121234",
                      "type": {
                          "coding": [
                              {
                                  "code": "SB",
                                  "system": "http://terminology.hl7.org/CodeSystem/v2-0203"
                              }
                          ]
                      },
                      "system": "http://hl7.org/fhir/sid/us-ssn"
                  }
              ],
              "name": [
                  {
                      "family": "DUCK",
                      "given": [
                          "DONALD",
                          "D"
                      ]
                  },
                  {
                      "family": "123121234A"
                  }
              ],
              "birthDate": "1924-10-10",
              "gender": "male",
              "address": [
                  {
                      "line": [
                          "111 DUCK ST"
                      ],
                      "city": "FOWL",
                      "state": "CA",
                      "postalCode": "999990000",
                      "type": "postal"
                  },
                  {
                      "district": "1"
                  }
              ],
              "telecom": [
                  {
                      "value": "8885551212",
                      "use": "home"
                  },
                  {
                      "value": "8885551212",
                      "use": "work"
                  }
              ],
              "communication": [
                  {
                      "language": {
                          "coding": [
                              {
                                  "code": "1",
                                  "display": "1"
                              }
                          ]
                      },
                      "preferred": true
                  }
              ],
              "maritalStatus": {
                  "coding": [
                      {
                          "code": "2",
                          "display": "2"
                      }
                  ]
              },
              "deceasedBoolean": false,
              "extension": [
                  {
                      "url": "http://hl7.org/fhir/us/core/StructureDefinition/us-core-race",
                      "extension": [
                          {
                              "url": "ombCategory",
                              "valueCoding": {
                                  "code": "1",
                                  "display": "1"
                              }
                          },
                          {
                              "url": "text",
                              "valueString": "1"
                          }
                      ]
                  }
              ],
              "contact": [
                  {
                      "name": {
                          "family": "DUCK",
                          "given": [
                              "HUEY"
                          ]
                      },
                      "address": {
                          "line": [
                              "3583 DUCK RD"
                          ],
                          "city": "FOWL",
                          "state": "CA",
                          "postalCode": "999990000"
                      },
                      "telecom": [
                          {
                              "value": "8885552222",
                              "use": "home"
                          }
                      ],
                      "relationship": [
                          {
                              "coding": [
                                  {
                                      "code": "Y",
                                      "display": "Y"
                                  }
                              ]
                          }
                      ]
                  }
              ]
          },
          "request": {
              "method": "PUT",
              "url": "Patient/bab5ca58-f272-4c06-4b3f-f9661e45a22b"
          }
      },
      {
          "fullUrl": "urn:uuid:f70a39cb-cf13-6f75-885d-cf691752c711",
          "resource": {
              "resourceType": "Account",
              "id": "f70a39cb-cf13-6f75-885d-cf691752c711",
              "identifier": [
                  {
                      "value": "40007716",
                      "type": {
                          "coding": [
                              {
                                  "code": "VN",
                                  "system": "http://terminology.hl7.org/CodeSystem/v2-0203",
                                  "display": "Visit number"
                              }
                          ]
                      },
                      "system": "http://example.com/v2-to-fhir-converter/assigning-authority-local-system-AccMgr"
                  }
              ],
              "status": "active",
              "subject": [
                  {
                      "reference": "Patient/bab5ca58-f272-4c06-4b3f-f9661e45a22b"
                  }
              ],
              "guarantor": [
                  {
                      "party": {
                          "reference": "RelatedPerson/c1c24d3d-6174-9cec-9997-28c5e239711f"
                      }
                  },
                  {
                      "party": {
                          "reference": "Organization/"
                      }
                  }
              ]
          },
          "request": {
              "method": "PUT",
              "url": "Account/f70a39cb-cf13-6f75-885d-cf691752c711"
          }
      },
      {
          "fullUrl": "urn:uuid:c1c24d3d-6174-9cec-9997-28c5e239711f",
          "resource": {
              "resourceType": "RelatedPerson",
              "id": "c1c24d3d-6174-9cec-9997-28c5e239711f",
              "identifier": [
                  {
                      "value": "8291"
                  },
                  {
                      "value": "123121234",
                      "type": {
                          "coding": [
                              {
                                  "code": "SB",
                                  "system": "http://terminology.hl7.org/CodeSystem/v2-0203"
                              }
                          ]
                      },
                      "system": "http://hl7.org/fhir/sid/us-ssn"
                  }
              ],
              "relationship": [
                  {
                      "coding": [
                          {
                              "code": "1",
                              "display": "1"
                          }
                      ]
                  }
              ],
              "address": [
                  {
                      "line": [
                          "111",
                          "DUCK ST"
                      ],
                      "state": "FOWL",
                      "postalCode": "CA",
                      "country": "999990000"
                  }
              ],
              "telecom": [
                  {
                      "value": "8885551212",
                      "use": "home"
                  }
              ],
              "name": [
                  {
                      "family": "DUCK",
                      "given": [
                          "DONALD",
                          "D"
                      ]
                  }
              ],
              "gender": "male",
              "birthDate": "1924-10-10",
              "patient": {
                  "reference": "Patient/bab5ca58-f272-4c06-4b3f-f9661e45a22b"
              }
          },
          "request": {
              "method": "PUT",
              "url": "RelatedPerson/c1c24d3d-6174-9cec-9997-28c5e239711f"
          }
      },
      {
          "fullUrl": "urn:uuid:",
          "resource": {
              "resourceType": "Organization",
              "name": " ",
              "address": [
                  {
                      "line": [
                          "111",
                          "DUCK ST"
                      ],
                      "state": "FOWL",
                      "postalCode": "CA",
                      "country": "999990000"
                  }
              ],
              "contact": [
                  {
                      "name": {
                          "family": "DUCK",
                          "given": [
                              "DONALD",
                              "D"
                          ]
                      }
                  }
              ],
              "telecom": [
                  {
                      "value": "8885551212"
                  }
              ],
              "identifier": [
                  {
                      "value": "8291"
                  }
              ]
          },
          "request": {
              "method": "PUT",
              "url": "Organization/"
          }
      },
      {
          "fullUrl": "urn:uuid:b065b233-8738-f1ec-1314-d61e4aac2c9e",
          "resource": {
              "resourceType": "Practitioner",
              "id": "b065b233-8738-f1ec-1314-d61e4aac2c9e",
              "identifier": [
                  {
                      "value": "37",
                      "system": "http://example.com/v2-to-fhir-converter/assigning-authority-local-system-AccMgr",
                      "type": {
                          "coding": [
                              {
                                  "code": "CI",
                                  "display": "CI"
                              }
                          ]
                      }
                  }
              ],
              "name": [
                  {
                      "family": "DISNEY",
                      "given": [
                          "WALT"
                      ]
                  }
              ]
          },
          "request": {
              "method": "PUT",
              "url": "Practitioner/b065b233-8738-f1ec-1314-d61e4aac2c9e"
          }
      },
      {
          "fullUrl": "urn:uuid:eafc9bd8-6600-8232-f911-25b4ea83f641",
          "resource": {
              "resourceType": "Location",
              "id": "eafc9bd8-6600-8232-f911-25b4ea83f641",
              "name": "PREOP",
              "mode": "instance",
              "physicalType": {
                  "coding": [
                      {
                          "system": "http://terminology.hl7.org/CodeSystem/location-physical-type",
                          "code": "lvl"
                      }
                  ]
              }
          },
          "request": {
              "method": "PUT",
              "url": "Location/eafc9bd8-6600-8232-f911-25b4ea83f641"
          }
      },
      {
          "fullUrl": "urn:uuid:3ab35502-6cac-adb6-225e-1d28c3082bf5",
          "resource": {
              "resourceType": "Location",
              "id": "3ab35502-6cac-adb6-225e-1d28c3082bf5",
              "partOf": {
                  "reference": "Location/eafc9bd8-6600-8232-f911-25b4ea83f641"
              },
              "name": "101",
              "mode": "instance",
              "physicalType": {
                  "coding": [
                      {
                          "system": "http://terminology.hl7.org/CodeSystem/location-physical-type",
                          "code": "ro"
                      }
                  ]
              }
          },
          "request": {
              "method": "PUT",
              "url": "Location/3ab35502-6cac-adb6-225e-1d28c3082bf5"
          }
      },
      {
          "fullUrl": "urn:uuid:b2d5327c-354a-b91d-541d-c6b0fe91a841",
          "resource": {
              "resourceType": "Location",
              "id": "b2d5327c-354a-b91d-541d-c6b0fe91a841",
              "partOf": {
                  "reference": "Location/3ab35502-6cac-adb6-225e-1d28c3082bf5"
              },
              "name": "1",
              "mode": "instance",
              "physicalType": {
                  "coding": [
                      {
                          "system": "http://terminology.hl7.org/CodeSystem/location-physical-type",
                          "code": "bd"
                      },
                      {
                          "system": "http://terminology.hl7.org/CodeSystem/location-physical-type",
                          "code": "si"
                      }
                  ]
              }
          },
          "request": {
              "method": "PUT",
              "url": "Location/b2d5327c-354a-b91d-541d-c6b0fe91a841"
          }
      },
      {
          "fullUrl": "urn:uuid:cb0cbfcd-bdcd-775d-ed89-65b953b8e1de",
          "resource": {
              "resourceType": "Location",
              "id": "cb0cbfcd-bdcd-775d-ed89-65b953b8e1de",
              "partOf": {
                  "reference": "Location/b2d5327c-354a-b91d-541d-c6b0fe91a841"
              },
              "name": "S",
              "mode": "instance",
              "physicalType": {
                  "coding": [
                      {
                          "system": "http://terminology.hl7.org/CodeSystem/location-physical-type",
                          "code": "bu"
                      }
                  ]
              }
          },
          "request": {
              "method": "PUT",
              "url": "Location/cb0cbfcd-bdcd-775d-ed89-65b953b8e1de"
          }
      },
      {
          "fullUrl": "urn:uuid:984ec8bc-49c4-56fe-100c-942e6c5a6e3c",
          "resource": {
              "resourceType": "Encounter",
              "id": "984ec8bc-49c4-56fe-100c-942e6c5a6e3c",
              "class": {
                  "code": "IMP",
                  "display": "inpatient encounter",
                  "system": "http://terminology.hl7.org/CodeSystem/v3-ActCode"
              },
              "status": "in-progress",
              "location": [
                  {
                      "status": "active",
                      "location": {
                          "reference": "Location/eafc9bd8-6600-8232-f911-25b4ea83f641"
                      }
                  },
                  {
                      "status": "active",
                      "location": {
                          "reference": "Location/3ab35502-6cac-adb6-225e-1d28c3082bf5"
                      }
                  },
                  {
                      "status": "active",
                      "location": {
                          "reference": "Location/b2d5327c-354a-b91d-541d-c6b0fe91a841"
                      }
                  },
                  {
                      "status": "active",
                      "location": {
                          "reference": "Location/b2d5327c-354a-b91d-541d-c6b0fe91a841"
                      }
                  },
                  {
                      "status": "active",
                      "location": {
                          "reference": "Location/cb0cbfcd-bdcd-775d-ed89-65b953b8e1de"
                      }
                  }
              ],
              "type": [
                  {
                      "coding": [
                          {
                              "code": "3",
                              "display": "3"
                          }
                      ]
                  }
              ],
              "hospitalization": {
                  "admitSource": {
                      "coding": [
                          {
                              "code": "1"
                          }
                      ]
                  }
              },
              "participant": [
                  {
                      "type": [
                          {
                              "coding": [
                                  {
                                      "code": "ATND",
                                      "system": "http://terminology.hl7.org/CodeSystem/v3-ParticipationType",
                                      "display": "attender"
                                  }
                              ]
                          }
                      ],
                      "individual": {
                          "reference": "Practitioner/b065b233-8738-f1ec-1314-d61e4aac2c9e"
                      }
                  },
                  {
                      "type": [
                          {
                              "coding": [
                                  {
                                      "code": "ADM",
                                      "system": "http://terminology.hl7.org/CodeSystem/v3-ParticipationType"
                                  }
                              ],
                              "text": "admitter"
                          }
                      ],
                      "individual": {
                          "reference": "Practitioner/b065b233-8738-f1ec-1314-d61e4aac2c9e"
                      }
                  }
              ],
              "serviceType": {
                  "coding": [
                      {
                          "code": "01"
                      }
                  ]
              },
              "identifier": [
                  {
                      "value": "40007716",
                      "system": "http://example.com/v2-to-fhir-converter/assigning-authority-local-system-AccMgr",
                      "type": {
                          "coding": [
                              {
                                  "code": "VN",
                                  "system": "http://terminology.hl7.org/CodeSystem/v2-0203"
                              }
                          ],
                          "text": "visit number"
                      }
                  },
                  {
                      "value": " "
                  }
              ],
              "period": {
                  "start": "2005-01-10T04:52:53"
              },
              "text": {
                  "status": "generated",
                  "div": "<div xmlns=\"http://www.w3.org/1999/xhtml\"><p><span>Visit Description: </span></p></div>"
              },
              "subject": {
                  "reference": "Patient/bab5ca58-f272-4c06-4b3f-f9661e45a22b"
              },
              "diagnosis": [
                  {
                      "condition": {
                          "reference": "Condition/fd373c0d-5aa8-e1f7-177c-77127280b897"
                      },
                      "use": {
                          "coding": [
                              {
                                  "code": "AD",
                                  "display": "Admission Diagnosis",
                                  "system": "http://terminology.hl7.org/CodeSystem/diagnosis-role"
                              }
                          ]
                      }
                  }
              ]
          },
          "request": {
              "method": "PUT",
              "url": "Encounter/984ec8bc-49c4-56fe-100c-942e6c5a6e3c"
          }
      },
      {
          "fullUrl": "urn:uuid:397b71e6-32b5-33bc-db1a-b1bf6d3d5783",
          "resource": {
              "resourceType": "Provenance",
              "id": "397b71e6-32b5-33bc-db1a-b1bf6d3d5783",
              "recorded": "2005-01-10T04:55:02",
              "activity": {
                  "text": "ADT^A01"
              },
              "target": [
                  {
                      "reference": "MessageHeader/d3171c25-5db7-e705-140c-19d0972f1ba2"
                  }
              ]
          },
          "request": {
              "method": "PUT",
              "url": "Provenance/397b71e6-32b5-33bc-db1a-b1bf6d3d5783"
          }
      },
      {
          "fullUrl": "urn:uuid:b8e7e176-84c6-7e2d-d422-a69df56229d8",
          "resource": {
              "resourceType": "RelatedPerson",
              "id": "b8e7e176-84c6-7e2d-d422-a69df56229d8",
              "relationship": [
                  {
                      "coding": [
                          {
                              "code": "SO",
                              "display": "SO"
                          }
                      ]
                  },
                  {
                      "coding": [
                          {
                              "code": "Y",
                              "display": "Y"
                          }
                      ]
                  }
              ],
              "address": [
                  {
                      "line": [
                          "3583 DUCK RD"
                      ],
                      "city": "FOWL",
                      "state": "CA",
                      "postalCode": "999990000"
                  }
              ],
              "telecom": [
                  {
                      "value": "8885552222"
                  }
              ],
              "name": [
                  {
                      "family": "DUCK",
                      "given": [
                          "HUEY"
                      ]
                  }
              ],
              "patient": {
                  "reference": "Patient/bab5ca58-f272-4c06-4b3f-f9661e45a22b"
              }
          },
          "request": {
              "method": "PUT",
              "url": "RelatedPerson/b8e7e176-84c6-7e2d-d422-a69df56229d8"
          }
      },
      {
          "fullUrl": "urn:uuid:fd373c0d-5aa8-e1f7-177c-77127280b897",
          "resource": {
              "resourceType": "Condition",
              "id": "fd373c0d-5aa8-e1f7-177c-77127280b897",
              "code": {
                  "coding": [
                      {
                          "code": "71596",
                          "display": "OSTEOARTHROS NOS-L/LEG ",
                          "system": "http://hl7.org/fhir/sid/icd-9"
                      }
                  ],
                  "text": "OSTEOARTHROS NOS-L/LEG "
              },
              "subject": {
                  "reference": "Patient/bab5ca58-f272-4c06-4b3f-f9661e45a22b"
              }
          },
          "request": {
              "method": "PUT",
              "url": "Condition/fd373c0d-5aa8-e1f7-177c-77127280b897"
          }
      },
      {
          "fullUrl": "urn:uuid:",
          "resource": {
              "resourceType": "Condition",
              "subject": {
                  "reference": "Patient/bab5ca58-f272-4c06-4b3f-f9661e45a22b"
              }
          },
          "request": {
              "method": "PUT",
              "url": "Condition/"
          }
      },
      {
          "fullUrl": "urn:uuid:7b35da63-ce1c-52f4-960b-ae08c5a3410d",
          "resource": {
              "resourceType": "Coverage",
              "id": "7b35da63-ce1c-52f4-960b-ae08c5a3410d",
              "class": [
                  {
                      "value": "MEDICARE",
                      "type": {
                          "coding": [
                              {
                                  "system": "http://terminology.hl7.org/CodeSystem/coverage-class",
                                  "code": "plan",
                                  "display": "Plan"
                              }
                          ]
                      }
                  }
              ],
              "period": {
                  "start": "1989-10-01"
              },
              "type": {
                  "coding": [
                      {
                          "code": "4",
                          "display": "4"
                      }
                  ]
              },
              "identifier": [
                  {
                      "value": "123121234A",
                      "type": {
                          "coding": [
                              {
                                  "code": "PLN",
                                  "display": "Policy Number",
                                  "system": "http://example.com/CodeSystem/additional-identifier"
                              }
                          ]
                      },
                      "system": "http://www.examplehealthplan.com/fhir/policyidentifier"
                  },
                  {
                      "value": "8291 "
                  }
              ],
              "subscriberId": "8291 ",
              "status": "active",
              "beneficiary": {
                  "reference": "Patient/bab5ca58-f272-4c06-4b3f-f9661e45a22b"
              },
              "payor": [
                  {
                      "reference": "Organization/d5d6f8c9-6369-c812-5d52-5945e088bba6"
                  }
              ],
              "policyHolder": {
                  "reference": "RelatedPerson/24bec897-ef02-acae-94f7-f60b3ea3ce64"
              },
              "subscriber": {
                  "reference": "RelatedPerson/94a4c036-1d19-4b6e-b86c-648b14984a25"
              }
          },
          "request": {
              "method": "PUT",
              "url": "Coverage/7b35da63-ce1c-52f4-960b-ae08c5a3410d"
          }
      },
      {
          "fullUrl": "urn:uuid:d5d6f8c9-6369-c812-5d52-5945e088bba6",
          "resource": {
              "resourceType": "Organization",
              "id": "d5d6f8c9-6369-c812-5d52-5945e088bba6",
              "identifier": [
                  {
                      "value": "3"
                  }
              ],
              "name": "MEDICARE"
          },
          "request": {
              "method": "PUT",
              "url": "Organization/d5d6f8c9-6369-c812-5d52-5945e088bba6"
          }
      },
      {
          "fullUrl": "urn:uuid:a893c6bc-d94a-a53e-d272-638fc5b75e83",
          "resource": {
              "resourceType": "Organization",
              "id": "a893c6bc-d94a-a53e-d272-638fc5b75e83",
              "address": [
                  {
                      "line": [
                          "111 DUCK ST"
                      ],
                      "city": "FOWL",
                      "state": "CA",
                      "postalCode": "999990000"
                  },
                  {
                      "line": [
                          "111",
                          "DUCK ST"
                      ],
                      "state": "FOWL",
                      "postalCode": "CA",
                      "country": "999990000"
                  }
              ],
              "name": "Cartoon Ducks Inc",
              "telecom": [
                  {
                      "value": "8885551212 "
                  }
              ]
          },
          "request": {
              "method": "PUT",
              "url": "Organization/a893c6bc-d94a-a53e-d272-638fc5b75e83"
          }
      },
      {
          "fullUrl": "urn:uuid:94a4c036-1d19-4b6e-b86c-648b14984a25",
          "resource": {
              "resourceType": "RelatedPerson",
              "id": "94a4c036-1d19-4b6e-b86c-648b14984a25",
              "identifier": [
                  {
                      "value": "8291 "
                  },
                  {
                      "value": "1"
                  },
                  {
                      "value": "2"
                  }
              ],
              "relationship": [
                  {
                      "coding": [
                          {
                              "code": "1",
                              "display": "1"
                          }
                      ]
                  }
              ],
              "address": [
                  {
                      "line": [
                          "111",
                          "DUCK ST"
                      ],
                      "state": "FOWL",
                      "postalCode": "CA",
                      "country": "999990000"
                  },
                  {
                      "line": [
                          "111 DUCK ST"
                      ],
                      "city": "FOWL",
                      "state": "CA",
                      "postalCode": "999990000"
                  }
              ],
              "name": [
                  {
                      "family": "DUCK",
                      "given": [
                          "DONALD",
                          "D"
                      ]
                  }
              ],
              "gender": "male",
              "birthDate": "1924-10-10",
              "patient": {
                  "reference": "Patient/bab5ca58-f272-4c06-4b3f-f9661e45a22b"
              }
          },
          "request": {
              "method": "PUT",
              "url": "RelatedPerson/94a4c036-1d19-4b6e-b86c-648b14984a25"
          }
      },
      {
          "fullUrl": "urn:uuid:24bec897-ef02-acae-94f7-f60b3ea3ce64",
          "resource": {
              "resourceType": "RelatedPerson",
              "id": "24bec897-ef02-acae-94f7-f60b3ea3ce64",
              "relationship": [
                  {
                      "coding": [
                          {
                              "code": "E",
                              "display": "Employer",
                              "system": "http://terminology.hl7.org/CodeSystem/v2-0131"
                          }
                      ]
                  }
              ],
              "telecom": [
                  {
                      "value": "8885551212 "
                  }
              ],
              "patient": {
                  "reference": "Patient/bab5ca58-f272-4c06-4b3f-f9661e45a22b"
              },
              "identifier": [
                  {
                      "value": "123121234"
                  }
              ]
          },
          "request": {
              "method": "PUT",
              "url": "RelatedPerson/24bec897-ef02-acae-94f7-f60b3ea3ce64"
          }
      },
      {
          "fullUrl": "urn:uuid:832bb930-49c3-4505-d1ce-bcade656dba5",
          "resource": {
              "resourceType": "Coverage",
              "id": "832bb930-49c3-4505-d1ce-bcade656dba5",
              "class": [
                  {
                      "value": "NON-PRIMARY",
                      "type": {
                          "coding": [
                              {
                                  "system": "http://terminology.hl7.org/CodeSystem/coverage-class",
                                  "code": "plan",
                                  "display": "Plan"
                              }
                          ]
                      }
                  },
                  {
                      "value": "PUBSUMB",
                      "type": {
                          "coding": [
                              {
                                  "system": "http://terminology.hl7.org/CodeSystem/coverage-class",
                                  "code": "group",
                                  "display": "Group"
                              }
                          ]
                      }
                  }
              ],
              "type": {
                  "coding": [
                      {
                          "code": "7",
                          "display": "7"
                      }
                  ]
              },
              "identifier": [
                  {
                      "value": "056269770",
                      "type": {
                          "coding": [
                              {
                                  "code": "PLN",
                                  "display": "Policy Number",
                                  "system": "http://example.com/CodeSystem/additional-identifier"
                              }
                          ]
                      },
                      "system": "http://www.examplehealthplan.com/fhir/policyidentifier"
                  },
                  {
                      "value": "8291 "
                  }
              ],
              "subscriberId": "8291 ",
              "status": "active",
              "beneficiary": {
                  "reference": "Patient/bab5ca58-f272-4c06-4b3f-f9661e45a22b"
              },
              "payor": [
                  {
                      "reference": "Organization/86a9a2de-3550-dc90-3bca-b3d704a59783"
                  }
              ],
              "policyHolder": {
                  "reference": "RelatedPerson/24bec897-ef02-acae-94f7-f60b3ea3ce64"
              },
              "subscriber": {
                  "reference": "RelatedPerson/94a4c036-1d19-4b6e-b86c-648b14984a25"
              }
          },
          "request": {
              "method": "PUT",
              "url": "Coverage/832bb930-49c3-4505-d1ce-bcade656dba5"
          }
      },
      {
          "fullUrl": "urn:uuid:86a9a2de-3550-dc90-3bca-b3d704a59783",
          "resource": {
              "resourceType": "Organization",
              "id": "86a9a2de-3550-dc90-3bca-b3d704a59783",
              "address": [
                  {
                      "line": [
                          "PO BOX 94776"
                      ],
                      "city": "HOLLYWOOD",
                      "state": "CA",
                      "postalCode": "441414776"
                  }
              ],
              "telecom": [
                  {
                      "value": "8003621279"
                  }
              ],
              "identifier": [
                  {
                      "value": "9"
                  }
              ],
              "name": "MEDICAL MUTUAL CALIF."
          },
          "request": {
              "method": "PUT",
              "url": "Organization/86a9a2de-3550-dc90-3bca-b3d704a59783"
          }
      },
      {
          "fullUrl": "urn:uuid:513f3296-d7f1-67cf-3804-626f676bdfe6",
          "resource": {
              "resourceType": "Coverage",
              "id": "513f3296-d7f1-67cf-3804-626f676bdfe6",
              "class": [
                  {
                      "value": "SELF PAY",
                      "type": {
                          "coding": [
                              {
                                  "system": "http://terminology.hl7.org/CodeSystem/coverage-class",
                                  "code": "plan",
                                  "display": "Plan"
                              }
                          ]
                      }
                  }
              ],
              "type": {
                  "coding": [
                      {
                          "code": "5",
                          "display": "5"
                      }
                  ]
              },
              "status": "active",
              "beneficiary": {
                  "reference": "Patient/bab5ca58-f272-4c06-4b3f-f9661e45a22b"
              },
              "payor": [
                  {
                      "reference": "Organization/8ac53b31-2bcc-9125-2dd7-15711c804a45"
                  }
              ],
              "subscriber": {
                  "reference": "RelatedPerson/f297484c-5f2a-4493-2d74-d7bcecdf5017"
              },
              "policyHolder": {
                  "reference": "RelatedPerson/24bec897-ef02-acae-94f7-f60b3ea3ce64"
              }
          },
          "request": {
              "method": "PUT",
              "url": "Coverage/513f3296-d7f1-67cf-3804-626f676bdfe6"
          }
      },
      {
          "fullUrl": "urn:uuid:8ac53b31-2bcc-9125-2dd7-15711c804a45",
          "resource": {
              "resourceType": "Organization",
              "id": "8ac53b31-2bcc-9125-2dd7-15711c804a45",
              "identifier": [
                  {
                      "value": "1"
                  }
              ],
              "name": "SELF PAY"
          },
          "request": {
              "method": "PUT",
              "url": "Organization/8ac53b31-2bcc-9125-2dd7-15711c804a45"
          }
      },
      {
          "fullUrl": "urn:uuid:f297484c-5f2a-4493-2d74-d7bcecdf5017",
          "resource": {
              "resourceType": "RelatedPerson",
              "id": "f297484c-5f2a-4493-2d74-d7bcecdf5017",
              "relationship": [
                  {
                      "coding": [
                          {
                              "code": "1",
                              "display": "1"
                          }
                      ]
                  }
              ],
              "patient": {
                  "reference": "Patient/bab5ca58-f272-4c06-4b3f-f9661e45a22b"
              },
              "identifier": [
                  {
                      "value": "1"
                  },
                  {
                      "value": "2"
                  }
              ]
          },
          "request": {
              "method": "PUT",
              "url": "RelatedPerson/f297484c-5f2a-4493-2d74-d7bcecdf5017"
          }
      }
  ]
}