{
    "resourceType": "Bundle",
    "type": "batch",
    "timestamp": "2005-01-10T04:55:04+07:00",
    "identifier": {
        "value": "599102"
    },
    "id": "e03ac438-666e-8052-70a3-e61b15358b4b",
    "entry": [
        {
            "fullUrl": "urn:uuid:d3171c25-5db7-e705-140c-19d0972f1ba2",
            "resource": {
                "resourceType": "MessageHeader",
                "id": "d3171c25-5db7-e705-140c-19d0972f1ba2",
                "source": {
                    "name": "AccMgr",
                    "_endpoint": {
                        "extension": [
                            {
                                "url": "http://hl7.org/fhir/StructureDefinition/data-absent-reason",
                                "valueCode": "unknown"
                            }
                        ]
                    }
                },
                "meta": {
                    "tag": [
                        {
                            "code": "P",
                            "system": "http://terminology.hl7.org/CodeSystem/v2-0103"
                        }
                    ]
                },
                "eventCoding": {
                    "code": "A01",
                    "system": "http://terminology.hl7.org/CodeSystem/v2-0003",
                    "display": "ADT^A01"
                },
                "sender": {
                    "reference": "Organization/3fa041fd-9a00-f9ae-30ba-4e3ad5585603"
                }
            },
            "request": {
                "method": "PUT",
                "url": "MessageHeader/d3171c25-5db7-e705-140c-19d0972f1ba2"
            }
        },
        {
            "fullUrl": "urn:uuid:4e45fbdc-bab9-f433-dde6-a8adf26acf93",
            "resource": {
                "resourceType": "Provenance",
                "id": "4e45fbdc-bab9-f433-dde6-a8adf26acf93",
                "text": {
                    "status": "generated",
                    "div": "<div xmlns=\"http://www.w3.org/1999/xhtml\"><p><span>Resource bundle generated on 2022-03-25T13:15:41.496Z using Microsoft FHIR Converter.</span><span>Template Version: TEMPLATE_VERSION_PLACEHOLDER.</span><span>Template URL: https://github.com/microsoft/FHIR-Converter/releases/download/vTEMPLATE_VERSION_PLACEHOLDER/Hl7v2DefaultTemplates.tar.gz.</span><span>Root template: ADT_A01.</span></p></div>"
                },
                "occurredDateTime": "2005-01-10T04:55:04+07:00",
                "recorded": "2005-01-10T04:55:04+07:00",
                "agent": [
                    {
                        "type": {
                            "coding": [
                                {
                                    "code": "author",
                                    "system": "http://terminology.hl7.org/CodeSystem/provenance-participant-type"
                                }
                            ]
                        },
                        "who": {
                            "reference": "Organization/3fa041fd-9a00-f9ae-30ba-4e3ad5585603"
                        }
                    }
                ],
                "activity": {
                    "coding": [
                        {
                            "display": "ADT^A01^"
                        }
                    ]
                },
                "target": [
                    {
                        "reference": "Bundle/e03ac438-666e-8052-70a3-e61b15358b4b"
                    }
                ]
            },
            "request": {
                "method": "PUT",
                "url": "Provenance/4e45fbdc-bab9-f433-dde6-a8adf26acf93"
            }
        },
        {
            "fullUrl": "urn:uuid:3fa041fd-9a00-f9ae-30ba-4e3ad5585603",
            "resource": {
                "resourceType": "Organization",
                "id": "3fa041fd-9a00-f9ae-30ba-4e3ad5585603",
                "identifier": [
                    {
                        "value": "1",
                        "system": "http://example.com/v2-to-fhir-converter/Identifier/1"
                    }
                ]
            },
            "request": {
                "method": "PUT",
                "url": "Organization/3fa041fd-9a00-f9ae-30ba-4e3ad5585603"
            }
        },
        {
            "fullUrl": "urn:uuid:bab5ca58-f272-4c06-4b3f-f9661e45a22b",
            "resource": {
                "resourceType": "Patient",
                "id": "bab5ca58-f272-4c06-4b3f-f9661e45a22b",
                "identifier": [
                    {
                        "value": "10006579",
                        "type": {
                            "coding": [
                                {
                                    "code": "MR",
                                    "system": "http://terminology.hl7.org/CodeSystem/v2-0203",
                                    "display": "Medical record number"
                                }
                            ]
                        },
                        "system": "http://example.com/v2-to-fhir-converter/Identifier/1"
                    },
                    {
                        "value": "123121234",
                        "type": {
                            "coding": [
                                {
                                    "code": "SB",
                                    "system": "http://terminology.hl7.org/CodeSystem/v2-0203"
                                }
                            ]
                        },
                        "system": "http://hl7.org/fhir/sid/us-ssn"
                    }
                ],
                "name": [
                    {
                        "family": "DUCK",
                        "given": [
                            "DONALD",
                            "D"
                        ]
                    },
                    {
                        "family": "123121234A"
                    }
                ],
                "birthDate": "1924-10-10",
                "gender": "male",
                "address": [
                    {
                        "line": [
                            "111 DUCK ST"
                        ],
                        "city": "FOWL",
                        "state": "CA",
                        "postalCode": "999990000",
                        "type": "postal"
                    },
                    {
                        "district": "1"
                    }
                ],
                "telecom": [
                    {
                        "value": "8885551212",
                        "use": "home"
                    },
                    {
                        "value": "8885551212",
                        "use": "work"
                    }
                ],
                "communication": [
                    {
                        "language": {
                            "coding": [
                                {
                                    "code": "1",
                                    "display": "1"
                                }
                            ]
                        },
                        "preferred": true
                    }
                ],
                "maritalStatus": {
                    "coding": [
                        {
                            "code": "2",
                            "display": "2"
                        }
                    ]
                },
                "deceasedBoolean": false,
                "extension": [
                    {
                        "url": "http://hl7.org/fhir/us/core/StructureDefinition/us-core-race",
                        "extension": [
                            {
                                "url": "ombCategory",
                                "valueCoding": {
                                    "code": "1",
                                    "display": "1"
                                }
                            },
                            {
                                "url": "text",
                                "valueString": "1"
                            }
                        ]
                    }
                ],
                "contact": [
                    {
                        "name": {
                            "family": "DUCK",
                            "given": [
                                "HUEY"
                            ]
                        },
                        "address": {
                            "line": [
                                "3583 DUCK RD"
                            ],
                            "city": "FOWL",
                            "state": "CA",
                            "postalCode": "999990000"
                        },
                        "telecom": [
                            {
                                "value": "8885552222",
                                "use": "home"
                            }
                        ],
                        "relationship": [
                            {
                                "coding": [
                                    {
                                        "code": "Y",
                                        "display": "Y"
                                    }
                                ]
                            }
                        ]
                    }
                ]
            },
            "request": {
                "method": "PUT",
                "url": "Patient/bab5ca58-f272-4c06-4b3f-f9661e45a22b"
            }
        },
        {
            "fullUrl": "urn:uuid:58bd65b3-7fe0-55cf-19e9-b3cfbc026fbf",
            "resource": {
                "resourceType": "Account",
                "id": "58bd65b3-7fe0-55cf-19e9-b3cfbc026fbf",
                "identifier": [
                    {
                        "value": "40007716",
                        "type": {
                            "coding": [
                                {
                                    "code": "VN",
                                    "system": "http://terminology.hl7.org/CodeSystem/v2-0203",
                                    "display": "Visit number"
                                }
                            ]
                        },
                        "system": "http://example.com/v2-to-fhir-converter/Identifier/AccMgr"
                    }
                ],
                "status": "active",
                "subject": [
                    {
                        "reference": "Patient/bab5ca58-f272-4c06-4b3f-f9661e45a22b"
                    }
                ],
                "guarantor": [
                    {
                        "party": {
                            "reference": "Organization/"
                        }
                    }
                ]
            },
            "request": {
                "method": "PUT",
                "url": "Account/58bd65b3-7fe0-55cf-19e9-b3cfbc026fbf"
            }
        },
        {
            "fullUrl": "urn:uuid:",
            "resource": {
                "resourceType": "Organization",
                "name": " "
            },
            "request": {
                "method": "PUT",
                "url": "Organization/"
            }
        },
        {
            "fullUrl": "urn:uuid:b065b233-8738-f1ec-1314-d61e4aac2c9e",
            "resource": {
                "resourceType": "Practitioner",
                "id": "b065b233-8738-f1ec-1314-d61e4aac2c9e",
                "identifier": [
                    {
                        "value": "37",
                        "system": "http://example.com/v2-to-fhir-converter/Identifier/AccMgr",
                        "type": {
                            "coding": [
                                {
                                    "code": "CI",
                                    "display": "CI"
                                }
                            ]
                        }
                    }
                ],
                "name": [
                    {
                        "family": "DISNEY",
                        "given": [
                            "WALT"
                        ]
                    }
                ]
            },
            "request": {
                "method": "PUT",
                "url": "Practitioner/b065b233-8738-f1ec-1314-d61e4aac2c9e"
            }
        },
        {
            "fullUrl": "urn:uuid:82999c53-6c4e-b898-f635-396f71cff45a",
            "resource": {
                "resourceType": "Location",
                "id": "82999c53-6c4e-b898-f635-396f71cff45a",
                "name": "PREOP",
                "mode": "instance",
                "description": "PREOP--101--1--1--S",
                "physicalType": {
                    "coding": [
                        {
                            "system": "http://terminology.hl7.org/CodeSystem/location-physical-type",
                            "code": "lvl"
                        }
                    ]
                }
            },
            "request": {
                "method": "PUT",
                "url": "Location/82999c53-6c4e-b898-f635-396f71cff45a"
            }
        },
        {
            "fullUrl": "urn:uuid:eaca6536-e475-37f0-8260-87ec6ce86e42",
            "resource": {
                "resourceType": "Location",
                "id": "eaca6536-e475-37f0-8260-87ec6ce86e42",
                "partOf": {
                    "reference": "Location/82999c53-6c4e-b898-f635-396f71cff45a"
                },
                "name": "101",
                "mode": "instance",
                "description": "PREOP--101--1--1--S",
                "physicalType": {
                    "coding": [
                        {
                            "system": "http://terminology.hl7.org/CodeSystem/location-physical-type",
                            "code": "ro"
                        }
                    ]
                }
            },
            "request": {
                "method": "PUT",
                "url": "Location/eaca6536-e475-37f0-8260-87ec6ce86e42"
            }
        },
        {
            "fullUrl": "urn:uuid:833f65ab-7693-c763-dfdd-a9b7aaf6175b",
            "resource": {
                "resourceType": "Location",
                "id": "833f65ab-7693-c763-dfdd-a9b7aaf6175b",
                "partOf": {
                    "reference": "Location/eaca6536-e475-37f0-8260-87ec6ce86e42"
                },
                "name": "1",
                "mode": "instance",
                "description": "PREOP--101--1--1--S",
                "physicalType": {
                    "coding": [
                        {
                            "system": "http://terminology.hl7.org/CodeSystem/location-physical-type",
                            "code": "bd"
                        },
                        {
                            "system": "http://terminology.hl7.org/CodeSystem/location-physical-type",
                            "code": "si"
                        }
                    ]
                }
            },
            "request": {
                "method": "PUT",
                "url": "Location/833f65ab-7693-c763-dfdd-a9b7aaf6175b"
            }
        },
        {
            "fullUrl": "urn:uuid:5ee734a2-c7fe-034d-60f4-57c2827bf1ca",
            "resource": {
                "resourceType": "Location",
                "id": "5ee734a2-c7fe-034d-60f4-57c2827bf1ca",
                "partOf": {
                    "reference": "Location/833f65ab-7693-c763-dfdd-a9b7aaf6175b"
                },
                "name": "S",
                "mode": "instance",
                "description": "PREOP--101--1--1--S",
                "physicalType": {
                    "coding": [
                        {
                            "system": "http://terminology.hl7.org/CodeSystem/location-physical-type",
                            "code": "bu"
                        }
                    ]
                }
            },
            "request": {
                "method": "PUT",
                "url": "Location/5ee734a2-c7fe-034d-60f4-57c2827bf1ca"
            }
        },
        {
            "fullUrl": "urn:uuid:984ec8bc-49c4-56fe-100c-942e6c5a6e3c",
            "resource": {
                "resourceType": "Encounter",
                "id": "984ec8bc-49c4-56fe-100c-942e6c5a6e3c",
                "class": {
                    "code": "IMP",
                    "display": "inpatient encounter",
                    "system": "http://terminology.hl7.org/CodeSystem/v3-ActCode"
                },
                "status": "in-progress",
                "location": [
                    {
                        "status": "active",
                        "location": {
                            "reference": "Location/82999c53-6c4e-b898-f635-396f71cff45a"
                        }
                    }
                ],
                "type": [
                    {
                        "coding": [
                            {
                                "code": "3",
                                "display": "3"
                            }
                        ]
                    }
                ],
                "hospitalization": {
                    "admitSource": {
                        "coding": [
                            {
                                "code": "1"
                            }
                        ]
                    }
                },
                "participant": [
                    {
                        "type": [
                            {
                                "coding": [
                                    {
                                        "code": "ATND",
                                        "system": "http://terminology.hl7.org/CodeSystem/v3-ParticipationType",
                                        "display": "attender"
                                    }
                                ]
                            }
                        ],
                        "individual": {
                            "reference": "Practitioner/b065b233-8738-f1ec-1314-d61e4aac2c9e"
                        }
                    },
                    {
                        "type": [
                            {
                                "coding": [
                                    {
                                        "code": "ADM",
                                        "system": "http://terminology.hl7.org/CodeSystem/v3-ParticipationType"
                                    }
                                ],
                                "text": "admitter"
                            }
                        ],
                        "individual": {
                            "reference": "Practitioner/b065b233-8738-f1ec-1314-d61e4aac2c9e"
                        }
                    }
                ],
                "serviceType": {
                    "coding": [
                        {
                            "code": "01"
                        }
                    ]
                },
                "identifier": [
                    {
                        "value": "40007716",
                        "system": "http://example.com/v2-to-fhir-converter/Identifier/AccMgr",
                        "type": {
                            "coding": [
                                {
                                    "code": "VN",
                                    "system": "http://terminology.hl7.org/CodeSystem/v2-0203"
                                }
                            ],
                            "text": "visit number"
                        }
                    },
                    {
                        "value": " "
                    }
                ],
                "period": {
                    "start": "2005-01-10T04:55:02+07:00"
                },
                "text": {
                    "status": "generated",
                    "div": "<div xmlns=\"http://www.w3.org/1999/xhtml\"><p><span>Visit Description: </span></p></div>"
                },
                "account": [
                    {
                        "reference": "Account/58bd65b3-7fe0-55cf-19e9-b3cfbc026fbf"
                    }
                ],
                "subject": {
                    "reference": "Patient/bab5ca58-f272-4c06-4b3f-f9661e45a22b"
                },
                "diagnosis": [
                    {
                        "condition": {
                            "reference": "Condition/fd373c0d-5aa8-e1f7-177c-77127280b897"
                        },
                        "use": {
                            "coding": [
                                {
                                    "code": "AD",
                                    "display": "Admission Diagnosis",
                                    "system": "http://terminology.hl7.org/CodeSystem/diagnosis-role"
                                }
                            ]
                        }
                    }
                ]
            },
            "request": {
                "method": "PUT",
                "url": "Encounter/984ec8bc-49c4-56fe-100c-942e6c5a6e3c"
            }
        },
        {
            "fullUrl": "urn:uuid:a7dcdb0c-2be6-8729-ddc6-79a8fdb62bc7",
            "resource": {
                "resourceType": "Provenance",
                "id": "a7dcdb0c-2be6-8729-ddc6-79a8fdb62bc7",
                "recorded": "2005-01-10T04:55:02+07:00",
                "activity": {
                    "text": "ADT^A01"
                },
                "target": [
                    {
                        "reference": "Bundle/e03ac438-666e-8052-70a3-e61b15358b4b"
                    }
                ]
            },
            "request": {
                "method": "PUT",
                "url": "Provenance/a7dcdb0c-2be6-8729-ddc6-79a8fdb62bc7"
            }
        },
        {
            "fullUrl": "urn:uuid:b8e7e176-84c6-7e2d-d422-a69df56229d8",
            "resource": {
                "resourceType": "RelatedPerson",
                "id": "b8e7e176-84c6-7e2d-d422-a69df56229d8",
                "relationship": [
                    {
                        "coding": [
                            {
                                "code": "SO",
                                "display": "SO"
                            }
                        ]
                    },
                    {
                        "coding": [
                            {
                                "code": "Y",
                                "display": "Y"
                            }
                        ]
                    }
                ],
                "address": [
                    {
                        "line": [
                            "3583 DUCK RD"
                        ],
                        "city": "FOWL",
                        "state": "CA",
                        "postalCode": "999990000"
                    }
                ],
                "telecom": [
                    {
                        "value": "8885552222"
                    }
                ],
                "name": [
                    {
                        "family": "DUCK",
                        "given": [
                            "HUEY"
                        ]
                    }
                ],
                "patient": {
                    "reference": "Patient/bab5ca58-f272-4c06-4b3f-f9661e45a22b"
                }
            },
            "request": {
                "method": "PUT",
                "url": "RelatedPerson/b8e7e176-84c6-7e2d-d422-a69df56229d8"
            }
        },
        {
            "fullUrl": "urn:uuid:fd373c0d-5aa8-e1f7-177c-77127280b897",
            "resource": {
                "resourceType": "Condition",
                "id": "fd373c0d-5aa8-e1f7-177c-77127280b897",
                "code": {
                    "coding": [
                        {
                            "code": "71596",
                            "display": "OSTEOARTHROS NOS-L/LEG ",
                            "system": "http://hl7.org/fhir/sid/icd-9"
                        }
                    ],
                    "text": "OSTEOARTHROS NOS-L/LEG "
                },
                "subject": {
                    "reference": "Patient/bab5ca58-f272-4c06-4b3f-f9661e45a22b"
                }
            },
            "request": {
                "method": "PUT",
                "url": "Condition/fd373c0d-5aa8-e1f7-177c-77127280b897"
            }
        },
        {
            "fullUrl": "urn:uuid:7b35da63-ce1c-52f4-960b-ae08c5a3410d",
            "resource": {
                "resourceType": "Coverage",
                "id": "7b35da63-ce1c-52f4-960b-ae08c5a3410d",
                "class": [
                    {
                        "value": "MEDICARE",
                        "type": {
                            "coding": [
                                {
                                    "system": "http://terminology.hl7.org/CodeSystem/coverage-class",
                                    "code": "plan",
                                    "display": "Plan"
                                }
                            ]
                        }
                    }
                ],
                "period": {
                    "start": "1989-10-01"
                },
                "type": {
                    "coding": [
                        {
                            "code": "4",
                            "display": "4"
                        }
                    ]
                },
                "identifier": [
                    {
                        "value": "123121234A",
                        "type": {
                            "coding": [
                                {
                                    "code": "PLN",
                                    "display": "Policy Number",
                                    "system": "http://example.com/CodeSystem/additional-identifier"
                                }
                            ]
                        },
                        "system": "http://example.com/v2-to-fhir-converter/Identifier/policy-id"
                    }
                ],
                "subscriberId": "8291 ",
                "status": "active",
                "beneficiary": {
                    "reference": "Patient/bab5ca58-f272-4c06-4b3f-f9661e45a22b"
                },
                "payor": [
                    {
                        "reference": "Organization/d5d6f8c9-6369-c812-5d52-5945e088bba6"
                    }
                ],
                "policyHolder": {
                    "reference": "RelatedPerson/24bec897-ef02-acae-94f7-f60b3ea3ce64"
                },
                "subscriber": {
                    "reference": "RelatedPerson/94a4c036-1d19-4b6e-b86c-648b14984a25"
                }
            },
            "request": {
                "method": "PUT",
                "url": "Coverage/7b35da63-ce1c-52f4-960b-ae08c5a3410d"
            }
        },
        {
            "fullUrl": "urn:uuid:d5d6f8c9-6369-c812-5d52-5945e088bba6",
            "resource": {
                "resourceType": "Organization",
                "id": "d5d6f8c9-6369-c812-5d52-5945e088bba6",
                "identifier": [
                    {
                        "value": "3"
                    }
                ],
                "name": "MEDICARE"
            },
            "request": {
                "method": "PUT",
                "url": "Organization/d5d6f8c9-6369-c812-5d52-5945e088bba6"
            }
        },
        {
            "fullUrl": "urn:uuid:a893c6bc-d94a-a53e-d272-638fc5b75e83",
            "resource": {
                "resourceType": "Organization",
                "id": "a893c6bc-d94a-a53e-d272-638fc5b75e83",
                "address": [
                    {
                        "line": [
                            "111 DUCK ST"
                        ],
                        "city": "FOWL",
                        "state": "CA",
                        "postalCode": "999990000"
                    },
                    {
                        "line": [
                            "111",
                            "DUCK ST"
                        ],
                        "state": "FOWL",
                        "postalCode": "CA",
                        "country": "999990000"
                    }
                ],
                "name": "Cartoon Ducks Inc",
                "telecom": [
                    {
                        "value": "8885551212 "
                    }
                ]
            },
            "request": {
                "method": "PUT",
                "url": "Organization/a893c6bc-d94a-a53e-d272-638fc5b75e83"
            }
        },
        {
            "fullUrl": "urn:uuid:94a4c036-1d19-4b6e-b86c-648b14984a25",
            "resource": {
                "resourceType": "RelatedPerson",
                "id": "94a4c036-1d19-4b6e-b86c-648b14984a25",
                "identifier": [
                    {
                        "value": "8291 "
                    },
                    {
                        "value": "1"
                    },
                    {
                        "value": "2"
                    }
                ],
                "relationship": [
                    {
                        "coding": [
                            {
                                "code": "1",
                                "display": "1"
                            }
                        ]
                    }
                ],
                "address": [
                    {
                        "line": [
                            "111",
                            "DUCK ST"
                        ],
                        "state": "FOWL",
                        "postalCode": "CA",
                        "country": "999990000"
                    },
                    {
                        "line": [
                            "111 DUCK ST"
                        ],
                        "city": "FOWL",
                        "state": "CA",
                        "postalCode": "999990000"
                    }
                ],
                "name": [
                    {
                        "family": "DUCK",
                        "given": [
                            "DONALD",
                            "D"
                        ]
                    }
                ],
                "gender": "male",
                "birthDate": "1924-10-10",
                "patient": {
                    "reference": "Patient/bab5ca58-f272-4c06-4b3f-f9661e45a22b"
                }
            },
            "request": {
                "method": "PUT",
                "url": "RelatedPerson/94a4c036-1d19-4b6e-b86c-648b14984a25"
            }
        },
        {
            "fullUrl": "urn:uuid:24bec897-ef02-acae-94f7-f60b3ea3ce64",
            "resource": {
                "resourceType": "RelatedPerson",
                "id": "24bec897-ef02-acae-94f7-f60b3ea3ce64",
                "relationship": [
                    {
                        "coding": [
                            {
                                "code": "E",
                                "display": "Employer",
                                "system": "http://terminology.hl7.org/CodeSystem/v2-0131"
                            }
                        ]
                    }
                ],
                "telecom": [
                    {
                        "value": "8885551212 "
                    }
                ],
                "patient": {
                    "reference": "Patient/bab5ca58-f272-4c06-4b3f-f9661e45a22b"
                },
                "identifier": [
                    {
                        "value": "123121234"
                    }
                ]
            },
            "request": {
                "method": "PUT",
                "url": "RelatedPerson/24bec897-ef02-acae-94f7-f60b3ea3ce64"
            }
        },
        {
            "fullUrl": "urn:uuid:832bb930-49c3-4505-d1ce-bcade656dba5",
            "resource": {
                "resourceType": "Coverage",
                "id": "832bb930-49c3-4505-d1ce-bcade656dba5",
                "class": [
                    {
                        "value": "NON-PRIMARY",
                        "type": {
                            "coding": [
                                {
                                    "system": "http://terminology.hl7.org/CodeSystem/coverage-class",
                                    "code": "plan",
                                    "display": "Plan"
                                }
                            ]
                        }
                    },
                    {
                        "value": "PUBSUMB",
                        "type": {
                            "coding": [
                                {
                                    "system": "http://terminology.hl7.org/CodeSystem/coverage-class",
                                    "code": "group",
                                    "display": "Group"
                                }
                            ]
                        }
                    }
                ],
                "type": {
                    "coding": [
                        {
                            "code": "7",
                            "display": "7"
                        }
                    ]
                },
                "identifier": [
                    {
                        "value": "056269770",
                        "type": {
                            "coding": [
                                {
                                    "code": "PLN",
                                    "display": "Policy Number",
                                    "system": "http://example.com/CodeSystem/additional-identifier"
                                }
                            ]
                        },
                        "system": "http://example.com/v2-to-fhir-converter/Identifier/policy-id"
                    }
                ],
                "subscriberId": "8291 ",
                "status": "active",
                "beneficiary": {
                    "reference": "Patient/bab5ca58-f272-4c06-4b3f-f9661e45a22b"
                },
                "payor": [
                    {
                        "reference": "Organization/86a9a2de-3550-dc90-3bca-b3d704a59783"
                    }
                ],
                "policyHolder": {
                    "reference": "RelatedPerson/24bec897-ef02-acae-94f7-f60b3ea3ce64"
                },
                "subscriber": {
                    "reference": "RelatedPerson/94a4c036-1d19-4b6e-b86c-648b14984a25"
                }
            },
            "request": {
                "method": "PUT",
                "url": "Coverage/832bb930-49c3-4505-d1ce-bcade656dba5"
            }
        },
        {
            "fullUrl": "urn:uuid:86a9a2de-3550-dc90-3bca-b3d704a59783",
            "resource": {
                "resourceType": "Organization",
                "id": "86a9a2de-3550-dc90-3bca-b3d704a59783",
                "address": [
                    {
                        "line": [
                            "PO BOX 94776"
                        ],
                        "city": "HOLLYWOOD",
                        "state": "CA",
                        "postalCode": "441414776"
                    }
                ],
                "telecom": [
                    {
                        "value": "8003621279"
                    }
                ],
                "identifier": [
                    {
                        "value": "9"
                    }
                ],
                "name": "MEDICAL MUTUAL CALIF."
            },
            "request": {
                "method": "PUT",
                "url": "Organization/86a9a2de-3550-dc90-3bca-b3d704a59783"
            }
        },
        {
            "fullUrl": "urn:uuid:513f3296-d7f1-67cf-3804-626f676bdfe6",
            "resource": {
                "resourceType": "Coverage",
                "id": "513f3296-d7f1-67cf-3804-626f676bdfe6",
                "class": [
                    {
                        "value": "SELF PAY",
                        "type": {
                            "coding": [
                                {
                                    "system": "http://terminology.hl7.org/CodeSystem/coverage-class",
                                    "code": "plan",
                                    "display": "Plan"
                                }
                            ]
                        }
                    }
                ],
                "type": {
                    "coding": [
                        {
                            "code": "5",
                            "display": "5"
                        }
                    ]
                },
                "status": "active",
                "beneficiary": {
                    "reference": "Patient/bab5ca58-f272-4c06-4b3f-f9661e45a22b"
                },
                "payor": [
                    {
                        "reference": "Organization/8ac53b31-2bcc-9125-2dd7-15711c804a45"
                    }
                ],
                "subscriber": {
                    "reference": "RelatedPerson/f297484c-5f2a-4493-2d74-d7bcecdf5017"
                },
                "policyHolder": {
                    "reference": "RelatedPerson/24bec897-ef02-acae-94f7-f60b3ea3ce64"
                }
            },
            "request": {
                "method": "PUT",
                "url": "Coverage/513f3296-d7f1-67cf-3804-626f676bdfe6"
            }
        },
        {
            "fullUrl": "urn:uuid:8ac53b31-2bcc-9125-2dd7-15711c804a45",
            "resource": {
                "resourceType": "Organization",
                "id": "8ac53b31-2bcc-9125-2dd7-15711c804a45",
                "identifier": [
                    {
                        "value": "1"
                    }
                ],
                "name": "SELF PAY"
            },
            "request": {
                "method": "PUT",
                "url": "Organization/8ac53b31-2bcc-9125-2dd7-15711c804a45"
            }
        },
        {
            "fullUrl": "urn:uuid:f297484c-5f2a-4493-2d74-d7bcecdf5017",
            "resource": {
                "resourceType": "RelatedPerson",
                "id": "f297484c-5f2a-4493-2d74-d7bcecdf5017",
                "relationship": [
                    {
                        "coding": [
                            {
                                "code": "1",
                                "display": "1"
                            }
                        ]
                    }
                ],
                "patient": {
                    "reference": "Patient/bab5ca58-f272-4c06-4b3f-f9661e45a22b"
                },
                "identifier": [
                    {
                        "value": "1"
                    },
                    {
                        "value": "2"
                    }
                ]
            },
            "request": {
                "method": "PUT",
                "url": "RelatedPerson/f297484c-5f2a-4493-2d74-d7bcecdf5017"
            }
        }
    ]
}