{
  "resourceType": "Bundle",
  "type": "batch",
  "entry": [
    {
      "fullUrl": "urn:uuid:55e2d2b6-8c08-6f34-9f2c-ccf2ba785dba",
      "resource": {
        "resourceType": "MessageHeader",
        "id": "55e2d2b6-8c08-6f34-9f2c-ccf2ba785dba",
        "meta": {
          "tag": [
            {
              "meta": {
                "tag": [
                  {
                    "code": "T",
                    "system": "http://terminology.hl7.org/CodeSystem/v2-0103"
                  }
                ]
              }
            }
          ]
        }
      },
      "request": {
        "method": "PUT",
        "url": "MessageHeader/55e2d2b6-8c08-6f34-9f2c-ccf2ba785dba"
      }
    },
    {
      "fullUrl": "urn:uuid:106decd4-a7b0-34eb-afe9-94e54bdff26f",
      "resource": {
        "resourceType": "Patient",
        "id": "106decd4-a7b0-34eb-afe9-94e54bdff26f",
        "identifier": [
          {
            "value": "MRN12345",
            "type": {
              "coding": [
                {
                  "code": "MR",
                  "system": "http://terminology.hl7.org/CodeSystem/v2-0203"
                }
              ]
            }
          }
        ],
        "name": [
          {
            "family": "Doe",
            "given": [
              "Jane"
            ]
          }
        ],
        "birthDate": "1978-01-01",
        "gender": "female",
        "contact": [
          {
            "name": {
              "family": "JOHNSON",
              "given": [
                "CONWAY"
              ],
              "use": "official"
            },
            "telecom": [
              {
                "value": "(130) 724-0433",
                "use": "home"
              },
              {
                "value": "(330) 274-8214"
              }
            ],
            "relationship": [
              {
                "coding": [
                  {
                    "code": "EMERGENCY",
                    "display": "EMERGENCY",
                    "system": "EMERGENCY",
                    "version": "EMERGENCY"
                  }
                ]
              }
            ]
          }
        ]
      },
      "request": {
        "method": "PUT",
        "url": "Patient/106decd4-a7b0-34eb-afe9-94e54bdff26f"
      }
    },
    {
      "fullUrl": "urn:uuid:269e4fbc-35ab-2c46-9c28-f4ab11c3b1f3",
      "resource": {
        "resourceType": "Provenance",
        "id": "269e4fbc-35ab-2c46-9c28-f4ab11c3b1f3",
        "agent": [
          {
            "type": {
              "coding": [
                {
                  "code": "author",
                  "system": "http://terminology.hl7.org/CodeSystem/provenance-participant-type"
                }
              ]
            }
          }
        ],
        "recorded": "2019-05-03T03:16:59.069+08:00"
      },
      "request": {
        "method": "PUT",
        "url": "Provenance/269e4fbc-35ab-2c46-9c28-f4ab11c3b1f3"
      }
    },
    {
      "fullUrl": "urn:uuid:1791139d-4b3d-30a1-a790-ecff6e63a1fd",
      "resource": {
        "resourceType": "Account",
        "id": "1791139d-4b3d-30a1-a790-ecff6e63a1fd",
        "identifier": [
          {
            "value": "123456789"
          }
        ]
      },
      "request": {
        "method": "PUT",
        "url": "Account/1791139d-4b3d-30a1-a790-ecff6e63a1fd"
      }
    },
    {
      "fullUrl": "urn:uuid:bd2f287c-f7df-4b1b-7fbf-987cdf51ee4e",
      "resource": {
        "resourceType": "Encounter",
        "id": "bd2f287c-f7df-4b1b-7fbf-987cdf51ee4e",
        "class": {
          "code": "EMER",
          "display": "emergency",
          "system": "http://terminology.hl7.org/CodeSystem/v3-ActCode",
          "version": "E"
        },
        "status": "unknown",
        "participant": [
          {
            "type": [
              {
                "coding": [
                  {
                    "code": "ATND",
                    "system": "http://terminology.hl7.org/CodeSystem/v3-ParticipationType",
                    "display": "attender"
                  }
                ]
              }
            ]
          },
          {
            "type": [
              {
                "coding": [
                  {
                    "code": "ATND",
                    "system": "http://terminology.hl7.org/CodeSystem/v3-ParticipationType",
                    "display": "attender"
                  }
                ]
              }
            ],
            "individual": {
              "reference": "Practitioner/10ffd4e9-25bf-8239-3d9b-64bef81e192a"
            }
          }
        ],
        "period": {
          "start": "2019-05-02T07:00:00Z"
        },
        "subject": {
          "reference": "Patient/106decd4-a7b0-34eb-afe9-94e54bdff26f"
        }
      },
      "request": {
        "method": "PUT",
        "url": "Encounter/bd2f287c-f7df-4b1b-7fbf-987cdf51ee4e"
      }
    },
    {
      "fullUrl": "urn:uuid:10ffd4e9-25bf-8239-3d9b-64bef81e192a",
      "resource": {
        "resourceType": "Practitioner",
        "id": "10ffd4e9-25bf-8239-3d9b-64bef81e192a"
      },
      "request": {
        "method": "PUT",
        "url": "Practitioner/10ffd4e9-25bf-8239-3d9b-64bef81e192a"
      }
    },
    {
      "fullUrl": "urn:uuid:4e852062-3313-586b-4979-1f4c539eb4d5",
      "resource": {
        "resourceType": "RelatedPerson",
        "id": "4e852062-3313-586b-4979-1f4c539eb4d5",
        "relationship": [
          {
            "coding": [
              {
                "code": "SPOUS",
                "display": "SPOUS",
                "system": "SPOUS",
                "version": "SPOUS"
              }
            ]
          },
          {
            "coding": [
              {
                "code": "EMERGENCY",
                "display": "EMERGENCY",
                "system": "EMERGENCY",
                "version": "EMERGENCY"
              }
            ]
          }
        ],
        "telecom": [
          {
            "value": "(130) 724-0433",
            "use": "home"
          },
          {
            "value": "(330) 274-8214"
          }
        ],
        "name": [
          {
            "family": "JOHNSON",
            "given": [
              "CONWAY"
            ],
            "use": "official"
          }
        ],
        "patient": {
          "reference": "Patient/106decd4-a7b0-34eb-afe9-94e54bdff26f"
        }
      },
      "request": {
        "method": "PUT",
        "url": "RelatedPerson/4e852062-3313-586b-4979-1f4c539eb4d5"
      }
    }
  ]
}