{
  "resourceType": "Bundle",
  "type": "batch",
  "entry": [
    {
      "fullUrl": "urn:uuid:18548d54-14a8-815a-c1bb-396f35b37164",
      "resource": {
        "resourceType": "MessageHeader",
        "id": "18548d54-14a8-815a-c1bb-396f35b37164",
        "source": {
          "name": "NES"
        },
        "destination": [
          {
            "name": "TESTSYSTEM"
          }
        ],
        "meta": {
          "tag": [
            {
              "code": "P",
              "system": "http://terminology.hl7.org/CodeSystem/v2-0103"
            }
          ]
        }
      },
      "request": {
        "method": "PUT",
        "url": "MessageHeader/18548d54-14a8-815a-c1bb-396f35b37164"
      }
    },
    {
      "fullUrl": "urn:uuid:5002eb07-c460-7112-6574-50303ae3b4a6",
      "resource": {
        "resourceType": "Patient",
        "id": "5002eb07-c460-7112-6574-50303ae3b4a6",
        "identifier": [
          {
            "value": "123456789",
            "type": {
              "coding": [
                {
                  "code": "MR",
                  "system": "http://terminology.hl7.org/CodeSystem/v2-0203"
                }
              ]
            }
          }
        ],
        "name": [
          {
            "family": "BROS",
            "given": [
              "MARIO"
            ]
          }
        ],
        "birthDate": "1985-01-01",
        "gender": "male",
        "address": [
          {
            "line": [
              "123 FAKE STREET",
              "MARIO LUIGI BROS PLACE"
            ],
            "city": "TOADSTOOL KINGDOM",
            "state": "NES",
            "postalCode": "A1B2C3",
            "country": "JP"
          },
          {
            "district": "1234"
          }
        ],
        "telecom": [
          {
            "value": "(555)555-0123",
            "use": "home"
          },
          {
            "value": "(555)555-0124",
            "use": "home"
          }
        ],
        "maritalStatus": {
          "coding": [
            {
              "code": "S",
              "display": "Never Married",
              "system": "http://terminology.hl7.org/CodeSystem/v3-MaritalStatus"
            }
          ]
        },
        "multipleBirthInteger": "0",
        "deceasedBoolean": "false",
        "contact": [
          {
            "name": {
              "family": "PEACH",
              "given": [
                "PRINCESS"
              ]
            },
            "address": {
              "line": [
                "ANOTHER CASTLE"
              ],
              "city": "TOADSTOOL KINGDOM",
              "state": "NES",
              "country": "JP"
            },
            "telecom": [
              {
                "value": "(123)555-1234"
              },
              {
                "value": "(123)555-2345"
              }
            ]
          },
          {
            "name": {
              "family": "TOADSTOOL",
              "given": [
                "PRINCESS"
              ]
            },
            "address": {
              "line": [
                "YET ANOTHER CASTLE"
              ],
              "city": "TOADSTOOL KINGDOM",
              "state": "NES",
              "country": "JP"
            },
            "telecom": [
              {
                "value": "(123)555-3456"
              },
              {
                "value": "(123)555-4567"
              }
            ]
          }
        ]
      },
      "request": {
        "method": "PUT",
        "url": "Patient/5002eb07-c460-7112-6574-50303ae3b4a6"
      }
    },
    {
      "fullUrl": "urn:uuid:ab3d28cb-c909-4ba2-b02e-0a868895ef0b",
      "resource": {
        "resourceType": "Provenance",
        "id": "ab3d28cb-c909-4ba2-b02e-0a868895ef0b",
        "agent": [
          {
            "type": {
              "coding": [
                {
                  "code": "author",
                  "system": "http://terminology.hl7.org/CodeSystem/provenance-participant-type"
                }
              ]
            }
          }
        ],
        "recorded": "2001-01-01T00:00:00Z"
      },
      "request": {
        "method": "PUT",
        "url": "Provenance/ab3d28cb-c909-4ba2-b02e-0a868895ef0b"
      }
    },
    {
      "fullUrl": "urn:uuid:0b931b2e-4814-b7ed-7159-4cf2805ef38f",
      "resource": {
        "resourceType": "Account",
        "id": "0b931b2e-4814-b7ed-7159-4cf2805ef38f",
        "identifier": [
          {
            "value": "12345678"
          }
        ]
      },
      "request": {
        "method": "PUT",
        "url": "Account/0b931b2e-4814-b7ed-7159-4cf2805ef38f"
      }
    },
    {
      "fullUrl": "urn:uuid:1ffe7bbb-44ca-d195-1456-40d94950090b",
      "resource": {
        "resourceType": "Encounter",
        "id": "1ffe7bbb-44ca-d195-1456-40d94950090b",
        "class": {
          "code": "AMB",
          "display": "ambulatory",
          "system": "http://terminology.hl7.org/CodeSystem/v3-ActCode"
        },
        "status": "unknown",
        "participant": [
          {
            "type": [
              {
                "coding": [
                  {
                    "code": "ATND",
                    "system": "http://terminology.hl7.org/CodeSystem/v3-ParticipationType",
                    "display": "attender"
                  }
                ]
              }
            ]
          },
          {
            "type": [
              {
                "coding": [
                  {
                    "code": "REF",
                    "system": "http://terminology.hl7.org/CodeSystem/v3-ParticipationType"
                  }
                ],
                "text": "referrer"
              }
            ]
          },
          {
            "type": [
              {
                "coding": [
                  {
                    "code": "ADM",
                    "system": "http://terminology.hl7.org/CodeSystem/v3-ParticipationType"
                  }
                ],
                "text": "admitter"
              }
            ]
          }
        ],
        "serviceType": {
          "coding": [
            {
              "code": "CRD"
            }
          ]
        },
        "identifier": [
          {
            "value": "0123456789",
            "type": {
              "coding": [
                {
                  "system": "http://terminology.hl7.org/CodeSystem/v2-0203"
                }
              ],
              "text": "visit number"
            }
          }
        ],
        "period": {
          "start": "2001-01-01T00:00:00Z"
        },
        "location": [
          {
            "location": {
              "reference": "Location/1061dd71-d0a8-e8d0-7468-5be2eb4db1f8"
            },
            "status": "active"
          },
          {
            "location": {
              "reference": "Location/affd96b8-87bc-956b-0215-7db7a8c6a9b3"
            },
            "status": "completed"
          }
        ],
        "subject": {
          "reference": "Patient/5002eb07-c460-7112-6574-50303ae3b4a6"
        }
      },
      "request": {
        "method": "PUT",
        "url": "Encounter/1ffe7bbb-44ca-d195-1456-40d94950090b"
      }
    },
    {
      "fullUrl": "urn:uuid:1061dd71-d0a8-e8d0-7468-5be2eb4db1f8",
      "resource": {
        "resourceType": "Location",
        "id": "1061dd71-d0a8-e8d0-7468-5be2eb4db1f8",
        "mode": "instance",
        "physicalType": {
          "coding": [
            {
              "system": "http://terminology.hl7.org/CodeSystem/location-physical-type"
            }
          ]
        }
      },
      "request": {
        "method": "PUT",
        "url": "Location/1061dd71-d0a8-e8d0-7468-5be2eb4db1f8"
      }
    },
    {
      "fullUrl": "urn:uuid:affd96b8-87bc-956b-0215-7db7a8c6a9b3",
      "resource": {
        "resourceType": "Location",
        "id": "affd96b8-87bc-956b-0215-7db7a8c6a9b3"
      },
      "request": {
        "method": "PUT",
        "url": "Location/affd96b8-87bc-956b-0215-7db7a8c6a9b3"
      }
    },
    {
      "fullUrl": "urn:uuid:4e083e5f-53b4-194d-b6bd-6d51b5dab850",
      "resource": {
        "resourceType": "RelatedPerson",
        "id": "4e083e5f-53b4-194d-b6bd-6d51b5dab850",
        "address": [
          {
            "line": [
              "ANOTHER CASTLE"
            ],
            "city": "TOADSTOOL KINGDOM",
            "state": "NES",
            "country": "JP"
          }
        ],
        "telecom": [
          {
            "value": "(123)555-1234"
          },
          {
            "value": "(123)555-2345",
            "use": "work"
          }
        ],
        "name": [
          {
            "family": "PEACH",
            "given": [
              "PRINCESS"
            ]
          }
        ],
        "patient": {
          "reference": "Patient/5002eb07-c460-7112-6574-50303ae3b4a6"
        }
      },
      "request": {
        "method": "PUT",
        "url": "RelatedPerson/4e083e5f-53b4-194d-b6bd-6d51b5dab850"
      }
    },
    {
      "fullUrl": "urn:uuid:a7a01053-59be-eb80-1f54-591a69d5bc8e",
      "resource": {
        "resourceType": "RelatedPerson",
        "id": "a7a01053-59be-eb80-1f54-591a69d5bc8e",
        "relationship": [
          {
            "coding": [
              {
                "code": "C",
                "display": "Emergency Contact",
                "system": "http://terminology.hl7.org/CodeSystem/v2-0131"
              }
            ]
          }
        ],
        "address": [
          {
            "line": [
              "YET ANOTHER CASTLE"
            ],
            "city": "TOADSTOOL KINGDOM",
            "state": "NES",
            "country": "JP"
          }
        ],
        "telecom": [
          {
            "value": "(123)555-3456"
          },
          {
            "value": "(123)555-4567",
            "use": "work"
          }
        ],
        "name": [
          {
            "family": "TOADSTOOL",
            "given": [
              "PRINCESS"
            ]
          }
        ],
        "patient": {
          "reference": "Patient/5002eb07-c460-7112-6574-50303ae3b4a6"
        }
      },
      "request": {
        "method": "PUT",
        "url": "RelatedPerson/a7a01053-59be-eb80-1f54-591a69d5bc8e"
      }
    }
  ]
}