{
  "resourceType": "Bundle",
  "type": "batch",
  "timestamp": "1988-08-18T11:26:00",
  "identifier": {
    "value": "MSG00001"
  },
  "entry": [
    {
      "fullUrl": "urn:uuid:64c2d51b-34a4-e841-fb1c-03f1f7762d1a",
      "resource": {
        "resourceType": "MessageHeader",
        "id": "64c2d51b-34a4-e841-fb1c-03f1f7762d1a",
        "source": {
          "name": "ADT1"
        },
        "destination": [
          {
            "name": "GHH LAB, INC."
          }
        ],
        "meta": {
          "tag": [
            {
              "code": "P",
              "system": "http://terminology.hl7.org/CodeSystem/v2-0103"
            }
          ]
        },
        "eventCoding": {
          "code": "A01",
          "system": "http://terminology.hl7.org/CodeSystem/v2-0003"
        }
      },
      "request": {
        "method": "PUT",
        "url": "MessageHeader/64c2d51b-34a4-e841-fb1c-03f1f7762d1a"
      }
    },
    {
      "fullUrl": "urn:uuid:d5fe6802-a680-e762-8f43-9659340b00ac",
      "resource": {
        "resourceType": "Patient",
        "id": "d5fe6802-a680-e762-8f43-9659340b00ac",
        "identifier": [
          {
            "value": "PATID1234",
            "type": {
              "coding": [
                {
                  "code": "MR",
                  "system": "http://terminology.hl7.org/CodeSystem/v2-0203"
                }
              ]
            }
          },
          {
            "value": "123456789",
            "type": {
              "coding": [
                {
                  "code": "SS",
                  "system": "http://terminology.hl7.org/CodeSystem/v2-0203"
                }
              ]
            }
          },
          {
            "value": "444333333",
            "type": {
              "coding": [
                {
                  "code": "SS",
                  "system": "http://terminology.hl7.org/CodeSystem/v2-0203"
                }
              ]
            },
            "system": "http://hl7.org/fhir/sid/us-ssn"
          },
          {
            "value": "987654",
            "type": {
              "coding": [
                {
                  "code": "DL"
                }
              ]
            },
            "system": "NC"
          }
        ],
        "name": [
          {
            "family": "EVERYMAN",
            "given": [
              "ADAM",
              "A"
            ],
            "suffix": [
              "III"
            ]
          }
        ],
        "birthDate": "1961-06-15",
        "gender": "male",
        "address": [
          {
            "line": [
              "2222 HOME STREET"
            ],
            "city": "GREENSBORO",
            "state": "NC",
            "postalCode": "27401-1020"
          },
          {
            "district": "GL"
          }
        ],
        "telecom": [
          {
            "value": "(555) 555-2004",
            "use": "home"
          },
          {
            "value": "(555)555-2004",
            "use": "work"
          }
        ],
        "maritalStatus": {
          "coding": [
            {
              "code": "S",
              "display": "Never Married",
              "system": "http://terminology.hl7.org/CodeSystem/v3-MaritalStatus"
            }
          ]
        },
        "contact": [
          {
            "name": {
              "family": "NUCLEAR",
              "given": [
                "NELDA",
                "W"
              ]
            },
            "relationship": [
              {
                "coding": [
                  {
                    "code": "NK",
                    "display": "NK"
                  }
                ]
              }
            ]
          }
        ]
      },
      "request": {
        "method": "PUT",
        "url": "Patient/d5fe6802-a680-e762-8f43-9659340b00ac"
      }
    },
    {
      "fullUrl": "urn:uuid:",
      "resource": {
        "resourceType": "Practitioner"
      },
      "request": {
        "method": "PUT",
        "url": "Practitioner/"
      }
    },
    {
      "fullUrl": "urn:uuid:15d1e2fd-66ed-373c-919f-8204c9c27ec6",
      "resource": {
        "resourceType": "Practitioner",
        "id": "15d1e2fd-66ed-373c-919f-8204c9c27ec6"
      },
      "request": {
        "method": "PUT",
        "url": "Practitioner/15d1e2fd-66ed-373c-919f-8204c9c27ec6"
      }
    },
    {
      "fullUrl": "urn:uuid:3e9d1ae2-2dbe-bdd9-8da6-6a9fdfc18068",
      "resource": {
        "resourceType": "Account",
        "id": "3e9d1ae2-2dbe-bdd9-8da6-6a9fdfc18068",
        "identifier": [
          {
            "value": "PATID12345001",
            "type": {
              "coding": [
                {
                  "code": "AN",
                  "system": "http://terminology.hl7.org/CodeSystem/v2-0203"
                }
              ]
            }
          }
        ],
        "subject": [
          {
            "reference": "Patient/d5fe6802-a680-e762-8f43-9659340b00ac"
          }
        ]
      },
      "request": {
        "method": "PUT",
        "url": "Account/3e9d1ae2-2dbe-bdd9-8da6-6a9fdfc18068"
      }
    },
    {
      "fullUrl": "urn:uuid:",
      "resource": {
        "resourceType": "Location"
      },
      "request": {
        "method": "PUT",
        "url": "Location/"
      }
    },
    {
      "fullUrl": "urn:uuid:29eb5214-21d0-ed82-39f9-da4e50277c80",
      "resource": {
        "resourceType": "Location",
        "id": "29eb5214-21d0-ed82-39f9-da4e50277c80",
        "mode": "instance",
        "physicalType": {
          "coding": [
            {
              "system": "http://terminology.hl7.org/CodeSystem/location-physical-type"
            }
          ]
        }
      },
      "request": {
        "method": "PUT",
        "url": "Location/29eb5214-21d0-ed82-39f9-da4e50277c80"
      }
    },
    {
      "fullUrl": "urn:uuid:a6091df2-6411-bec2-7f42-36d851d96cbe",
      "resource": {
        "resourceType": "Provenance",
        "id": "a6091df2-6411-bec2-7f42-36d851d96cbe",
        "text": {
          "status": "generated",
          "div": "<div xmlns=\"http://www.w3.org/1999/xhtml\"><p><span>Resource bundle generated on 2021-04-09T05:48:15.565Z using Microsoft FHIR Converter.</span><span>Template Version: TEMPLATE_VERSION.</span><span>Template URL: TEMPLATE_URL.</span><span>Root template: ADT_A01.</span></p></div>"
        },
        "agent": [
          {
            "type": {
              "coding": [
                {
                  "code": "author",
                  "system": "http://terminology.hl7.org/CodeSystem/provenance-participant-type"
                }
              ]
            }
          }
        ],
        "recorded": "1988-08-18T11:26:00"
      },
      "request": {
        "method": "PUT",
        "url": "Provenance/a6091df2-6411-bec2-7f42-36d851d96cbe"
      }
    },
    {
      "fullUrl": "urn:uuid:8add615d-1d8a-1bf3-bffc-9bd789bee0a3",
      "resource": {
        "resourceType": "Encounter",
        "id": "8add615d-1d8a-1bf3-bffc-9bd789bee0a3",
        "class": {
          "code": "IMP",
          "display": "inpatient encounter",
          "system": "http://terminology.hl7.org/CodeSystem/v3-ActCode"
        },
        "status": "unknown",
        "location": [
          {
            "status": "active",
            "location": {
              "reference": "Location/29eb5214-21d0-ed82-39f9-da4e50277c80"
            }
          }
        ],
        "hospitalization": {
          "admitSource": {
            "coding": [
              {
                "code": "ADM"
              }
            ]
          }
        },
        "participant": [
          {
            "type": [
              {
                "coding": [
                  {
                    "code": "ATND",
                    "system": "http://terminology.hl7.org/CodeSystem/v3-ParticipationType",
                    "display": "attender"
                  }
                ]
              }
            ],
            "individual": {
              "reference": "Practitioner/15d1e2fd-66ed-373c-919f-8204c9c27ec6"
            }
          }
        ],
        "serviceType": {
          "coding": [
            {
              "code": "SUR"
            }
          ]
        },
        "subject": {
          "reference": "Patient/d5fe6802-a680-e762-8f43-9659340b00ac"
        }
      },
      "request": {
        "method": "PUT",
        "url": "Encounter/8add615d-1d8a-1bf3-bffc-9bd789bee0a3"
      }
    },
    {
      "fullUrl": "urn:uuid:",
      "resource": {
        "resourceType": "Organization"
      },
      "request": {
        "method": "PUT",
        "url": "Organization/"
      }
    },
    {
      "fullUrl": "urn:uuid:b3a71bad-ca58-a43e-78c3-228806a2f316",
      "resource": {
        "resourceType": "RelatedPerson",
        "id": "b3a71bad-ca58-a43e-78c3-228806a2f316",
        "relationship": [
          {
            "coding": [
              {
                "code": "SPS",
                "display": "spouse",
                "system": "http://terminology.hl7.org/CodeSystem/v3-RoleCode"
              }
            ]
          },
          {
            "coding": [
              {
                "code": "NK",
                "display": "NK"
              }
            ]
          }
        ],
        "name": [
          {
            "family": "NUCLEAR",
            "given": [
              "NELDA",
              "W"
            ]
          }
        ],
        "patient": {
          "reference": "Patient/d5fe6802-a680-e762-8f43-9659340b00ac"
        }
      },
      "request": {
        "method": "PUT",
        "url": "RelatedPerson/b3a71bad-ca58-a43e-78c3-228806a2f316"
      }
    }
  ]
}