{
  "resourceType": "Bundle",
  "type": "batch",
  "timestamp": "2021-08-01T12:21:42+05:30",
  "identifier": {
      "value": "112"
  },
  "id": "b37272c1-881a-0cf2-1120-5ab37ceaf698",
  "entry": [
      {
          "fullUrl": "urn:uuid:0bd7a2a5-cdc4-50f4-5b85-da3c58cfba27",
          "resource": {
              "resourceType": "MessageHeader",
              "id": "0bd7a2a5-cdc4-50f4-5b85-da3c58cfba27",
              "source": {
                  "name": "SIMHOSP",
                  "_endpoint": {
                      "extension": [
                          {
                              "url": "http://hl7.org/fhir/StructureDefinition/data-absent-reason",
                              "valueCode": "unknown"
                          }
                      ]
                  }
              },
              "destination": [
                  {
                      "name": "RAPP",
                      "_endpoint": {
                          "extension": [
                              {
                                  "url": "http://hl7.org/fhir/StructureDefinition/data-absent-reason",
                                  "valueCode": "unknown"
                              }
                          ]
                      },
                      "receiver": {
                          "reference": "Organization/ab0676d9-fa24-ffd3-327d-f5b4c26ae628"
                      }
                  }
              ],
              "meta": {
                  "tag": [
                      {
                          "code": "T",
                          "system": "http://terminology.hl7.org/CodeSystem/v2-0103"
                      }
                  ]
              },
              "eventCoding": {
                  "code": "T02",
                  "system": "http://terminology.hl7.org/CodeSystem/v2-0003",
                  "display": "MDM^T02^MDM_T02"
              },
              "sender": {
                  "reference": "Organization/33e23f3e-47b2-9c1b-c1f0-f964c2d28946"
              }
          },
          "request": {
              "method": "PUT",
              "url": "MessageHeader/0bd7a2a5-cdc4-50f4-5b85-da3c58cfba27"
          }
      },
      {
          "fullUrl": "urn:uuid:ff198209-2ee9-a32c-124f-d63637240f8d",
          "resource": {
              "resourceType": "Provenance",
              "id": "ff198209-2ee9-a32c-124f-d63637240f8d",
              "text": {
                  "status": "generated",
                  "div": "<div xmlns=\"http://www.w3.org/1999/xhtml\"><p><span>Resource bundle generated on 2022-03-28T08:25:17.145Z using Microsoft FHIR Converter.</span><span>Template Version: TEMPLATE_VERSION_PLACEHOLDER.</span><span>Template URL: https://github.com/microsoft/FHIR-Converter/releases/download/vTEMPLATE_VERSION_PLACEHOLDER/Hl7v2DefaultTemplates.tar.gz.</span><span>Root template: MDM_T02.</span></p></div>"
              },
              "occurredDateTime": "2021-08-01T12:21:42+05:30",
              "recorded": "2021-08-01T12:21:42+05:30",
              "agent": [
                  {
                      "type": {
                          "coding": [
                              {
                                  "code": "author",
                                  "system": "http://terminology.hl7.org/CodeSystem/provenance-participant-type"
                              }
                          ]
                      },
                      "who": {
                          "reference": "Organization/33e23f3e-47b2-9c1b-c1f0-f964c2d28946"
                      }
                  }
              ],
              "activity": {
                  "coding": [
                      {
                          "display": "MDM^T02^MDM_T02"
                      }
                  ]
              },
              "target": [
                  {
                      "reference": "Bundle/b37272c1-881a-0cf2-1120-5ab37ceaf698"
                  }
              ]
          },
          "request": {
              "method": "PUT",
              "url": "Provenance/ff198209-2ee9-a32c-124f-d63637240f8d"
          }
      },
      {
          "fullUrl": "urn:uuid:33e23f3e-47b2-9c1b-c1f0-f964c2d28946",
          "resource": {
              "resourceType": "Organization",
              "id": "33e23f3e-47b2-9c1b-c1f0-f964c2d28946",
              "identifier": [
                  {
                      "value": "SFAC",
                      "system": "http://example.com/v2-to-fhir-converter/Identifier/SFAC"
                  }
              ],
              "address": [
                  {
                      "country": "44"
                  }
              ]
          },
          "request": {
              "method": "PUT",
              "url": "Organization/33e23f3e-47b2-9c1b-c1f0-f964c2d28946"
          }
      },
      {
          "fullUrl": "urn:uuid:ab0676d9-fa24-ffd3-327d-f5b4c26ae628",
          "resource": {
              "resourceType": "Organization",
              "id": "ab0676d9-fa24-ffd3-327d-f5b4c26ae628",
              "identifier": [
                  {
                      "value": "RFAC",
                      "system": "http://example.com/v2-to-fhir-converter/Identifier/RFAC"
                  }
              ],
              "address": [
                  {
                      "country": "44"
                  }
              ]
          },
          "request": {
              "method": "PUT",
              "url": "Organization/ab0676d9-fa24-ffd3-327d-f5b4c26ae628"
          }
      },
      {
          "fullUrl": "urn:uuid:e7af414f-7873-8d60-ad37-fd7560092849",
          "resource": {
              "resourceType": "Provenance",
              "id": "e7af414f-7873-8d60-ad37-fd7560092849",
              "recorded": "2021-08-01T12:21:42+05:30",
              "agent": [
                  {
                      "who": {
                          "reference": "Practitioner/3a4c8c23-ae16-bb6c-7a8c-897b3043248b"
                      }
                  }
              ],
              "activity": {
                  "text": "MDM^T02^MDM_T02"
              },
              "target": [
                  {
                      "reference": "Bundle/b37272c1-881a-0cf2-1120-5ab37ceaf698"
                  }
              ]
          },
          "request": {
              "method": "PUT",
              "url": "Provenance/e7af414f-7873-8d60-ad37-fd7560092849"
          }
      },
      {
          "fullUrl": "urn:uuid:3a4c8c23-ae16-bb6c-7a8c-897b3043248b",
          "resource": {
              "resourceType": "Practitioner",
              "id": "3a4c8c23-ae16-bb6c-7a8c-897b3043248b",
              "identifier": [
                  {
                      "value": "C006",
                      "system": "http://example.com/v2-to-fhir-converter/Identifier/DRNBR",
                      "type": {
                          "coding": [
                              {
                                  "code": "ORGDR",
                                  "display": "ORGDR"
                              }
                          ]
                      }
                  }
              ],
              "name": [
                  {
                      "family": "Woolfson",
                      "given": [
                          "Kathleen"
                      ],
                      "prefix": [
                          "Dr"
                      ]
                  }
              ]
          },
          "request": {
              "method": "PUT",
              "url": "Practitioner/3a4c8c23-ae16-bb6c-7a8c-897b3043248b"
          }
      },
      {
          "fullUrl": "urn:uuid:a6ea438d-b20e-d59e-c9bf-e31dd88f7e4e",
          "resource": {
              "resourceType": "Patient",
              "id": "a6ea438d-b20e-d59e-c9bf-e31dd88f7e4e",
              "identifier": [
                  {
                      "value": "3196695816",
                      "type": {
                          "coding": [
                              {
                                  "code": "MRN",
                                  "display": "MRN"
                              }
                          ]
                      },
                      "system": "http://example.com/v2-to-fhir-converter/Identifier/SIMULATOR-MRN"
                  },
                  {
                      "value": "3196695816",
                      "type": {
                          "coding": [
                              {
                                  "code": "MRN",
                                  "display": "MRN"
                              }
                          ]
                      },
                      "system": "http://example.com/v2-to-fhir-converter/Identifier/SIMULATOR-MRN"
                  },
                  {
                      "value": "6597923189",
                      "type": {
                          "coding": [
                              {
                                  "code": "NHSNMBR",
                                  "display": "NHSNMBR"
                              }
                          ]
                      },
                      "system": "http://example.com/v2-to-fhir-converter/Identifier/NHSNBR"
                  }
              ],
              "name": [
                  {
                      "family": "Clark",
                      "given": [
                          "Frederick"
                      ],
                      "prefix": [
                          "Mr"
                      ]
                  }
              ],
              "birthDate": "1930-01-22",
              "_birthDate": {
                  "extension": [
                      {
                          "url": "http://hl7.org/fhir/StructureDefinition/patient-birthTime",
                          "valueDateTime": "1930-01-22T03:15:00+05:30"
                      }
                  ]
              },
              "gender": "male",
              "address": [
                  {
                      "line": [
                          "19 Blocker House",
                          "Restaurant Square"
                      ],
                      "city": "Ilford",
                      "postalCode": "WI3 7KU",
                      "country": "GBR"
                  }
              ],
              "telecom": [
                  {
                      "value": "073 0075 3040",
                      "system": "phone"
                  }
              ],
              "extension": [
                  {
                      "url": "http://hl7.org/fhir/us/core/StructureDefinition/us-core-ethnicity",
                      "extension": [
                          {
                              "url": "ombCategory",
                              "valueCoding": {
                                  "code": "A",
                                  "display": "White - British"
                              }
                          },
                          {
                              "url": "text",
                              "valueString": "A"
                          }
                      ]
                  }
              ]
          },
          "request": {
              "method": "PUT",
              "url": "Patient/a6ea438d-b20e-d59e-c9bf-e31dd88f7e4e"
          }
      },
      {
          "fullUrl": "urn:uuid:635008fa-3d98-895d-90b3-ec0d2efa5f0f",
          "resource": {
              "resourceType": "Encounter",
              "id": "635008fa-3d98-895d-90b3-ec0d2efa5f0f",
              "class": {
                  "code": "AMB",
                  "display": "ambulatory",
                  "system": "http://terminology.hl7.org/CodeSystem/v3-ActCode"
              },
              "status": "in-progress",
              "type": [
                  {
                      "coding": [
                          {
                              "code": "28b",
                              "display": "28b"
                          }
                      ]
                  }
              ],
              "participant": [
                  {
                      "type": [
                          {
                              "coding": [
                                  {
                                      "code": "ATND",
                                      "system": "http://terminology.hl7.org/CodeSystem/v3-ParticipationType",
                                      "display": "attender"
                                  }
                              ]
                          }
                      ],
                      "individual": {
                          "reference": "Practitioner/3a4c8c23-ae16-bb6c-7a8c-897b3043248b"
                      }
                  }
              ],
              "serviceType": {
                  "coding": [
                      {
                          "code": "MED"
                      }
                  ]
              },
              "text": {
                  "status": "generated",
                  "div": "<div xmlns=\"http://www.w3.org/1999/xhtml\"><p><span>Visit Description: </span></p></div>"
              },
              "subject": {
                  "reference": "Patient/a6ea438d-b20e-d59e-c9bf-e31dd88f7e4e"
              }
          },
          "request": {
              "method": "PUT",
              "url": "Encounter/635008fa-3d98-895d-90b3-ec0d2efa5f0f"
          }
      },
      {
          "fullUrl": "urn:uuid:ba02f303-e848-5771-d742-0de5371b5be4",
          "resource": {
              "resourceType": "DocumentReference",
              "id": "ba02f303-e848-5771-d742-0de5371b5be4",
              "type": {
                  "coding": [
                      {
                          "code": "DS"
                      }
                  ]
              },
              "context": {
                  "period": {
                      "start": "2021-08-01T12:21:42+05:30"
                  },
                  "related": [
                      {
                          "reference": "Practitioner/3a4c8c23-ae16-bb6c-7a8c-897b3043248b"
                      }
                  ]
              },
              "content": [
                  {
                      "attachment": {
                          "creation": "2021-08-03T03:15:00+05:30"
                      }
                  }
              ],
              "meta": {
                  "lastUpdated": "2021-08-01T12:21:42+05:30"
              },
              "masterIdentifier": {
                  "value": "2RWRVAJ627408"
              },
              "docStatus": "preliminary",
              "status": "current"
          },
          "request": {
              "method": "PUT",
              "url": "DocumentReference/ba02f303-e848-5771-d742-0de5371b5be4"
          }
      },
      {
          "fullUrl": "urn:uuid:c031cd63-1fa2-cb31-8841-e4a2a3c936bb",
          "resource": {
              "resourceType": "ServiceRequest",
              "id": "c031cd63-1fa2-cb31-8841-e4a2a3c936bb",
              "status": "unknown",
              "intent": "reflex-order",
              "orderDetail": [
                  {
                      "coding": [
                          {
                              "code": "PSS-46",
                              "display": "Placer service",
                              "system": "http://example.com/v2-to-fhir-converter/CodeSystem/L"
                          }
                      ]
                  },
                  {
                      "coding": [
                          {
                              "code": "FSS-47",
                              "display": "Filler service",
                              "system": "http://example.com/v2-to-fhir-converter/CodeSystem/L"
                          }
                      ]
                  }
              ],
              "identifier": [
                  {
                      "value": "845439",
                      "system": "http://example.com/v2-to-fhir-converter/Identifier/GHH-OE",
                      "type": {
                          "coding": [
                              {
                                  "code": "PLAC",
                                  "system": "http://terminology.hl7.org/CodeSystem/v2-0203"
                              }
                          ]
                      }
                  },
                  {
                      "value": "986",
                      "system": "urn:oid:2.16.840.1.114222.4.3.3.5.1.2",
                      "type": {
                          "coding": [
                              {
                                  "code": "FILL",
                                  "system": "http://terminology.hl7.org/CodeSystem/v2-0203"
                              }
                          ]
                      }
                  },
                  {
                      "value": "PGN-04",
                      "type": {
                          "coding": [
                              {
                                  "code": "PGN",
                                  "system": "http://terminology.hl7.org/CodeSystem/v2-0203"
                              }
                          ]
                      }
                  },
                  {
                      "value": "APON-53",
                      "type": {
                          "coding": [
                              {
                                  "code": "PLAC",
                                  "system": "http://terminology.hl7.org/CodeSystem/v2-0203"
                              }
                          ]
                      }
                  }
              ],
              "authoredOn": "2020-09-10T20:15:00+05:30",
              "basedOn": [
                  {
                      "reference": "ServiceRequest/29acd79b-adef-1dc7-6103-c65783a04bbb"
                  }
              ],
              "locationCode": [
                  {
                      "coding": [
                          {
                              "code": "BLB",
                              "system": "http://terminology.hl7.org/CodeSystem/v2-0074"
                          }
                      ]
                  },
                  {
                      "coding": [
                          {
                              "code": "OF",
                              "display": "Outpatient facility",
                              "system": "http://terminology.hl7.org/CodeSystem/v3-RoleCode"
                          }
                      ]
                  }
              ],
              "note": [
                  {
                      "text": "Placer 1",
                      "authorString": "Placer Field 1"
                  },
                  {
                      "text": "Placer 2",
                      "authorString": "Placer Field 2"
                  },
                  {
                      "text": "Filler 1",
                      "authorString": "Filler Field 1"
                  },
                  {
                      "text": "Filler 2",
                      "authorString": "Filler Field 2"
                  }
              ],
              "priority": "routine",
              "code": {
                  "coding": [
                      {
                          "code": "625-4",
                          "display": "Bacteria identified in Stool by Culture",
                          "system": "http://example.com/v2-to-fhir-converter/CodeSystem/XYZ",
                          "version": "2.33"
                      }
                  ],
                  "text": "Enteric Culture"
              },
              "reasonCode": [
                  {
                      "coding": [
                          {
                              "code": "444",
                              "display": "HIPPOCRATES",
                              "system": "http://example.com/v2-to-fhir-converter/CodeSystem/HOWARD-H",
                              "version": "MD"
                          }
                      ]
                  }
              ],
              "subject": {
                  "reference": "Patient/a6ea438d-b20e-d59e-c9bf-e31dd88f7e4e"
              },
              "reasonReference": [
                  {
                      "reference": "DocumentReference/ba02f303-e848-5771-d742-0de5371b5be4"
                  }
              ],
              "requester": {
                  "reference": "PractitionerRole/beeb9a6e-29ec-7926-4f50-287c7ce3a1f5"
              },
              "specimen": [
                  {
                      "reference": "Specimen/2cb11a40-e62b-7255-c309-1dd5b722b803"
                  }
              ],
              "occurrenceDateTime": "2020-10-10T20:15:00+05:30"
          },
          "request": {
              "method": "PUT",
              "url": "ServiceRequest/c031cd63-1fa2-cb31-8841-e4a2a3c936bb"
          }
      },
      {
          "fullUrl": "urn:uuid:58e7269f-6c76-d387-8454-ff4b18a7fccd",
          "resource": {
              "resourceType": "Organization",
              "id": "58e7269f-6c76-d387-8454-ff4b18a7fccd",
              "name": "MISSOURI DEPARTMENT OF HEALTH LABORATORY - MISSOURI DEPARTMENT OF HEALTH LABORATORY",
              "address": [
                  {
                      "line": [
                          "307 W MCCARTY ST"
                      ],
                      "city": "JEFFERSON CITY",
                      "state": "MO",
                      "postalCode": "65101",
                      "country": "USA",
                      "use": "work"
                  }
              ],
              "contact": [
                  {
                      "telecom": [
                          {
                              "use": "work",
                              "system": "phone"
                          }
                      ]
                  }
              ]
          },
          "request": {
              "method": "PUT",
              "url": "Organization/58e7269f-6c76-d387-8454-ff4b18a7fccd"
          }
      },
      {
          "fullUrl": "urn:uuid:beeb9a6e-29ec-7926-4f50-287c7ce3a1f5",
          "resource": {
              "resourceType": "PractitionerRole",
              "id": "beeb9a6e-29ec-7926-4f50-287c7ce3a1f5",
              "organization": {
                  "reference": "Organization/58e7269f-6c76-d387-8454-ff4b18a7fccd"
              }
          },
          "request": {
              "method": "PUT",
              "url": "PractitionerRole/beeb9a6e-29ec-7926-4f50-287c7ce3a1f5"
          }
      },
      {
          "fullUrl": "urn:uuid:29acd79b-adef-1dc7-6103-c65783a04bbb",
          "resource": {
              "resourceType": "ServiceRequest",
              "id": "29acd79b-adef-1dc7-6103-c65783a04bbb",
              "identifier": [
                  {
                      "value": "PAI-29",
                      "type": {
                          "coding": [
                              {
                                  "code": "PLAC",
                                  "system": "http://terminology.hl7.org/CodeSystem/v2-0203"
                              }
                          ]
                      }
                  },
                  {
                      "type": {
                          "coding": [
                              {
                                  "code": "50",
                                  "display": "11.22",
                                  "system": "http://example.com/v2-to-fhir-converter/CodeSystem/AR"
                              }
                          ]
                      }
                  }
              ],
              "status": "unknown",
              "intent": "reflex-order",
              "subject": {
                  "reference": "Patient/a6ea438d-b20e-d59e-c9bf-e31dd88f7e4e"
              }
          },
          "request": {
              "method": "PUT",
              "url": "ServiceRequest/29acd79b-adef-1dc7-6103-c65783a04bbb"
          }
      },
      {
          "fullUrl": "urn:uuid:2cb11a40-e62b-7255-c309-1dd5b722b803",
          "resource": {
              "resourceType": "Specimen",
              "id": "2cb11a40-e62b-7255-c309-1dd5b722b803",
              "identifier": [
                  {
                      "value": "845439",
                      "system": "http://example.com/v2-to-fhir-converter/Identifier/GHH-OE",
                      "type": {
                          "coding": [
                              {
                                  "code": "PLAC",
                                  "system": "http://terminology.hl7.org/CodeSystem/v2-0203"
                              }
                          ]
                      }
                  },
                  {
                      "value": "986",
                      "system": "urn:oid:2.16.840.1.114222.4.3.3.5.1.2",
                      "type": {
                          "coding": [
                              {
                                  "code": "FILL",
                                  "system": "http://terminology.hl7.org/CodeSystem/v2-0203"
                              }
                          ]
                      }
                  },
                  {
                      "value": "APON-53",
                      "type": {
                          "coding": [
                              {
                                  "code": "PLAC",
                                  "system": "http://terminology.hl7.org/CodeSystem/v2-0203"
                              }
                          ]
                      }
                  }
              ],
              "type": {
                  "coding": [
                      {
                          "code": "SP15",
                          "display": "1.2",
                          "system": "http://example.com/v2-to-fhir-converter/CodeSystem/L"
                      }
                  ]
              },
              "collection": {
                  "quantity": {
                      "value": 150,
                      "unit": "lb"
                  },
                  "collector": {
                      "reference": "PractitionerRole/9f64bd3b-d5e9-678b-2f14-b0d756a4e7f1"
                  },
                  "bodySite": {
                      "coding": [
                          {
                              "code": "BN",
                              "display": "223.3",
                              "system": "http://example.com/v2-to-fhir-converter/CodeSystem/L"
                          }
                      ]
                  },
                  "method": {
                      "text": "Collection Method"
                  },
                  "collectedDateTime": "2002-02-15T10:45:00+05:30"
              },
              "receivedTime": "2002-02-12T10:45:00+05:30",
              "container": [
                  {
                      "additiveCodeableConcept": {
                          "coding": [
                              {
                                  "code": "ACDA"
                              }
                          ]
                      }
                  }
              ],
              "note": [
                  {
                      "text": "Collector's comment"
                  }
              ]
          },
          "request": {
              "method": "PUT",
              "url": "Specimen/2cb11a40-e62b-7255-c309-1dd5b722b803"
          }
      },
      {
          "fullUrl": "urn:uuid:ae62dffe-1a0f-c68b-e7a3-e33cfce7761e",
          "resource": {
              "resourceType": "Practitioner",
              "id": "ae62dffe-1a0f-c68b-e7a3-e33cfce7761e",
              "identifier": [
                  {
                      "value": "10535",
                      "system": "http://example.com/v2-to-fhir-converter/Identifier/L",
                      "type": {
                          "coding": [
                              {
                                  "code": "MR",
                                  "display": "Medical record number",
                                  "system": "http://terminology.hl7.org/CodeSystem/v2-0203"
                              }
                          ]
                      }
                  }
              ],
              "name": [
                  {
                      "family": "van Beethoven",
                      "given": [
                          "Ludwig",
                          "A"
                      ],
                      "suffix": [
                          "III",
                          "PHD"
                      ],
                      "prefix": [
                          "Dr"
                      ],
                      "use": "official"
                  }
              ]
          },
          "request": {
              "method": "PUT",
              "url": "Practitioner/ae62dffe-1a0f-c68b-e7a3-e33cfce7761e"
          }
      },
      {
          "fullUrl": "urn:uuid:9f64bd3b-d5e9-678b-2f14-b0d756a4e7f1",
          "resource": {
              "resourceType": "PractitionerRole",
              "id": "9f64bd3b-d5e9-678b-2f14-b0d756a4e7f1",
              "practitioner": {
                  "reference": "Practitioner/ae62dffe-1a0f-c68b-e7a3-e33cfce7761e"
              }
          },
          "request": {
              "method": "PUT",
              "url": "PractitionerRole/9f64bd3b-d5e9-678b-2f14-b0d756a4e7f1"
          }
      },
      {
          "fullUrl": "urn:uuid:83cf5a63-9c84-2fa8-884b-1886e9526fd8",
          "resource": {
              "resourceType": "Observation",
              "id": "83cf5a63-9c84-2fa8-884b-1886e9526fd8",
              "status": "final",
              "code": {
                  "coding": [
                      {
                          "code": "obs-id",
                          "display": "obs-text",
                          "system": "http://example.com/v2-to-fhir-converter/CodeSystem/coding-system"
                      }
                  ]
              },
              "valueString": "Toilet cylinder crackers model step-mother visor opening communication",
              "subject": {
                  "reference": "Patient/a6ea438d-b20e-d59e-c9bf-e31dd88f7e4e"
              },
              "extension": [
                  {
                      "url": "http://example.com/v2-to-fhir-converter/Observation_Status",
                      "valueCodeableConcept": {
                          "coding": [
                              {
                                  "code": "F",
                                  "display": "Final",
                                  "system": "http://terminology.hl7.org/CodeSystem/v2-0085"
                              }
                          ],
                          "text": "Final"
                      }
                  }
              ]
          },
          "request": {
              "method": "PUT",
              "url": "Observation/83cf5a63-9c84-2fa8-884b-1886e9526fd8"
          }
      },
      {
          "fullUrl": "urn:uuid:8485edc6-008c-2b01-b26f-a2af596d30b5",
          "resource": {
              "resourceType": "Observation",
              "id": "8485edc6-008c-2b01-b26f-a2af596d30b5",
              "status": "final",
              "code": {
                  "coding": [
                      {
                          "code": "obs-id",
                          "display": "obs-text",
                          "system": "http://example.com/v2-to-fhir-converter/CodeSystem/coding-system"
                      }
                  ]
              },
              "valueString": "Columnist draft inn brown income ikebana circulation prince",
              "subject": {
                  "reference": "Patient/a6ea438d-b20e-d59e-c9bf-e31dd88f7e4e"
              },
              "extension": [
                  {
                      "url": "http://example.com/v2-to-fhir-converter/Observation_Status",
                      "valueCodeableConcept": {
                          "coding": [
                              {
                                  "code": "F",
                                  "display": "Final",
                                  "system": "http://terminology.hl7.org/CodeSystem/v2-0085"
                              }
                          ],
                          "text": "Final"
                      }
                  }
              ]
          },
          "request": {
              "method": "PUT",
              "url": "Observation/8485edc6-008c-2b01-b26f-a2af596d30b5"
          }
      },
      {
          "fullUrl": "urn:uuid:c6a42129-232f-3242-4739-73141d3e0c22",
          "resource": {
              "resourceType": "Observation",
              "id": "c6a42129-232f-3242-4739-73141d3e0c22",
              "status": "final",
              "code": {
                  "coding": [
                      {
                          "code": "obs-id",
                          "display": "obs-text",
                          "system": "http://example.com/v2-to-fhir-converter/CodeSystem/coding-system"
                      }
                  ]
              },
              "valueString": "Taxicab creator film therapist shelter",
              "subject": {
                  "reference": "Patient/a6ea438d-b20e-d59e-c9bf-e31dd88f7e4e"
              },
              "extension": [
                  {
                      "url": "http://example.com/v2-to-fhir-converter/Observation_Status",
                      "valueCodeableConcept": {
                          "coding": [
                              {
                                  "code": "F",
                                  "display": "Final",
                                  "system": "http://terminology.hl7.org/CodeSystem/v2-0085"
                              }
                          ],
                          "text": "Final"
                      }
                  }
              ]
          },
          "request": {
              "method": "PUT",
              "url": "Observation/c6a42129-232f-3242-4739-73141d3e0c22"
          }
      },
      {
          "fullUrl": "urn:uuid:1cd484ad-c654-fbaf-1242-d5c6addb1285",
          "resource": {
              "resourceType": "Observation",
              "id": "1cd484ad-c654-fbaf-1242-d5c6addb1285",
              "status": "final",
              "code": {
                  "coding": [
                      {
                          "code": "obs-id",
                          "display": "obs-text",
                          "system": "http://example.com/v2-to-fhir-converter/CodeSystem/coding-system"
                      }
                  ]
              },
              "valueString": "Naming grandmother ruth",
              "subject": {
                  "reference": "Patient/a6ea438d-b20e-d59e-c9bf-e31dd88f7e4e"
              },
              "extension": [
                  {
                      "url": "http://example.com/v2-to-fhir-converter/Observation_Status",
                      "valueCodeableConcept": {
                          "coding": [
                              {
                                  "code": "F",
                                  "display": "Final",
                                  "system": "http://terminology.hl7.org/CodeSystem/v2-0085"
                              }
                          ],
                          "text": "Final"
                      }
                  }
              ]
          },
          "request": {
              "method": "PUT",
              "url": "Observation/1cd484ad-c654-fbaf-1242-d5c6addb1285"
          }
      },
      {
          "fullUrl": "urn:uuid:68e0f79f-ad85-113d-c23d-58fec16ee5d9",
          "resource": {
              "resourceType": "Observation",
              "id": "68e0f79f-ad85-113d-c23d-58fec16ee5d9",
              "status": "final",
              "code": {
                  "coding": [
                      {
                          "code": "obs-id",
                          "display": "obs-text",
                          "system": "http://example.com/v2-to-fhir-converter/CodeSystem/coding-system"
                      }
                  ]
              },
              "valueString": "Cesspool dress crystallography processing sphynx conspirator plate tool",
              "subject": {
                  "reference": "Patient/a6ea438d-b20e-d59e-c9bf-e31dd88f7e4e"
              },
              "extension": [
                  {
                      "url": "http://example.com/v2-to-fhir-converter/Observation_Status",
                      "valueCodeableConcept": {
                          "coding": [
                              {
                                  "code": "F",
                                  "display": "Final",
                                  "system": "http://terminology.hl7.org/CodeSystem/v2-0085"
                              }
                          ],
                          "text": "Final"
                      }
                  }
              ]
          },
          "request": {
              "method": "PUT",
              "url": "Observation/68e0f79f-ad85-113d-c23d-58fec16ee5d9"
          }
      },
      {
          "fullUrl": "urn:uuid:6ba400df-3c94-dccd-275f-87f7bef8cece",
          "resource": {
              "resourceType": "Observation",
              "id": "6ba400df-3c94-dccd-275f-87f7bef8cece",
              "status": "final",
              "code": {
                  "coding": [
                      {
                          "code": "obs-id",
                          "display": "obs-text",
                          "system": "http://example.com/v2-to-fhir-converter/CodeSystem/coding-system"
                      }
                  ]
              },
              "valueString": "Let nothing neuropathologist grass",
              "subject": {
                  "reference": "Patient/a6ea438d-b20e-d59e-c9bf-e31dd88f7e4e"
              },
              "extension": [
                  {
                      "url": "http://example.com/v2-to-fhir-converter/Observation_Status",
                      "valueCodeableConcept": {
                          "coding": [
                              {
                                  "code": "F",
                                  "display": "Final",
                                  "system": "http://terminology.hl7.org/CodeSystem/v2-0085"
                              }
                          ],
                          "text": "Final"
                      }
                  }
              ]
          },
          "request": {
              "method": "PUT",
              "url": "Observation/6ba400df-3c94-dccd-275f-87f7bef8cece"
          }
      },
      {
          "fullUrl": "urn:uuid:a93e88a9-4706-27a0-e24d-ca7b71a9d5a0",
          "resource": {
              "resourceType": "Observation",
              "id": "a93e88a9-4706-27a0-e24d-ca7b71a9d5a0",
              "status": "final",
              "code": {
                  "coding": [
                      {
                          "code": "obs-id",
                          "display": "obs-text",
                          "system": "http://example.com/v2-to-fhir-converter/CodeSystem/coding-system"
                      }
                  ]
              },
              "valueString": "James flavor source sweats perfume spasm",
              "subject": {
                  "reference": "Patient/a6ea438d-b20e-d59e-c9bf-e31dd88f7e4e"
              },
              "extension": [
                  {
                      "url": "http://example.com/v2-to-fhir-converter/Observation_Status",
                      "valueCodeableConcept": {
                          "coding": [
                              {
                                  "code": "F",
                                  "display": "Final",
                                  "system": "http://terminology.hl7.org/CodeSystem/v2-0085"
                              }
                          ],
                          "text": "Final"
                      }
                  }
              ]
          },
          "request": {
              "method": "PUT",
              "url": "Observation/a93e88a9-4706-27a0-e24d-ca7b71a9d5a0"
          }
      },
      {
          "fullUrl": "urn:uuid:b6655c58-2580-31ca-89fa-f71589186f5f",
          "resource": {
              "resourceType": "Observation",
              "id": "b6655c58-2580-31ca-89fa-f71589186f5f",
              "status": "final",
              "code": {
                  "coding": [
                      {
                          "code": "obs-id",
                          "display": "obs-text",
                          "system": "http://example.com/v2-to-fhir-converter/CodeSystem/coding-system"
                      }
                  ]
              },
              "valueString": "Stopsign",
              "subject": {
                  "reference": "Patient/a6ea438d-b20e-d59e-c9bf-e31dd88f7e4e"
              },
              "extension": [
                  {
                      "url": "http://example.com/v2-to-fhir-converter/Observation_Status",
                      "valueCodeableConcept": {
                          "coding": [
                              {
                                  "code": "F",
                                  "display": "Final",
                                  "system": "http://terminology.hl7.org/CodeSystem/v2-0085"
                              }
                          ],
                          "text": "Final"
                      }
                  }
              ]
          },
          "request": {
              "method": "PUT",
              "url": "Observation/b6655c58-2580-31ca-89fa-f71589186f5f"
          }
      },
      {
          "fullUrl": "urn:uuid:6c24608d-f759-4c1e-75f1-7b530ba5810a",
          "resource": {
              "resourceType": "Observation",
              "id": "6c24608d-f759-4c1e-75f1-7b530ba5810a",
              "status": "final",
              "code": {
                  "coding": [
                      {
                          "code": "obs-id",
                          "display": "obs-text",
                          "system": "http://example.com/v2-to-fhir-converter/CodeSystem/coding-system"
                      }
                  ]
              },
              "valueString": "Neat rugby sound evening hostel curio chastity pulley wallet xylophone",
              "subject": {
                  "reference": "Patient/a6ea438d-b20e-d59e-c9bf-e31dd88f7e4e"
              },
              "extension": [
                  {
                      "url": "http://example.com/v2-to-fhir-converter/Observation_Status",
                      "valueCodeableConcept": {
                          "coding": [
                              {
                                  "code": "F",
                                  "display": "Final",
                                  "system": "http://terminology.hl7.org/CodeSystem/v2-0085"
                              }
                          ],
                          "text": "Final"
                      }
                  }
              ]
          },
          "request": {
              "method": "PUT",
              "url": "Observation/6c24608d-f759-4c1e-75f1-7b530ba5810a"
          }
      },
      {
          "fullUrl": "urn:uuid:8bdf4549-5339-7eb4-dfa3-c7c8ef981ceb",
          "resource": {
              "resourceType": "Observation",
              "id": "8bdf4549-5339-7eb4-dfa3-c7c8ef981ceb",
              "status": "final",
              "code": {
                  "coding": [
                      {
                          "code": "obs-id",
                          "display": "obs-text",
                          "system": "http://example.com/v2-to-fhir-converter/CodeSystem/coding-system"
                      }
                  ]
              },
              "valueString": "Tomorrow survey raffle epee cash herb hovel frame",
              "subject": {
                  "reference": "Patient/a6ea438d-b20e-d59e-c9bf-e31dd88f7e4e"
              },
              "extension": [
                  {
                      "url": "http://example.com/v2-to-fhir-converter/Observation_Status",
                      "valueCodeableConcept": {
                          "coding": [
                              {
                                  "code": "F",
                                  "display": "Final",
                                  "system": "http://terminology.hl7.org/CodeSystem/v2-0085"
                              }
                          ],
                          "text": "Final"
                      }
                  }
              ]
          },
          "request": {
              "method": "PUT",
              "url": "Observation/8bdf4549-5339-7eb4-dfa3-c7c8ef981ceb"
          }
      },
      {
          "fullUrl": "urn:uuid:ee71fea8-96b6-a46c-579e-dc5367127579",
          "resource": {
              "resourceType": "Observation",
              "id": "ee71fea8-96b6-a46c-579e-dc5367127579",
              "status": "final",
              "code": {
                  "coding": [
                      {
                          "code": "obs-id",
                          "display": "obs-text",
                          "system": "http://example.com/v2-to-fhir-converter/CodeSystem/coding-system"
                      }
                  ]
              },
              "valueString": "Wish orangutan caddy mayor knowledge guilt tight criteria",
              "subject": {
                  "reference": "Patient/a6ea438d-b20e-d59e-c9bf-e31dd88f7e4e"
              },
              "extension": [
                  {
                      "url": "http://example.com/v2-to-fhir-converter/Observation_Status",
                      "valueCodeableConcept": {
                          "coding": [
                              {
                                  "code": "F",
                                  "display": "Final",
                                  "system": "http://terminology.hl7.org/CodeSystem/v2-0085"
                              }
                          ],
                          "text": "Final"
                      }
                  }
              ]
          },
          "request": {
              "method": "PUT",
              "url": "Observation/ee71fea8-96b6-a46c-579e-dc5367127579"
          }
      },
      {
          "fullUrl": "urn:uuid:a9f6136e-3718-d3a7-6b0c-089337325264",
          "resource": {
              "resourceType": "Observation",
              "id": "a9f6136e-3718-d3a7-6b0c-089337325264",
              "status": "final",
              "code": {
                  "coding": [
                      {
                          "code": "obs-id",
                          "display": "obs-text",
                          "system": "http://example.com/v2-to-fhir-converter/CodeSystem/coding-system"
                      }
                  ]
              },
              "valueString": "Thong",
              "subject": {
                  "reference": "Patient/a6ea438d-b20e-d59e-c9bf-e31dd88f7e4e"
              },
              "extension": [
                  {
                      "url": "http://example.com/v2-to-fhir-converter/Observation_Status",
                      "valueCodeableConcept": {
                          "coding": [
                              {
                                  "code": "F",
                                  "display": "Final",
                                  "system": "http://terminology.hl7.org/CodeSystem/v2-0085"
                              }
                          ],
                          "text": "Final"
                      }
                  }
              ]
          },
          "request": {
              "method": "PUT",
              "url": "Observation/a9f6136e-3718-d3a7-6b0c-089337325264"
          }
      },
      {
          "fullUrl": "urn:uuid:1729d3a6-8428-d4df-ad09-54ba86fbe34f",
          "resource": {
              "resourceType": "Observation",
              "id": "1729d3a6-8428-d4df-ad09-54ba86fbe34f",
              "status": "final",
              "code": {
                  "coding": [
                      {
                          "code": "obs-id",
                          "display": "obs-text",
                          "system": "http://example.com/v2-to-fhir-converter/CodeSystem/coding-system"
                      }
                  ]
              },
              "valueString": "Scimitar gall-bladder economy orange trade sing town",
              "subject": {
                  "reference": "Patient/a6ea438d-b20e-d59e-c9bf-e31dd88f7e4e"
              },
              "extension": [
                  {
                      "url": "http://example.com/v2-to-fhir-converter/Observation_Status",
                      "valueCodeableConcept": {
                          "coding": [
                              {
                                  "code": "F",
                                  "display": "Final",
                                  "system": "http://terminology.hl7.org/CodeSystem/v2-0085"
                              }
                          ],
                          "text": "Final"
                      }
                  }
              ]
          },
          "request": {
              "method": "PUT",
              "url": "Observation/1729d3a6-8428-d4df-ad09-54ba86fbe34f"
          }
      },
      {
          "fullUrl": "urn:uuid:0689f0ef-6812-c40c-7c5b-8da95fcbc61d",
          "resource": {
              "resourceType": "Observation",
              "id": "0689f0ef-6812-c40c-7c5b-8da95fcbc61d",
              "status": "final",
              "code": {
                  "coding": [
                      {
                          "code": "obs-id",
                          "display": "obs-text",
                          "system": "http://example.com/v2-to-fhir-converter/CodeSystem/coding-system"
                      }
                  ]
              },
              "valueString": "Vinyl people junk skiing north irony sing scorn cameo",
              "subject": {
                  "reference": "Patient/a6ea438d-b20e-d59e-c9bf-e31dd88f7e4e"
              },
              "extension": [
                  {
                      "url": "http://example.com/v2-to-fhir-converter/Observation_Status",
                      "valueCodeableConcept": {
                          "coding": [
                              {
                                  "code": "F",
                                  "display": "Final",
                                  "system": "http://terminology.hl7.org/CodeSystem/v2-0085"
                              }
                          ],
                          "text": "Final"
                      }
                  }
              ]
          },
          "request": {
              "method": "PUT",
              "url": "Observation/0689f0ef-6812-c40c-7c5b-8da95fcbc61d"
          }
      },
      {
          "fullUrl": "urn:uuid:73ca4d9e-6996-d09d-13fc-a0c6bb1a0dd0",
          "resource": {
              "resourceType": "Observation",
              "id": "73ca4d9e-6996-d09d-13fc-a0c6bb1a0dd0",
              "status": "final",
              "code": {
                  "coding": [
                      {
                          "code": "obs-id",
                          "display": "obs-text",
                          "system": "http://example.com/v2-to-fhir-converter/CodeSystem/coding-system"
                      }
                  ]
              },
              "valueString": "Math pimp wave leather national nurture responsibility suppression",
              "subject": {
                  "reference": "Patient/a6ea438d-b20e-d59e-c9bf-e31dd88f7e4e"
              },
              "extension": [
                  {
                      "url": "http://example.com/v2-to-fhir-converter/Observation_Status",
                      "valueCodeableConcept": {
                          "coding": [
                              {
                                  "code": "F",
                                  "display": "Final",
                                  "system": "http://terminology.hl7.org/CodeSystem/v2-0085"
                              }
                          ],
                          "text": "Final"
                      }
                  }
              ]
          },
          "request": {
              "method": "PUT",
              "url": "Observation/73ca4d9e-6996-d09d-13fc-a0c6bb1a0dd0"
          }
      },
      {
          "fullUrl": "urn:uuid:6b7a5ccb-3e27-58ec-85e2-faae9175191e",
          "resource": {
              "resourceType": "Observation",
              "id": "6b7a5ccb-3e27-58ec-85e2-faae9175191e",
              "status": "final",
              "code": {
                  "coding": [
                      {
                          "code": "obs-id",
                          "display": "obs-text",
                          "system": "http://example.com/v2-to-fhir-converter/CodeSystem/coding-system"
                      }
                  ]
              },
              "valueString": "Sash area",
              "subject": {
                  "reference": "Patient/a6ea438d-b20e-d59e-c9bf-e31dd88f7e4e"
              },
              "extension": [
                  {
                      "url": "http://example.com/v2-to-fhir-converter/Observation_Status",
                      "valueCodeableConcept": {
                          "coding": [
                              {
                                  "code": "F",
                                  "display": "Final",
                                  "system": "http://terminology.hl7.org/CodeSystem/v2-0085"
                              }
                          ],
                          "text": "Final"
                      }
                  }
              ]
          },
          "request": {
              "method": "PUT",
              "url": "Observation/6b7a5ccb-3e27-58ec-85e2-faae9175191e"
          }
      },
      {
          "fullUrl": "urn:uuid:ae8f0749-b387-eeb6-9455-060899157001",
          "resource": {
              "resourceType": "Observation",
              "id": "ae8f0749-b387-eeb6-9455-060899157001",
              "status": "final",
              "code": {
                  "coding": [
                      {
                          "code": "obs-id",
                          "display": "obs-text",
                          "system": "http://example.com/v2-to-fhir-converter/CodeSystem/coding-system"
                      }
                  ]
              },
              "valueString": "Search eyelids",
              "subject": {
                  "reference": "Patient/a6ea438d-b20e-d59e-c9bf-e31dd88f7e4e"
              },
              "extension": [
                  {
                      "url": "http://example.com/v2-to-fhir-converter/Observation_Status",
                      "valueCodeableConcept": {
                          "coding": [
                              {
                                  "code": "F",
                                  "display": "Final",
                                  "system": "http://terminology.hl7.org/CodeSystem/v2-0085"
                              }
                          ],
                          "text": "Final"
                      }
                  }
              ]
          },
          "request": {
              "method": "PUT",
              "url": "Observation/ae8f0749-b387-eeb6-9455-060899157001"
          }
      },
      {
          "fullUrl": "urn:uuid:dad4437d-d5a0-2a1f-95a5-adf4cca9ee81",
          "resource": {
              "resourceType": "Observation",
              "id": "dad4437d-d5a0-2a1f-95a5-adf4cca9ee81",
              "status": "final",
              "code": {
                  "coding": [
                      {
                          "code": "obs-id",
                          "display": "obs-text",
                          "system": "http://example.com/v2-to-fhir-converter/CodeSystem/coding-system"
                      }
                  ]
              },
              "valueString": "Suffocation face convert soup cricket",
              "subject": {
                  "reference": "Patient/a6ea438d-b20e-d59e-c9bf-e31dd88f7e4e"
              },
              "extension": [
                  {
                      "url": "http://example.com/v2-to-fhir-converter/Observation_Status",
                      "valueCodeableConcept": {
                          "coding": [
                              {
                                  "code": "F",
                                  "display": "Final",
                                  "system": "http://terminology.hl7.org/CodeSystem/v2-0085"
                              }
                          ],
                          "text": "Final"
                      }
                  }
              ]
          },
          "request": {
              "method": "PUT",
              "url": "Observation/dad4437d-d5a0-2a1f-95a5-adf4cca9ee81"
          }
      },
      {
          "fullUrl": "urn:uuid:737a80e8-e1f6-3f78-98bf-f051b176be60",
          "resource": {
              "resourceType": "Observation",
              "id": "737a80e8-e1f6-3f78-98bf-f051b176be60",
              "status": "final",
              "code": {
                  "coding": [
                      {
                          "code": "obs-id",
                          "display": "obs-text",
                          "system": "http://example.com/v2-to-fhir-converter/CodeSystem/coding-system"
                      }
                  ]
              },
              "valueString": "Step-Grandmother",
              "subject": {
                  "reference": "Patient/a6ea438d-b20e-d59e-c9bf-e31dd88f7e4e"
              },
              "extension": [
                  {
                      "url": "http://example.com/v2-to-fhir-converter/Observation_Status",
                      "valueCodeableConcept": {
                          "coding": [
                              {
                                  "code": "F",
                                  "display": "Final",
                                  "system": "http://terminology.hl7.org/CodeSystem/v2-0085"
                              }
                          ],
                          "text": "Final"
                      }
                  }
              ]
          },
          "request": {
              "method": "PUT",
              "url": "Observation/737a80e8-e1f6-3f78-98bf-f051b176be60"
          }
      },
      {
          "fullUrl": "urn:uuid:141338ad-2acf-f6f3-4c96-9db178a297db",
          "resource": {
              "resourceType": "Observation",
              "id": "141338ad-2acf-f6f3-4c96-9db178a297db",
              "status": "final",
              "code": {
                  "coding": [
                      {
                          "code": "obs-id",
                          "display": "obs-text",
                          "system": "http://example.com/v2-to-fhir-converter/CodeSystem/coding-system"
                      }
                  ]
              },
              "valueString": "Pheasant shot disembodiment",
              "subject": {
                  "reference": "Patient/a6ea438d-b20e-d59e-c9bf-e31dd88f7e4e"
              },
              "extension": [
                  {
                      "url": "http://example.com/v2-to-fhir-converter/Observation_Status",
                      "valueCodeableConcept": {
                          "coding": [
                              {
                                  "code": "F",
                                  "display": "Final",
                                  "system": "http://terminology.hl7.org/CodeSystem/v2-0085"
                              }
                          ],
                          "text": "Final"
                      }
                  }
              ]
          },
          "request": {
              "method": "PUT",
              "url": "Observation/141338ad-2acf-f6f3-4c96-9db178a297db"
          }
      },
      {
          "fullUrl": "urn:uuid:9e207d6a-254c-199e-ace3-73028bbf61e2",
          "resource": {
              "resourceType": "Observation",
              "id": "9e207d6a-254c-199e-ace3-73028bbf61e2",
              "status": "final",
              "code": {
                  "coding": [
                      {
                          "code": "obs-id",
                          "display": "obs-text",
                          "system": "http://example.com/v2-to-fhir-converter/CodeSystem/coding-system"
                      }
                  ]
              },
              "valueString": "White feature",
              "subject": {
                  "reference": "Patient/a6ea438d-b20e-d59e-c9bf-e31dd88f7e4e"
              },
              "extension": [
                  {
                      "url": "http://example.com/v2-to-fhir-converter/Observation_Status",
                      "valueCodeableConcept": {
                          "coding": [
                              {
                                  "code": "F",
                                  "display": "Final",
                                  "system": "http://terminology.hl7.org/CodeSystem/v2-0085"
                              }
                          ],
                          "text": "Final"
                      }
                  }
              ]
          },
          "request": {
              "method": "PUT",
              "url": "Observation/9e207d6a-254c-199e-ace3-73028bbf61e2"
          }
      },
      {
          "fullUrl": "urn:uuid:7ece5490-60d5-9c13-80d7-e316eb0f8e11",
          "resource": {
              "resourceType": "Observation",
              "id": "7ece5490-60d5-9c13-80d7-e316eb0f8e11",
              "status": "final",
              "code": {
                  "coding": [
                      {
                          "code": "obs-id",
                          "display": "obs-text",
                          "system": "http://example.com/v2-to-fhir-converter/CodeSystem/coding-system"
                      }
                  ]
              },
              "valueString": "Duster",
              "subject": {
                  "reference": "Patient/a6ea438d-b20e-d59e-c9bf-e31dd88f7e4e"
              },
              "extension": [
                  {
                      "url": "http://example.com/v2-to-fhir-converter/Observation_Status",
                      "valueCodeableConcept": {
                          "coding": [
                              {
                                  "code": "F",
                                  "display": "Final",
                                  "system": "http://terminology.hl7.org/CodeSystem/v2-0085"
                              }
                          ],
                          "text": "Final"
                      }
                  }
              ]
          },
          "request": {
              "method": "PUT",
              "url": "Observation/7ece5490-60d5-9c13-80d7-e316eb0f8e11"
          }
      },
      {
          "fullUrl": "urn:uuid:e8265970-6279-10e5-e7f2-5c293bfe01be",
          "resource": {
              "resourceType": "Observation",
              "id": "e8265970-6279-10e5-e7f2-5c293bfe01be",
              "status": "final",
              "code": {
                  "coding": [
                      {
                          "code": "obs-id",
                          "display": "obs-text",
                          "system": "http://example.com/v2-to-fhir-converter/CodeSystem/coding-system"
                      }
                  ]
              },
              "valueString": "Science cycle demand",
              "subject": {
                  "reference": "Patient/a6ea438d-b20e-d59e-c9bf-e31dd88f7e4e"
              },
              "extension": [
                  {
                      "url": "http://example.com/v2-to-fhir-converter/Observation_Status",
                      "valueCodeableConcept": {
                          "coding": [
                              {
                                  "code": "F",
                                  "display": "Final",
                                  "system": "http://terminology.hl7.org/CodeSystem/v2-0085"
                              }
                          ],
                          "text": "Final"
                      }
                  }
              ]
          },
          "request": {
              "method": "PUT",
              "url": "Observation/e8265970-6279-10e5-e7f2-5c293bfe01be"
          }
      },
      {
          "fullUrl": "urn:uuid:447cfa11-4719-8b8c-5d7f-698fe7f2d492",
          "resource": {
              "resourceType": "Observation",
              "id": "447cfa11-4719-8b8c-5d7f-698fe7f2d492",
              "status": "final",
              "code": {
                  "coding": [
                      {
                          "code": "obs-id",
                          "display": "obs-text",
                          "system": "http://example.com/v2-to-fhir-converter/CodeSystem/coding-system"
                      }
                  ]
              },
              "valueString": "Charm official",
              "subject": {
                  "reference": "Patient/a6ea438d-b20e-d59e-c9bf-e31dd88f7e4e"
              },
              "extension": [
                  {
                      "url": "http://example.com/v2-to-fhir-converter/Observation_Status",
                      "valueCodeableConcept": {
                          "coding": [
                              {
                                  "code": "F",
                                  "display": "Final",
                                  "system": "http://terminology.hl7.org/CodeSystem/v2-0085"
                              }
                          ],
                          "text": "Final"
                      }
                  }
              ]
          },
          "request": {
              "method": "PUT",
              "url": "Observation/447cfa11-4719-8b8c-5d7f-698fe7f2d492"
          }
      },
      {
          "fullUrl": "urn:uuid:11738ca9-487e-3484-ff4d-5d0e04b52681",
          "resource": {
              "resourceType": "Observation",
              "id": "11738ca9-487e-3484-ff4d-5d0e04b52681",
              "status": "final",
              "code": {
                  "coding": [
                      {
                          "code": "obs-id",
                          "display": "obs-text",
                          "system": "http://example.com/v2-to-fhir-converter/CodeSystem/coding-system"
                      }
                  ]
              },
              "valueString": "Airport manservant",
              "subject": {
                  "reference": "Patient/a6ea438d-b20e-d59e-c9bf-e31dd88f7e4e"
              },
              "extension": [
                  {
                      "url": "http://example.com/v2-to-fhir-converter/Observation_Status",
                      "valueCodeableConcept": {
                          "coding": [
                              {
                                  "code": "F",
                                  "display": "Final",
                                  "system": "http://terminology.hl7.org/CodeSystem/v2-0085"
                              }
                          ],
                          "text": "Final"
                      }
                  }
              ]
          },
          "request": {
              "method": "PUT",
              "url": "Observation/11738ca9-487e-3484-ff4d-5d0e04b52681"
          }
      },
      {
          "fullUrl": "urn:uuid:a7307ba2-a39d-7fac-8333-416851242799",
          "resource": {
              "resourceType": "Observation",
              "id": "a7307ba2-a39d-7fac-8333-416851242799",
              "status": "final",
              "code": {
                  "coding": [
                      {
                          "code": "obs-id",
                          "display": "obs-text",
                          "system": "http://example.com/v2-to-fhir-converter/CodeSystem/coding-system"
                      }
                  ]
              },
              "valueString": "Lanai flute unique plain feature parking pressure",
              "subject": {
                  "reference": "Patient/a6ea438d-b20e-d59e-c9bf-e31dd88f7e4e"
              },
              "extension": [
                  {
                      "url": "http://example.com/v2-to-fhir-converter/Observation_Status",
                      "valueCodeableConcept": {
                          "coding": [
                              {
                                  "code": "F",
                                  "display": "Final",
                                  "system": "http://terminology.hl7.org/CodeSystem/v2-0085"
                              }
                          ],
                          "text": "Final"
                      }
                  }
              ]
          },
          "request": {
              "method": "PUT",
              "url": "Observation/a7307ba2-a39d-7fac-8333-416851242799"
          }
      },
      {
          "fullUrl": "urn:uuid:a0a317c7-fc88-8e06-1481-20dd212e9dc8",
          "resource": {
              "resourceType": "Observation",
              "id": "a0a317c7-fc88-8e06-1481-20dd212e9dc8",
              "status": "final",
              "code": {
                  "coding": [
                      {
                          "code": "obs-id",
                          "display": "obs-text",
                          "system": "http://example.com/v2-to-fhir-converter/CodeSystem/coding-system"
                      }
                  ]
              },
              "valueString": "Instance buggy colt route pier menorah ingrate garb",
              "subject": {
                  "reference": "Patient/a6ea438d-b20e-d59e-c9bf-e31dd88f7e4e"
              },
              "extension": [
                  {
                      "url": "http://example.com/v2-to-fhir-converter/Observation_Status",
                      "valueCodeableConcept": {
                          "coding": [
                              {
                                  "code": "F",
                                  "display": "Final",
                                  "system": "http://terminology.hl7.org/CodeSystem/v2-0085"
                              }
                          ],
                          "text": "Final"
                      }
                  }
              ]
          },
          "request": {
              "method": "PUT",
              "url": "Observation/a0a317c7-fc88-8e06-1481-20dd212e9dc8"
          }
      },
      {
          "fullUrl": "urn:uuid:9914967a-1c3e-c037-30f2-362b2135b21b",
          "resource": {
              "resourceType": "Observation",
              "id": "9914967a-1c3e-c037-30f2-362b2135b21b",
              "status": "final",
              "code": {
                  "coding": [
                      {
                          "code": "obs-id",
                          "display": "obs-text",
                          "system": "http://example.com/v2-to-fhir-converter/CodeSystem/coding-system"
                      }
                  ]
              },
              "valueString": "Character press mini comic",
              "subject": {
                  "reference": "Patient/a6ea438d-b20e-d59e-c9bf-e31dd88f7e4e"
              },
              "extension": [
                  {
                      "url": "http://example.com/v2-to-fhir-converter/Observation_Status",
                      "valueCodeableConcept": {
                          "coding": [
                              {
                                  "code": "F",
                                  "display": "Final",
                                  "system": "http://terminology.hl7.org/CodeSystem/v2-0085"
                              }
                          ],
                          "text": "Final"
                      }
                  }
              ]
          },
          "request": {
              "method": "PUT",
              "url": "Observation/9914967a-1c3e-c037-30f2-362b2135b21b"
          }
      },
      {
          "fullUrl": "urn:uuid:a43d8206-d6e6-95a5-2c99-aa86046ba477",
          "resource": {
              "resourceType": "Observation",
              "id": "a43d8206-d6e6-95a5-2c99-aa86046ba477",
              "status": "final",
              "code": {
                  "coding": [
                      {
                          "code": "obs-id",
                          "display": "obs-text",
                          "system": "http://example.com/v2-to-fhir-converter/CodeSystem/coding-system"
                      }
                  ]
              },
              "valueString": "Reminder shofar congo vibration mother-in-law bondsman suspect",
              "subject": {
                  "reference": "Patient/a6ea438d-b20e-d59e-c9bf-e31dd88f7e4e"
              },
              "extension": [
                  {
                      "url": "http://example.com/v2-to-fhir-converter/Observation_Status",
                      "valueCodeableConcept": {
                          "coding": [
                              {
                                  "code": "F",
                                  "display": "Final",
                                  "system": "http://terminology.hl7.org/CodeSystem/v2-0085"
                              }
                          ],
                          "text": "Final"
                      }
                  }
              ]
          },
          "request": {
              "method": "PUT",
              "url": "Observation/a43d8206-d6e6-95a5-2c99-aa86046ba477"
          }
      }
  ]
}