{
  "resourceType": "Bundle",
  "type": "batch",
  "entry": [
    {
      "fullUrl": "urn:uuid:bd76febe-cc5e-47b4-46a8-7048efa8b753",
      "resource": {
        "resourceType": "Composition",
        "id": "bd76febe-cc5e-47b4-46a8-7048efa8b753",
        "identifier": {
          "use": "official",
          "value": "2.16.840.1.113883.19.5.99999.1"
        },
        "status": "final",
        "type": {
          "coding": [
            {
              "code": "34133-9",
              "display": "Summarization of Episode Note",
              "system": "http://loinc.org"
            }
          ]
        },
        "date": "2013-08-16T02:30:00+08:00",
        "title": "Patient Chart Summary",
        "confidentiality": "N",
        "attester": [
          {
            "mode": "legal",
            "time": "2013-08-16T14:36:15+08:00",
            "party": {
              "reference": "Practitioner/b0ac12ce-9e58-22b8-f79a-aba2409dac02"
            }
          }
        ],
        "event": [
          {
            "period": {
              "start": "1975-05-01"
            }
          }
        ],
        "section": [
          {
            "title": "ADVANCE DIRECTIVES",
            "text": {
              "status": "generated",
              "div": "<div xmlns=\"http://www.w3.org/1999/xhtml\">ADVANCE DIRECTIVES</div>"
            },
            "code": {
              "coding": [
                {
                  "code": "42348-3",
                  "system": "http://loinc.org"
                }
              ]
            },
            "mode": "snapshot"
          },
          {
            "title": "ALLERGIES AND ADVERSE REACTIONS",
            "text": {
              "status": "generated",
              "div": "<div xmlns=\"http://www.w3.org/1999/xhtml\">ALLERGIES AND ADVERSE REACTIONS</div>"
            },
            "code": {
              "coding": [
                {
                  "code": "48765-2",
                  "system": "http://loinc.org"
                }
              ]
            },
            "mode": "snapshot"
          },
          {
            "title": "ENCOUNTERS",
            "text": {
              "status": "generated",
              "div": "<div xmlns=\"http://www.w3.org/1999/xhtml\">ENCOUNTERS</div>"
            },
            "code": {
              "coding": [
                {
                  "code": "46240-8",
                  "display": "History of encounters",
                  "system": "http://loinc.org"
                }
              ]
            },
            "mode": "snapshot"
          },
          {
            "title": "FAMILY HISTORY",
            "text": {
              "status": "generated",
              "div": "<div xmlns=\"http://www.w3.org/1999/xhtml\">FAMILY HISTORY</div>"
            },
            "code": {
              "coding": [
                {
                  "code": "10157-6",
                  "system": "http://loinc.org"
                }
              ]
            },
            "mode": "snapshot"
          },
          {
            "title": "FUNCTIONAL STATUS",
            "text": {
              "status": "generated",
              "div": "<div xmlns=\"http://www.w3.org/1999/xhtml\">FUNCTIONAL STATUS</div>"
            },
            "code": {
              "coding": [
                {
                  "code": "47420-5",
                  "display": "Functional Status",
                  "system": "http://loinc.org"
                }
              ]
            },
            "mode": "snapshot"
          },
          {
            "title": "IMMUNIZATIONS",
            "text": {
              "status": "generated",
              "div": "<div xmlns=\"http://www.w3.org/1999/xhtml\">IMMUNIZATIONS</div>"
            },
            "code": {
              "coding": [
                {
                  "code": "11369-6",
                  "display": "History of immunizations",
                  "system": "http://loinc.org"
                }
              ]
            },
            "mode": "snapshot"
          },
          {
            "title": "MEDICAL EQUIPMENT",
            "text": {
              "status": "generated",
              "div": "<div xmlns=\"http://www.w3.org/1999/xhtml\">MEDICAL EQUIPMENT</div>"
            },
            "code": {
              "coding": [
                {
                  "code": "46264-8",
                  "system": "http://loinc.org"
                }
              ]
            },
            "mode": "snapshot"
          },
          {
            "title": "MEDICATIONS",
            "text": {
              "status": "generated",
              "div": "<div xmlns=\"http://www.w3.org/1999/xhtml\">MEDICATIONS</div>"
            },
            "code": {
              "coding": [
                {
                  "code": "10160-0",
                  "display": "HISTORY OF MEDICATION USE",
                  "system": "http://loinc.org"
                }
              ]
            },
            "mode": "snapshot"
          },
          {
            "title": "INSURANCE PROVIDERS",
            "text": {
              "status": "generated",
              "div": "<div xmlns=\"http://www.w3.org/1999/xhtml\">INSURANCE PROVIDERS</div>"
            },
            "code": {
              "coding": [
                {
                  "code": "48768-6",
                  "display": "Payer",
                  "system": "http://loinc.org"
                }
              ]
            },
            "mode": "snapshot"
          },
          {
            "title": "TREATMENT PLAN",
            "text": {
              "status": "generated",
              "div": "<div xmlns=\"http://www.w3.org/1999/xhtml\">TREATMENT PLAN</div>"
            },
            "code": {
              "coding": [
                {
                  "code": "18776-5",
                  "display": "Treatment plan",
                  "system": "http://loinc.org"
                }
              ]
            },
            "mode": "snapshot"
          },
          {
            "title": "PROBLEMS",
            "text": {
              "status": "generated",
              "div": "<div xmlns=\"http://www.w3.org/1999/xhtml\">PROBLEMS</div>"
            },
            "code": {
              "coding": [
                {
                  "code": "11450-4",
                  "display": "PROBLEM LIST",
                  "system": "http://loinc.org"
                }
              ]
            },
            "mode": "snapshot"
          },
          {
            "title": "PROCEDURES",
            "text": {
              "status": "generated",
              "div": "<div xmlns=\"http://www.w3.org/1999/xhtml\">PROCEDURES</div>"
            },
            "code": {
              "coding": [
                {
                  "code": "47519-4",
                  "display": "HISTORY OF PROCEDURES",
                  "system": "http://loinc.org"
                }
              ]
            },
            "mode": "snapshot"
          },
          {
            "title": "RESULTS",
            "text": {
              "status": "generated",
              "div": "<div xmlns=\"http://www.w3.org/1999/xhtml\">RESULTS</div>"
            },
            "code": {
              "coding": [
                {
                  "code": "30954-2",
                  "display": "RESULTS",
                  "system": "http://loinc.org"
                }
              ]
            },
            "mode": "snapshot"
          },
          {
            "title": "SOCIAL HISTORY",
            "text": {
              "status": "generated",
              "div": "<div xmlns=\"http://www.w3.org/1999/xhtml\">SOCIAL HISTORY</div>"
            },
            "code": {
              "coding": [
                {
                  "code": "29762-2",
                  "display": "Social History",
                  "system": "http://loinc.org"
                }
              ]
            },
            "mode": "snapshot"
          },
          {
            "title": "VITAL SIGNS",
            "text": {
              "status": "generated",
              "div": "<div xmlns=\"http://www.w3.org/1999/xhtml\">VITAL SIGNS</div>"
            },
            "code": {
              "coding": [
                {
                  "code": "8716-3",
                  "display": "VITAL SIGNS",
                  "system": "http://loinc.org"
                }
              ]
            },
            "mode": "snapshot"
          }
        ],
        "subject": {
          "reference": "Patient/aca97b95-3c1c-ce73-ac65-f520242997a9"
        },
        "custodian": {
          "reference": "Organization/63407f17-1d85-02ee-516d-1fc729e6eae9"
        },
        "author": [
          {
            "reference": "Practitioner/b0ac12ce-9e58-22b8-f79a-aba2409dac02"
          }
        ]
      },
      "request": {
        "method": "PUT",
        "url": "Composition/bd76febe-cc5e-47b4-46a8-7048efa8b753"
      }
    },
    {
      "fullUrl": "urn:uuid:b0ac12ce-9e58-22b8-f79a-aba2409dac02",
      "resource": {
        "resourceType": "Practitioner",
        "id": "b0ac12ce-9e58-22b8-f79a-aba2409dac02",
        "meta": {
          "profile": [
            "http://hl7.org/fhir/us/core/StructureDefinition/us-core-practitioner"
          ]
        },
        "identifier": [
          {
            "system": "http://hl7.org/fhir/sid/us-npi",
            "value": "5555555555"
          }
        ],
        "name": [
          {
            "family": "Primary",
            "given": [
              "Patricia",
              "Patty"
            ],
            "suffix": [
              "M.D."
            ]
          }
        ],
        "address": [
          {
            "line": [
              "1004 Healthcare Drive "
            ],
            "city": "Portland",
            "state": "OR",
            "country": "US",
            "postalCode": "99123"
          }
        ],
        "telecom": [
          {
            "system": "phone",
            "value": "+1(555)555-1004",
            "use": "work"
          }
        ],
        "qualification": [
          {
            "code": {
              "coding": [
                {
                  "code": "207QA0505X",
                  "display": "Adult Medicine",
                  "system": "http://nucc.org/provider-taxonomy"
                }
              ]
            }
          }
        ]
      },
      "request": {
        "method": "PUT",
        "url": "Practitioner/b0ac12ce-9e58-22b8-f79a-aba2409dac02"
      }
    },
    {
      "fullUrl": "urn:uuid:63407f17-1d85-02ee-516d-1fc729e6eae9",
      "resource": {
        "resourceType": "Organization",
        "id": "63407f17-1d85-02ee-516d-1fc729e6eae9",
        "identifier": [
          {
            "system": "http://hl7.org/fhir/sid/us-npi",
            "value": "321CX"
          }
        ],
        "name": "Good Health HIE",
        "address": [
          {
            "use": "work",
            "line": [
              "1009 Healthcare Drive "
            ],
            "city": "Portland",
            "state": "OR",
            "country": "US",
            "postalCode": "99123"
          }
        ],
        "telecom": [
          {
            "system": "phone",
            "value": "+1(555)555-1009",
            "use": "work"
          }
        ]
      },
      "request": {
        "method": "PUT",
        "url": "Organization/63407f17-1d85-02ee-516d-1fc729e6eae9"
      }
    },
    {
      "fullUrl": "urn:uuid:aca97b95-3c1c-ce73-ac65-f520242997a9",
      "resource": {
        "resourceType": "Patient",
        "id": "aca97b95-3c1c-ce73-ac65-f520242997a9",
        "meta": {
          "profile": [
            "http://hl7.org/fhir/us/core/StructureDefinition/us-core-patient"
          ]
        },
        "identifier": [
          {
            "system": "http://hl7.org/fhir/sid/us-ssn",
            "value": "444222222"
          }
        ],
        "name": [
          {
            "use": "usual",
            "family": "Betterhalf",
            "given": [
              "Eve"
            ]
          }
        ],
        "birthDate": "1975-05-01",
        "gender": "female",
        "extension": [
          {
            "url": "http://hl7.org/fhir/us/core/StructureDefinition/us-core-race",
            "extension": [
              {
                "url": "ombCategory",
                "valueCoding": {
                  "code": "2106-3",
                  "display": "White",
                  "system": "urn:oid:2.16.840.1.113883.6.238"
                }
              },
              {
                "url": "ombCategory",
                "valueCoding": {
                  "code": "2076-8",
                  "display": "Hawaiian or Other Pacific Islander",
                  "system": "urn:oid:2.16.840.1.113883.6.238"
                }
              },
              {
                "url": "text",
                "valueString": "Mixed"
              }
            ]
          },
          {
            "url": "http://hl7.org/fhir/us/core/StructureDefinition/us-core-ethnicity",
            "extension": [
              {
                "url": "ombCategory",
                "valueCoding": {
                  "code": "2186-5",
                  "display": "Not Hispanic or Latino",
                  "system": "urn:oid:2.16.840.1.113883.6.238"
                }
              },
              {
                "url": "text",
                "valueString": "Not Hispanic or Latino"
              }
            ]
          }
        ],
        "address": [
          {
            "use": "home",
            "line": [
              "2222 Home Street"
            ],
            "city": "Beaverton",
            "state": "OR",
            "country": "US",
            "postalCode": "97867"
          }
        ],
        "telecom": [
          {
            "system": "phone",
            "value": "+1(555)555-2003",
            "use": "home"
          }
        ],
        "communication": [
          {
            "language": {
              "coding": [
                {
                  "system": "urn:ietf:bcp:47",
                  "code": "en",
                  "display": "English"
                }
              ]
            },
            "preferred": "true"
          }
        ]
      },
      "request": {
        "method": "PUT",
        "url": "Patient/aca97b95-3c1c-ce73-ac65-f520242997a9"
      }
    },
    {
      "fullUrl": "urn:uuid:1e516bfc-532c-65a4-45e2-e8536f0eb630",
      "resource": {
        "resourceType": "RelatedPerson",
        "id": "1e516bfc-532c-65a4-45e2-e8536f0eb630",
        "relationship": [
          {
            "coding": [
              {
                "code": "POWATT",
                "display": "Power of Attorney",
                "system": "urn:oid:2.16.840.1.113883.1.11.19830"
              }
            ]
          }
        ],
        "name": [
          {
            "family": "Betterhalf",
            "given": [
              "Boris",
              "Bo"
            ]
          }
        ],
        "telecom": [
          {
            "system": "phone",
            "value": "+1(555)555-2008",
            "use": "mobile"
          }
        ],
        "address": [
          {
            "use": "home",
            "line": [
              "2222 Home Street"
            ],
            "city": "Beaverton",
            "state": "OR",
            "country": "US",
            "postalCode": "97867"
          }
        ],
        "patient": {
          "reference": "Patient/aca97b95-3c1c-ce73-ac65-f520242997a9"
        }
      },
      "request": {
        "method": "PUT",
        "url": "RelatedPerson/1e516bfc-532c-65a4-45e2-e8536f0eb630"
      }
    },
    {
      "fullUrl": "urn:uuid:a956135e-a0d9-7ffa-39fa-e8116640b0d0",
      "resource": {
        "resourceType": "AllergyIntolerance",
        "id": "a956135e-a0d9-7ffa-39fa-e8116640b0d0",
        "identifier": [
          {
            "system": "urn:ietf:rfc:3986",
            "value": "urn:uuid:4adc1020-7b14-11db-9fe1-0800200c9a66"
          }
        ],
        "clinicalStatus": {
          "coding": [
            {
              "system": "http://terminology.hl7.org/CodeSystem/allergyintolerance-clinical",
              "code": "active"
            }
          ]
        },
        "reaction": [
          {
            "substance": {
              "coding": [
                {
                  "code": "70618",
                  "display": "Penicillin",
                  "system": "http://www.nlm.nih.gov/research/umls/rxnorm"
                }
              ]
            },
            "manifestation": [
              {
                "coding": [
                  {
                    "code": "422587007",
                    "display": "Nausea",
                    "system": "http://snomed.info/sct"
                  }
                ]
              }
            ],
            "severity": "Nausea",
            "onset": "2008-02-27T00:05:00+08:00"
          }
        ],
        "onsetDateTime": "1998-05-01",
        "patient": {
          "reference": "Patient/aca97b95-3c1c-ce73-ac65-f520242997a9"
        }
      },
      "request": {
        "method": "PUT",
        "url": "AllergyIntolerance/a956135e-a0d9-7ffa-39fa-e8116640b0d0"
      }
    },
    {
      "fullUrl": "urn:uuid:472ec587-c61b-99ed-e1ac-400d6d6a5f9b",
      "resource": {
        "resourceType": "AllergyIntolerance",
        "id": "472ec587-c61b-99ed-e1ac-400d6d6a5f9b",
        "identifier": [
          {
            "system": "urn:ietf:rfc:3986",
            "value": "urn:uuid:901db0f8-9355-4794-81cd-fd951ef07917"
          }
        ],
        "clinicalStatus": {
          "coding": [
            {
              "system": "http://terminology.hl7.org/CodeSystem/allergyintolerance-clinical",
              "code": "active"
            }
          ]
        },
        "reaction": [
          {
            "substance": {
              "coding": [
                {
                  "code": "2670",
                  "display": "Codeine",
                  "system": "http://www.nlm.nih.gov/research/umls/rxnorm"
                }
              ]
            },
            "manifestation": [
              {
                "coding": [
                  {
                    "code": "255604002",
                    "display": "Mild",
                    "system": "http://snomed.info/sct"
                  }
                ]
              }
            ],
            "severity": "Mild"
          }
        ],
        "patient": {
          "reference": "Patient/aca97b95-3c1c-ce73-ac65-f520242997a9"
        }
      },
      "request": {
        "method": "PUT",
        "url": "AllergyIntolerance/472ec587-c61b-99ed-e1ac-400d6d6a5f9b"
      }
    },
    {
      "fullUrl": "urn:uuid:645a6a00-d6d2-5475-8b1f-3e682ab84745",
      "resource": {
        "resourceType": "MedicationStatement",
        "id": "645a6a00-d6d2-5475-8b1f-3e682ab84745",
        "identifier": [
          {
            "system": "urn:ietf:rfc:3986",
            "value": "urn:uuid:cdbd33f0-6cde-11db-9fe1-0800200c9a66"
          }
        ],
        "dosage": [
          {
            "doseAndRate": [
              {
                "doseQuantity": {
                  "value": "2"
                }
              }
            ]
          }
        ],
        "subject": {
          "reference": "Patient/aca97b95-3c1c-ce73-ac65-f520242997a9"
        },
        "medicationReference": {
          "reference": "Medication/24fc2162-97d1-b8b5-b8ab-39a9cd87d621"
        }
      },
      "request": {
        "method": "PUT",
        "url": "MedicationStatement/645a6a00-d6d2-5475-8b1f-3e682ab84745"
      }
    },
    {
      "fullUrl": "urn:uuid:24fc2162-97d1-b8b5-b8ab-39a9cd87d621",
      "resource": {
        "resourceType": "Medication",
        "id": "24fc2162-97d1-b8b5-b8ab-39a9cd87d621",
        "code": {
          "coding": [
            {
              "code": "573621",
              "display": "Proventil 0.09 MG/ACTUAT inhalant solution",
              "system": "http://www.nlm.nih.gov/research/umls/rxnorm"
            }
          ]
        }
      },
      "request": {
        "method": "PUT",
        "url": "Medication/24fc2162-97d1-b8b5-b8ab-39a9cd87d621"
      }
    },
    {
      "fullUrl": "urn:uuid:d6e30559-8118-1ff6-ee4d-38034187bb8f",
      "resource": {
        "resourceType": "MedicationRequest",
        "id": "d6e30559-8118-1ff6-ee4d-38034187bb8f",
        "intent": "order",
        "status": "completed",
        "subject": {
          "reference": "Patient/aca97b95-3c1c-ce73-ac65-f520242997a9"
        },
        "medicationReference": {
          "reference": "Medication/24fc2162-97d1-b8b5-b8ab-39a9cd87d621"
        },
        "requester": {
          "reference": "Practitioner/b0ac12ce-9e58-22b8-f79a-aba2409dac02"
        }
      },
      "request": {
        "method": "PUT",
        "url": "MedicationRequest/d6e30559-8118-1ff6-ee4d-38034187bb8f"
      }
    },
    {
      "fullUrl": "urn:uuid:ee69cedd-b031-c4b4-f0cd-0db266dd89b3",
      "resource": {
        "resourceType": "MedicationRequest",
        "id": "ee69cedd-b031-c4b4-f0cd-0db266dd89b3",
        "identifier": [
          {
            "system": "urn:oid:1.2.3.4.56789.1",
            "value": "cb734647-fc99-424c-a864-7e3cda82e704"
          }
        ],
        "intent": "order",
        "status": "completed",
        "subject": {
          "reference": "Patient/aca97b95-3c1c-ce73-ac65-f520242997a9"
        },
        "medicationReference": {
          "reference": "Medication/24fc2162-97d1-b8b5-b8ab-39a9cd87d621"
        }
      },
      "request": {
        "method": "PUT",
        "url": "MedicationRequest/ee69cedd-b031-c4b4-f0cd-0db266dd89b3"
      }
    },
    {
      "fullUrl": "urn:uuid:b7bf5e52-57b0-08be-82bf-cac3be34019d",
      "resource": {
        "resourceType": "MedicationStatement",
        "id": "b7bf5e52-57b0-08be-82bf-cac3be34019d",
        "identifier": [
          {
            "system": "urn:ietf:rfc:3986",
            "value": "urn:uuid:6c844c75-aa34-411c-b7bd-5e4a9f206e29"
          }
        ],
        "dosage": [
          {
            "doseAndRate": [
              {
                "doseQuantity": {
                  "value": "1"
                }
              }
            ]
          }
        ],
        "subject": {
          "reference": "Patient/aca97b95-3c1c-ce73-ac65-f520242997a9"
        },
        "medicationReference": {
          "reference": "Medication/092be6cb-127b-02a1-f7b1-ce1d289f9368"
        }
      },
      "request": {
        "method": "PUT",
        "url": "MedicationStatement/b7bf5e52-57b0-08be-82bf-cac3be34019d"
      }
    },
    {
      "fullUrl": "urn:uuid:092be6cb-127b-02a1-f7b1-ce1d289f9368",
      "resource": {
        "resourceType": "Medication",
        "id": "092be6cb-127b-02a1-f7b1-ce1d289f9368",
        "code": {
          "coding": [
            {
              "code": "197380",
              "display": "Atenolol 25 MG Oral Tablet",
              "system": "http://www.nlm.nih.gov/research/umls/rxnorm"
            }
          ]
        }
      },
      "request": {
        "method": "PUT",
        "url": "Medication/092be6cb-127b-02a1-f7b1-ce1d289f9368"
      }
    },
    {
      "fullUrl": "urn:uuid:c4760c6c-9c3c-06ec-353e-548868f4cc98",
      "resource": {
        "resourceType": "Condition",
        "id": "c4760c6c-9c3c-06ec-353e-548868f4cc98",
        "identifier": [
          {
            "system": "urn:ietf:rfc:3986",
            "value": "urn:uuid:ab1791b0-5c71-11db-b0de-0800200c9a66"
          }
        ],
        "code": {
          "coding": [
            {
              "code": "233604007",
              "display": "Pneumonia",
              "system": "http://snomed.info/sct"
            }
          ]
        },
        "onsetDateTime": "2013-07-03",
        "subject": {
          "reference": "Patient/aca97b95-3c1c-ce73-ac65-f520242997a9"
        }
      },
      "request": {
        "method": "PUT",
        "url": "Condition/c4760c6c-9c3c-06ec-353e-548868f4cc98"
      }
    },
    {
      "fullUrl": "urn:uuid:97d9f3c7-76d1-be6a-c24f-e0400049db1b",
      "resource": {
        "resourceType": "Condition",
        "id": "97d9f3c7-76d1-be6a-c24f-e0400049db1b",
        "identifier": [
          {
            "system": "urn:ietf:rfc:3986",
            "value": "urn:uuid:11d088a8-b957-401c-8ee0-3bd20a772fc0"
          }
        ],
        "code": {
          "coding": [
            {
              "code": "29857009",
              "display": "Chest pain",
              "system": "http://snomed.info/sct"
            }
          ]
        },
        "onsetDateTime": "2007-04-14",
        "subject": {
          "reference": "Patient/aca97b95-3c1c-ce73-ac65-f520242997a9"
        }
      },
      "request": {
        "method": "PUT",
        "url": "Condition/97d9f3c7-76d1-be6a-c24f-e0400049db1b"
      }
    },
    {
      "fullUrl": "urn:uuid:8077bb92-0b62-cb0f-5ef9-9b396aada379",
      "resource": {
        "resourceType": "Condition",
        "id": "8077bb92-0b62-cb0f-5ef9-9b396aada379",
        "identifier": [
          {
            "system": "urn:ietf:rfc:3986",
            "value": "urn:uuid:4991db40-4c4f-41e8-9146-50c12d716424"
          }
        ],
        "code": {
          "coding": [
            {
              "code": "194828000",
              "display": "Angina",
              "system": "http://snomed.info/sct"
            }
          ]
        },
        "onsetDateTime": "2007-04-17",
        "subject": {
          "reference": "Patient/aca97b95-3c1c-ce73-ac65-f520242997a9"
        }
      },
      "request": {
        "method": "PUT",
        "url": "Condition/8077bb92-0b62-cb0f-5ef9-9b396aada379"
      }
    },
    {
      "fullUrl": "urn:uuid:163a1e81-9f38-df48-eef3-9553705117bb",
      "resource": {
        "resourceType": "Condition",
        "id": "163a1e81-9f38-df48-eef3-9553705117bb",
        "identifier": [
          {
            "system": "urn:ietf:rfc:3986",
            "value": "urn:uuid:10506b4d-c30a-4220-8bec-97bff9568fd1"
          }
        ],
        "code": {
          "coding": [
            {
              "code": "233604007",
              "display": "Pneumonia",
              "system": "http://snomed.info/sct"
            }
          ]
        },
        "onsetDateTime": "1998-03-10",
        "subject": {
          "reference": "Patient/aca97b95-3c1c-ce73-ac65-f520242997a9"
        }
      },
      "request": {
        "method": "PUT",
        "url": "Condition/163a1e81-9f38-df48-eef3-9553705117bb"
      }
    },
    {
      "fullUrl": "urn:uuid:277f4e89-11b9-53c4-5367-fe6b402a4c34",
      "resource": {
        "resourceType": "DiagnosticReport",
        "id": "277f4e89-11b9-53c4-5367-fe6b402a4c34",
        "identifier": [
          {
            "system": "urn:ietf:rfc:3986",
            "value": "urn:uuid:7d5a02b0-67a4-11db-bd13-0800200c9a66"
          }
        ],
        "status": "final",
        "code": {
          "coding": [
            {
              "code": "57021-8",
              "display": "CBC W Auto Differential panel in Blood",
              "system": "http://loinc.org"
            }
          ]
        },
        "effectivePeriod": {
          "start": "2008-03-20T00:30:00+08:00",
          "end": "2008-03-20T00:30:00+08:00"
        },
        "subject": {
          "reference": "Patient/aca97b95-3c1c-ce73-ac65-f520242997a9"
        },
        "result": [
          {
            "reference": "Observation/eb4ec292-00c7-9a02-09b7-69e980dafd83"
          },
          {
            "reference": "Observation/91793394-4e7a-b396-6268-619dc0869bed"
          },
          {
            "reference": "Observation/9bab4c76-9698-d274-0cfa-115eafc08658"
          },
          {
            "reference": "Observation/176ead30-883e-9b8a-b21e-336e4992a714"
          },
          {
            "reference": "Observation/a3cae148-2861-ce60-664f-758cf0c52887"
          }
        ]
      },
      "request": {
        "method": "PUT",
        "url": "DiagnosticReport/277f4e89-11b9-53c4-5367-fe6b402a4c34"
      }
    },
    {
      "fullUrl": "urn:uuid:eb4ec292-00c7-9a02-09b7-69e980dafd83",
      "resource": {
        "resourceType": "Observation",
        "id": "eb4ec292-00c7-9a02-09b7-69e980dafd83",
        "meta": {
          "profile": [
            "http://hl7.org/fhir/us/core/StructureDefinition/us-core-observationresults"
          ]
        },
        "identifier": [
          {
            "system": "urn:ietf:rfc:3986",
            "value": "urn:uuid:107c2dc0-67a5-11db-bd13-0800200c9a66"
          }
        ],
        "category": [
          {
            "coding": [
              {
                "system": "http://terminology.hl7.org/CodeSystem/observation-category",
                "code": "laboratory"
              }
            ]
          }
        ],
        "status": "final",
        "code": {
          "coding": [
            {
              "code": "718-7",
              "display": "Hemoglobin",
              "system": "http://loinc.org"
            }
          ]
        },
        "effectiveDateTime": "2008-03-20T00:30:00+08:00",
        "valueQuantity": {
          "value": "13.2",
          "unit": "g/dL"
        },
        "referenceRange": [
          {
            "low": {
              "value": "12.0",
              "unit": "g/dL"
            },
            "high": {
              "value": "15.5",
              "unit": "g/dL"
            }
          }
        ],
        "interpretation": [
          {
            "coding": [
              {
                "code": "N",
                "system": "http://terminology.hl7.org/CodeSystem/v3-ObservationInterpretation"
              }
            ]
          }
        ],
        "subject": {
          "reference": "Patient/aca97b95-3c1c-ce73-ac65-f520242997a9"
        }
      },
      "request": {
        "method": "PUT",
        "url": "Observation/eb4ec292-00c7-9a02-09b7-69e980dafd83"
      }
    },
    {
      "fullUrl": "urn:uuid:91793394-4e7a-b396-6268-619dc0869bed",
      "resource": {
        "resourceType": "Observation",
        "id": "91793394-4e7a-b396-6268-619dc0869bed",
        "meta": {
          "profile": [
            "http://hl7.org/fhir/us/core/StructureDefinition/us-core-observationresults"
          ]
        },
        "identifier": [
          {
            "system": "urn:ietf:rfc:3986",
            "value": "urn:uuid:a69b3d60-2ffd-4440-958b-72b3335ff35f"
          }
        ],
        "category": [
          {
            "coding": [
              {
                "system": "http://terminology.hl7.org/CodeSystem/observation-category",
                "code": "laboratory"
              }
            ]
          }
        ],
        "status": "final",
        "code": {
          "coding": [
            {
              "code": "6690-2",
              "display": "Leukocytes",
              "system": "http://loinc.org"
            }
          ]
        },
        "effectiveDateTime": "2008-03-20T00:30:00+08:00",
        "valueQuantity": {
          "value": "6.7",
          "unit": "10*9/L"
        },
        "referenceRange": [
          {
            "low": {
              "value": "4.3",
              "unit": "10*9/L"
            },
            "high": {
              "value": "10.8",
              "unit": "10*9/L"
            }
          }
        ],
        "interpretation": [
          {
            "coding": [
              {
                "code": "N",
                "system": "http://terminology.hl7.org/CodeSystem/v3-ObservationInterpretation"
              }
            ]
          }
        ],
        "subject": {
          "reference": "Patient/aca97b95-3c1c-ce73-ac65-f520242997a9"
        }
      },
      "request": {
        "method": "PUT",
        "url": "Observation/91793394-4e7a-b396-6268-619dc0869bed"
      }
    },
    {
      "fullUrl": "urn:uuid:9bab4c76-9698-d274-0cfa-115eafc08658",
      "resource": {
        "resourceType": "Observation",
        "id": "9bab4c76-9698-d274-0cfa-115eafc08658",
        "meta": {
          "profile": [
            "http://hl7.org/fhir/us/core/StructureDefinition/us-core-observationresults"
          ]
        },
        "identifier": [
          {
            "system": "urn:ietf:rfc:3986",
            "value": "urn:uuid:ef5c1c58-4665-4556-a8e8-6e720d82f572"
          }
        ],
        "category": [
          {
            "coding": [
              {
                "system": "http://terminology.hl7.org/CodeSystem/observation-category",
                "code": "laboratory"
              }
            ]
          }
        ],
        "status": "final",
        "code": {
          "coding": [
            {
              "code": "777-3",
              "display": "Platelets",
              "system": "http://loinc.org"
            }
          ]
        },
        "effectiveDateTime": "2008-03-20T00:30:00+08:00",
        "valueQuantity": {
          "value": "123",
          "unit": "10*9/L"
        },
        "referenceRange": [
          {
            "low": {
              "value": "150",
              "unit": "10*9/L"
            },
            "high": {
              "value": "350",
              "unit": "10*9/L"
            }
          }
        ],
        "interpretation": [
          {
            "coding": [
              {
                "code": "LX",
                "system": "http://terminology.hl7.org/CodeSystem/v3-ObservationInterpretation"
              }
            ]
          }
        ],
        "subject": {
          "reference": "Patient/aca97b95-3c1c-ce73-ac65-f520242997a9"
        }
      },
      "request": {
        "method": "PUT",
        "url": "Observation/9bab4c76-9698-d274-0cfa-115eafc08658"
      }
    },
    {
      "fullUrl": "urn:uuid:176ead30-883e-9b8a-b21e-336e4992a714",
      "resource": {
        "resourceType": "Observation",
        "id": "176ead30-883e-9b8a-b21e-336e4992a714",
        "meta": {
          "profile": [
            "http://hl7.org/fhir/us/core/StructureDefinition/us-core-observationresults"
          ]
        },
        "identifier": [
          {
            "system": "urn:ietf:rfc:3986",
            "value": "urn:uuid:7c0704bb-9c40-41b5-9c7d-26b2d59e234f"
          }
        ],
        "category": [
          {
            "coding": [
              {
                "system": "http://terminology.hl7.org/CodeSystem/observation-category",
                "code": "laboratory"
              }
            ]
          }
        ],
        "status": "final",
        "code": {
          "coding": [
            {
              "code": "4544-3",
              "display": "Hematocrit",
              "system": "http://loinc.org"
            }
          ]
        },
        "effectiveDateTime": "2008-03-20T00:30:00+08:00",
        "valueQuantity": {
          "value": "35.3",
          "unit": "%"
        },
        "referenceRange": [
          {
            "low": {
              "value": "34.9",
              "unit": "%"
            },
            "high": {
              "value": "44.5",
              "unit": "%"
            }
          }
        ],
        "interpretation": [
          {
            "coding": [
              {
                "code": "LX",
                "system": "http://terminology.hl7.org/CodeSystem/v3-ObservationInterpretation"
              }
            ]
          }
        ],
        "subject": {
          "reference": "Patient/aca97b95-3c1c-ce73-ac65-f520242997a9"
        }
      },
      "request": {
        "method": "PUT",
        "url": "Observation/176ead30-883e-9b8a-b21e-336e4992a714"
      }
    },
    {
      "fullUrl": "urn:uuid:a3cae148-2861-ce60-664f-758cf0c52887",
      "resource": {
        "resourceType": "Observation",
        "id": "a3cae148-2861-ce60-664f-758cf0c52887",
        "meta": {
          "profile": [
            "http://hl7.org/fhir/us/core/StructureDefinition/us-core-observationresults"
          ]
        },
        "identifier": [
          {
            "system": "urn:ietf:rfc:3986",
            "value": "urn:uuid:bccd6fc9-0c7f-455e-8616-923ed0d04d09"
          }
        ],
        "category": [
          {
            "coding": [
              {
                "system": "http://terminology.hl7.org/CodeSystem/observation-category",
                "code": "laboratory"
              }
            ]
          }
        ],
        "status": "final",
        "code": {
          "coding": [
            {
              "code": "789-8",
              "display": "Erythrocytes",
              "system": "http://loinc.org"
            }
          ]
        },
        "effectiveDateTime": "2008-03-20T00:30:00+08:00",
        "valueQuantity": {
          "value": "4.21",
          "unit": "10*12/L"
        },
        "referenceRange": [
          {
            "low": {
              "value": "3.90",
              "unit": "10*12/L"
            },
            "high": {
              "value": "5.03",
              "unit": "10*12/L"
            }
          }
        ],
        "interpretation": [
          {
            "coding": [
              {
                "code": "N",
                "system": "http://terminology.hl7.org/CodeSystem/v3-ObservationInterpretation"
              }
            ]
          }
        ],
        "subject": {
          "reference": "Patient/aca97b95-3c1c-ce73-ac65-f520242997a9"
        }
      },
      "request": {
        "method": "PUT",
        "url": "Observation/a3cae148-2861-ce60-664f-758cf0c52887"
      }
    },
    {
      "fullUrl": "urn:uuid:0ec66926-8900-c1a8-53f8-a2042638d2fd",
      "resource": {
        "resourceType": "DiagnosticReport",
        "id": "0ec66926-8900-c1a8-53f8-a2042638d2fd",
        "identifier": [
          {
            "system": "urn:ietf:rfc:3986",
            "value": "urn:uuid:122ed3ae-6d9e-43d0-bfa2-434ea34b1426"
          }
        ],
        "code": {
          "coding": [
            {
              "code": "166312007",
              "display": "Blood chemistry test",
              "system": "http://snomed.info/sct"
            }
          ]
        },
        "effectivePeriod": {
          "start": "2008-03-21T01:30:00+08:00",
          "end": "2008-03-21T01:30:00+08:00"
        },
        "subject": {
          "reference": "Patient/aca97b95-3c1c-ce73-ac65-f520242997a9"
        },
        "result": [
          {
            "reference": "Observation/14d2ade8-4788-a395-e12f-5fc978073b6c"
          }
        ]
      },
      "request": {
        "method": "PUT",
        "url": "DiagnosticReport/0ec66926-8900-c1a8-53f8-a2042638d2fd"
      }
    },
    {
      "fullUrl": "urn:uuid:14d2ade8-4788-a395-e12f-5fc978073b6c",
      "resource": {
        "resourceType": "Observation",
        "id": "14d2ade8-4788-a395-e12f-5fc978073b6c",
        "meta": {
          "profile": [
            "http://hl7.org/fhir/us/core/StructureDefinition/us-core-observationresults"
          ]
        },
        "identifier": [
          {
            "system": "urn:ietf:rfc:3986",
            "value": "urn:uuid:aed821af-3330-4138-97f0-e84dfe5f3c35"
          }
        ],
        "category": [
          {
            "coding": [
              {
                "system": "http://terminology.hl7.org/CodeSystem/observation-category",
                "code": "laboratory"
              }
            ]
          }
        ],
        "code": {
          "coding": [
            {
              "code": "3094-0",
              "display": "Urea nitrogen, Serum",
              "system": "http://loinc.org"
            }
          ]
        },
        "effectiveDateTime": "2008-03-21T01:30:00+08:00",
        "subject": {
          "reference": "Patient/aca97b95-3c1c-ce73-ac65-f520242997a9"
        }
      },
      "request": {
        "method": "PUT",
        "url": "Observation/14d2ade8-4788-a395-e12f-5fc978073b6c"
      }
    },
    {
      "fullUrl": "urn:uuid:93df79b5-aba0-d25b-43e4-5a203cc30fb1",
      "resource": {
        "resourceType": "Observation",
        "id": "93df79b5-aba0-d25b-43e4-5a203cc30fb1",
        "meta": {
          "profile": [
            "http://hl7.org/fhir/us/core/StructureDefinition/us-core-observationresults"
          ]
        },
        "identifier": [
          {
            "system": "urn:oid:2.16.840.1.113883.19",
            "value": "123456789"
          }
        ],
        "category": [
          {
            "coding": [
              {
                "system": "http://terminology.hl7.org/CodeSystem/observation-category",
                "code": "social-history"
              }
            ]
          }
        ],
        "status": "final",
        "code": {
          "coding": [
            {
              "code": "72166-2",
              "display": "Tobacco smoking status NHIS",
              "system": "http://loinc.org"
            }
          ]
        },
        "effectiveDateTime": "2012-09-10",
        "valueCodeableConcept": {
          "coding": [
            {
              "code": "8517006",
              "display": "Former smoker",
              "system": "http://snomed.info/sct"
            }
          ]
        },
        "subject": {
          "reference": "Patient/aca97b95-3c1c-ce73-ac65-f520242997a9"
        }
      },
      "request": {
        "method": "PUT",
        "url": "Observation/93df79b5-aba0-d25b-43e4-5a203cc30fb1"
      }
    },
    {
      "fullUrl": "urn:uuid:06c3a616-9146-d982-b7ca-d3871ef981b9",
      "resource": {
        "resourceType": "Observation",
        "id": "06c3a616-9146-d982-b7ca-d3871ef981b9",
        "meta": {
          "profile": [
            "http://hl7.org/fhir/us/core/StructureDefinition/us-core-observationresults"
          ]
        },
        "identifier": [
          {
            "system": "urn:ietf:rfc:3986",
            "value": "urn:uuid:45efb604-7049-4a2e-ad33-d38556c9636c"
          }
        ],
        "category": [
          {
            "coding": [
              {
                "system": "http://terminology.hl7.org/CodeSystem/observation-category",
                "code": "social-history"
              }
            ]
          }
        ],
        "status": "final",
        "code": {
          "coding": [
            {
              "code": "11367-0",
              "display": "History of tobacco use",
              "system": "http://loinc.org"
            }
          ]
        },
        "effectivePeriod": {
          "start": "2009-02-14",
          "end": "2011-02-15"
        },
        "valueCodeableConcept": {
          "coding": [
            {
              "code": "160604004",
              "display": "Moderate cigarette smoker, 10-19/day",
              "system": "http://snomed.info/sct"
            }
          ]
        },
        "subject": {
          "reference": "Patient/aca97b95-3c1c-ce73-ac65-f520242997a9"
        }
      },
      "request": {
        "method": "PUT",
        "url": "Observation/06c3a616-9146-d982-b7ca-d3871ef981b9"
      }
    },
    {
      "fullUrl": "urn:uuid:8125b77f-4826-51f7-22dd-0458e27ccf9e",
      "resource": {
        "resourceType": "Observation",
        "id": "8125b77f-4826-51f7-22dd-0458e27ccf9e",
        "meta": {
          "profile": [
            "http://hl7.org/fhir/us/core/StructureDefinition/us-core-observationresults"
          ]
        },
        "identifier": [
          {
            "system": "urn:ietf:rfc:3986",
            "value": "urn:uuid:37f76c51-6411-4e1d-8a37-957fd49d2cef"
          }
        ],
        "category": [
          {
            "coding": [
              {
                "system": "http://terminology.hl7.org/CodeSystem/observation-category",
                "code": "social-history"
              }
            ]
          }
        ],
        "status": "final",
        "code": {
          "coding": [
            {
              "code": "74013-4",
              "display": "Alcoholic drinks per day",
              "system": "http://loinc.org"
            }
          ]
        },
        "effectivePeriod": {
          "start": "2012-02-15"
        },
        "valueQuantity": {
          "value": "12"
        },
        "subject": {
          "reference": "Patient/aca97b95-3c1c-ce73-ac65-f520242997a9"
        }
      },
      "request": {
        "method": "PUT",
        "url": "Observation/8125b77f-4826-51f7-22dd-0458e27ccf9e"
      }
    },
    {
      "fullUrl": "urn:uuid:727f3ab9-74ee-3e0b-d403-13310567ced5",
      "resource": {
        "resourceType": "Observation",
        "id": "727f3ab9-74ee-3e0b-d403-13310567ced5",
        "meta": {
          "profile": [
            "http://hl7.org/fhir/us/core/StructureDefinition/us-core-observationresults"
          ]
        },
        "identifier": [
          {
            "system": "urn:ietf:rfc:3986",
            "value": "urn:uuid:ed9589fd-fda0-41f7-a3d0-dc537554f5c2"
          }
        ],
        "category": [
          {
            "coding": [
              {
                "system": "http://terminology.hl7.org/CodeSystem/observation-category",
                "code": "vital-signs"
              }
            ]
          }
        ],
        "status": "final",
        "code": {
          "coding": [
            {
              "code": "8302-2",
              "display": "Height",
              "system": "http://loinc.org"
            }
          ]
        },
        "effectiveDateTime": "2012-09-10",
        "valueQuantity": {
          "value": "177",
          "unit": "cm"
        },
        "interpretation": [
          {
            "coding": [
              {
                "code": "N",
                "system": "http://terminology.hl7.org/CodeSystem/v3-ObservationInterpretation"
              }
            ]
          }
        ],
        "subject": {
          "reference": "Patient/aca97b95-3c1c-ce73-ac65-f520242997a9"
        }
      },
      "request": {
        "method": "PUT",
        "url": "Observation/727f3ab9-74ee-3e0b-d403-13310567ced5"
      }
    },
    {
      "fullUrl": "urn:uuid:e394ff0e-9112-a813-2423-af4019c50bd8",
      "resource": {
        "resourceType": "Observation",
        "id": "e394ff0e-9112-a813-2423-af4019c50bd8",
        "meta": {
          "profile": [
            "http://hl7.org/fhir/us/core/StructureDefinition/us-core-observationresults"
          ]
        },
        "identifier": [
          {
            "system": "urn:ietf:rfc:3986",
            "value": "urn:uuid:f4e729e2-a97f-4a7e-8e23-c92f9b6b55cf"
          }
        ],
        "category": [
          {
            "coding": [
              {
                "system": "http://terminology.hl7.org/CodeSystem/observation-category",
                "code": "vital-signs"
              }
            ]
          }
        ],
        "status": "final",
        "code": {
          "coding": [
            {
              "code": "3141-9",
              "display": "Patient Body Weight - Measured",
              "system": "http://loinc.org"
            }
          ]
        },
        "effectiveDateTime": "2012-09-10",
        "valueQuantity": {
          "value": "86",
          "unit": "kg"
        },
        "interpretation": [
          {
            "coding": [
              {
                "code": "N",
                "system": "http://terminology.hl7.org/CodeSystem/v3-ObservationInterpretation"
              }
            ]
          }
        ],
        "subject": {
          "reference": "Patient/aca97b95-3c1c-ce73-ac65-f520242997a9"
        }
      },
      "request": {
        "method": "PUT",
        "url": "Observation/e394ff0e-9112-a813-2423-af4019c50bd8"
      }
    },
    {
      "fullUrl": "urn:uuid:3acfc8ef-1617-9bc4-74cc-0e602b3c4fe8",
      "resource": {
        "resourceType": "Observation",
        "id": "3acfc8ef-1617-9bc4-74cc-0e602b3c4fe8",
        "meta": {
          "profile": [
            "http://hl7.org/fhir/us/core/StructureDefinition/us-core-observationresults"
          ]
        },
        "identifier": [
          {
            "system": "urn:ietf:rfc:3986",
            "value": "urn:uuid:a0e39c70-9674-4b2a-9837-cdf74200d8d5"
          }
        ],
        "category": [
          {
            "coding": [
              {
                "system": "http://terminology.hl7.org/CodeSystem/observation-category",
                "code": "vital-signs"
              }
            ]
          }
        ],
        "status": "final",
        "code": {
          "coding": [
            {
              "code": "8480-6",
              "display": "Intravascular Systolic",
              "system": "http://loinc.org"
            }
          ]
        },
        "effectiveDateTime": "2012-09-10",
        "valueQuantity": {
          "value": "132",
          "unit": "mm[Hg]"
        },
        "interpretation": [
          {
            "coding": [
              {
                "code": "N",
                "system": "http://terminology.hl7.org/CodeSystem/v3-ObservationInterpretation"
              }
            ]
          }
        ],
        "subject": {
          "reference": "Patient/aca97b95-3c1c-ce73-ac65-f520242997a9"
        }
      },
      "request": {
        "method": "PUT",
        "url": "Observation/3acfc8ef-1617-9bc4-74cc-0e602b3c4fe8"
      }
    },
    {
      "fullUrl": "urn:uuid:52bf4c6b-5531-cab1-a440-87302feaa219",
      "resource": {
        "resourceType": "Observation",
        "id": "52bf4c6b-5531-cab1-a440-87302feaa219",
        "meta": {
          "profile": [
            "http://hl7.org/fhir/us/core/StructureDefinition/us-core-observationresults"
          ]
        },
        "identifier": [
          {
            "system": "urn:ietf:rfc:3986",
            "value": "urn:uuid:1c2748b7-e440-41ba-bc01-dde97d84a036"
          }
        ],
        "category": [
          {
            "coding": [
              {
                "system": "http://terminology.hl7.org/CodeSystem/observation-category",
                "code": "vital-signs"
              }
            ]
          }
        ],
        "status": "final",
        "code": {
          "coding": [
            {
              "code": "8462-4",
              "display": "BP Diastolic",
              "system": "http://loinc.org"
            }
          ]
        },
        "effectiveDateTime": "2012-09-10",
        "valueQuantity": {
          "value": "88",
          "unit": "mm[Hg]"
        },
        "interpretation": [
          {
            "coding": [
              {
                "code": "N",
                "system": "http://terminology.hl7.org/CodeSystem/v3-ObservationInterpretation"
              }
            ]
          }
        ],
        "subject": {
          "reference": "Patient/aca97b95-3c1c-ce73-ac65-f520242997a9"
        }
      },
      "request": {
        "method": "PUT",
        "url": "Observation/52bf4c6b-5531-cab1-a440-87302feaa219"
      }
    },
    {
      "fullUrl": "urn:uuid:5296ab05-6a75-e102-9814-e6d8a90fdbdf",
      "resource": {
        "resourceType": "Observation",
        "id": "5296ab05-6a75-e102-9814-e6d8a90fdbdf",
        "meta": {
          "profile": [
            "http://hl7.org/fhir/us/core/StructureDefinition/us-core-observationresults"
          ]
        },
        "identifier": [
          {
            "system": "urn:ietf:rfc:3986",
            "value": "urn:uuid:05c047cd-28c3-41cd-be6c-56f8cc0c3f2f"
          }
        ],
        "category": [
          {
            "coding": [
              {
                "system": "http://terminology.hl7.org/CodeSystem/observation-category",
                "code": "vital-signs"
              }
            ]
          }
        ],
        "status": "final",
        "code": {
          "coding": [
            {
              "code": "8302-2",
              "display": "Height",
              "system": "http://loinc.org"
            }
          ]
        },
        "effectiveDateTime": "2011-09-01",
        "valueQuantity": {
          "value": "177",
          "unit": "cm"
        },
        "interpretation": [
          {
            "coding": [
              {
                "code": "N",
                "system": "http://terminology.hl7.org/CodeSystem/v3-ObservationInterpretation"
              }
            ]
          }
        ],
        "subject": {
          "reference": "Patient/aca97b95-3c1c-ce73-ac65-f520242997a9"
        }
      },
      "request": {
        "method": "PUT",
        "url": "Observation/5296ab05-6a75-e102-9814-e6d8a90fdbdf"
      }
    },
    {
      "fullUrl": "urn:uuid:33e54f57-b8f0-0fac-0107-732449ba4257",
      "resource": {
        "resourceType": "Observation",
        "id": "33e54f57-b8f0-0fac-0107-732449ba4257",
        "meta": {
          "profile": [
            "http://hl7.org/fhir/us/core/StructureDefinition/us-core-observationresults"
          ]
        },
        "identifier": [
          {
            "system": "urn:ietf:rfc:3986",
            "value": "urn:uuid:21b0f3d5-7d07-4f4f-ad7e-c33dc2ca3835"
          }
        ],
        "category": [
          {
            "coding": [
              {
                "system": "http://terminology.hl7.org/CodeSystem/observation-category",
                "code": "vital-signs"
              }
            ]
          }
        ],
        "status": "final",
        "code": {
          "coding": [
            {
              "code": "3141-9",
              "display": "Patient Body Weight - Measured",
              "system": "http://loinc.org"
            }
          ]
        },
        "effectiveDateTime": "2011-09-01",
        "valueQuantity": {
          "value": "88",
          "unit": "kg"
        },
        "interpretation": [
          {
            "coding": [
              {
                "code": "N",
                "system": "http://terminology.hl7.org/CodeSystem/v3-ObservationInterpretation"
              }
            ]
          }
        ],
        "subject": {
          "reference": "Patient/aca97b95-3c1c-ce73-ac65-f520242997a9"
        }
      },
      "request": {
        "method": "PUT",
        "url": "Observation/33e54f57-b8f0-0fac-0107-732449ba4257"
      }
    },
    {
      "fullUrl": "urn:uuid:995292f0-5dfb-dd53-02a5-eb79c41ef521",
      "resource": {
        "resourceType": "Observation",
        "id": "995292f0-5dfb-dd53-02a5-eb79c41ef521",
        "meta": {
          "profile": [
            "http://hl7.org/fhir/us/core/StructureDefinition/us-core-observationresults"
          ]
        },
        "identifier": [
          {
            "system": "urn:ietf:rfc:3986",
            "value": "urn:uuid:b046c35a-59c7-4215-ae09-9a8409a30b21"
          }
        ],
        "category": [
          {
            "coding": [
              {
                "system": "http://terminology.hl7.org/CodeSystem/observation-category",
                "code": "vital-signs"
              }
            ]
          }
        ],
        "status": "final",
        "code": {
          "coding": [
            {
              "code": "8480-6",
              "display": "BP Systolic",
              "system": "http://loinc.org"
            }
          ]
        },
        "effectiveDateTime": "2011-09-01",
        "valueQuantity": {
          "value": "128",
          "unit": "mm[Hg]"
        },
        "interpretation": [
          {
            "coding": [
              {
                "code": "N",
                "system": "http://terminology.hl7.org/CodeSystem/v3-ObservationInterpretation"
              }
            ]
          }
        ],
        "subject": {
          "reference": "Patient/aca97b95-3c1c-ce73-ac65-f520242997a9"
        }
      },
      "request": {
        "method": "PUT",
        "url": "Observation/995292f0-5dfb-dd53-02a5-eb79c41ef521"
      }
    },
    {
      "fullUrl": "urn:uuid:eb96c437-9bf5-812c-05aa-4149da0f5b7b",
      "resource": {
        "resourceType": "Observation",
        "id": "eb96c437-9bf5-812c-05aa-4149da0f5b7b",
        "meta": {
          "profile": [
            "http://hl7.org/fhir/us/core/StructureDefinition/us-core-observationresults"
          ]
        },
        "identifier": [
          {
            "system": "urn:ietf:rfc:3986",
            "value": "urn:uuid:44f54e66-fb4b-4ee5-9ced-9574ef307a23"
          }
        ],
        "category": [
          {
            "coding": [
              {
                "system": "http://terminology.hl7.org/CodeSystem/observation-category",
                "code": "vital-signs"
              }
            ]
          }
        ],
        "status": "final",
        "code": {
          "coding": [
            {
              "code": "8462-4",
              "display": "BP Diastolic",
              "system": "http://loinc.org"
            }
          ]
        },
        "effectiveDateTime": "2011-09-01",
        "valueQuantity": {
          "value": "80",
          "unit": "mm[Hg]"
        },
        "interpretation": [
          {
            "coding": [
              {
                "code": "N",
                "system": "http://terminology.hl7.org/CodeSystem/v3-ObservationInterpretation"
              }
            ]
          }
        ],
        "subject": {
          "reference": "Patient/aca97b95-3c1c-ce73-ac65-f520242997a9"
        }
      },
      "request": {
        "method": "PUT",
        "url": "Observation/eb96c437-9bf5-812c-05aa-4149da0f5b7b"
      }
    },
    {
      "fullUrl": "urn:uuid:dea4254d-9e3d-cc2b-5008-447871e3f2eb",
      "resource": {
        "resourceType": "DocumentReference",
        "id": "dea4254d-9e3d-cc2b-5008-447871e3f2eb",
        "type": {
          "coding": [
            {
              "code": "34133-9",
              "display": "Summarization of Episode Note",
              "system": "http://loinc.org"
            }
          ]
        },
        "date": "2021-02-05T02:02:57.856Z",
        "status": "current",
        "content": [
          {
            "attachment": {
              "contentType": "text/plain",
              "data": "",
              "hash": "ODJmODdmNjVjZDIwMDhmZGJiMzVjYmY5NGQ5ZWRmNzQ0ZWJiOTY0Ng=="
            }
          }
        ]
      },
      "request": {
        "method": "PUT",
        "url": "DocumentReference/dea4254d-9e3d-cc2b-5008-447871e3f2eb"
      }
    }
  ]
}