{
  "resourceType": "Bundle",
  "type": "batch",
  "entry": [
    {
      "fullUrl": "urn:uuid:3af6bc53-6c60-64cf-443e-767266745c48",
      "resource": {
        "resourceType": "Composition",
        "id": "3af6bc53-6c60-64cf-443e-767266745c48",
        "identifier": {
          "use": "official",
          "value": "2.16.840.1.113883.19.5.99999.1"
        },
        "status": "final",
        "type": {
          "coding": [
            {
              "code": "11504-8",
              "display": "Surgical Operation Note",
              "system": "http://loinc.org"
            }
          ]
        },
        "date": "2012-09-16T19:10:00-04:00",
        "title": "Community Health and Hospitals: Operative Note",
        "confidentiality": "N",
        "attester": [
          {
            "mode": "legal",
            "time": "2009-02-27T13:00:00-05:00",
            "party": {
              "reference": "Practitioner/151bd63c-93e9-9838-dd94-f74d3b63be52"
            }
          }
        ],
        "event": [
          {
            "period": {
              "start": "2012-09-09T19:10:00-04:00",
              "end": "2012-09-16T19:10:00-04:00"
            }
          }
        ],
        "section": [
          {
            "title": "PROCEDURE ANESTHESIA",
            "text": {
              "status": "generated",
              "div": "<div xmlns=\"http://www.w3.org/1999/xhtml\">PROCEDURE ANESTHESIA</div>"
            },
            "code": {
              "coding": [
                {
                  "code": "59774-0",
                  "display": "PROCEDURE ANESTHESIA",
                  "system": "http://loinc.org"
                }
              ]
            },
            "mode": "snapshot"
          },
          {
            "title": "COMPLICATIONS",
            "text": {
              "status": "generated",
              "div": "<div xmlns=\"http://www.w3.org/1999/xhtml\">COMPLICATIONS</div>"
            },
            "code": {
              "coding": [
                {
                  "code": "55109-3",
                  "display": "Complications",
                  "system": "http://loinc.org"
                }
              ]
            },
            "mode": "snapshot"
          },
          {
            "title": "OPERATIVE NOTE FLUIDS",
            "text": {
              "status": "generated",
              "div": "<div xmlns=\"http://www.w3.org/1999/xhtml\">OPERATIVE NOTE FLUIDS</div>"
            },
            "code": {
              "coding": [
                {
                  "code": "10216-0",
                  "display": "SURGICAL OPERATION NOTE FLUIDS",
                  "system": "http://loinc.org"
                }
              ]
            },
            "mode": "snapshot"
          },
          {
            "title": "SURGICAL PROCEDURE",
            "text": {
              "status": "generated",
              "div": "<div xmlns=\"http://www.w3.org/1999/xhtml\">SURGICAL PROCEDURE</div>"
            },
            "code": {
              "coding": [
                {
                  "code": "10223-6",
                  "display": "SURGICAL OPERATION NOTE SURGICAL PROCEDURE",
                  "system": "http://loinc.org"
                }
              ]
            },
            "mode": "snapshot"
          },
          {
            "title": "PLAN OF TREATMENT",
            "text": {
              "status": "generated",
              "div": "<div xmlns=\"http://www.w3.org/1999/xhtml\">PLAN OF TREATMENT</div>"
            },
            "code": {
              "coding": [
                {
                  "code": "18776-5",
                  "display": "Treatment plan",
                  "system": "http://loinc.org"
                }
              ]
            },
            "mode": "snapshot"
          },
          {
            "title": "PLANNED PROCEDURE",
            "text": {
              "status": "generated",
              "div": "<div xmlns=\"http://www.w3.org/1999/xhtml\">PLANNED PROCEDURE</div>"
            },
            "code": {
              "coding": [
                {
                  "code": "59772-4",
                  "display": "Planned Procedure",
                  "system": "http://loinc.org"
                }
              ]
            },
            "mode": "snapshot"
          },
          {
            "title": "POSTOPERATIVE DIAGNOSIS",
            "text": {
              "status": "generated",
              "div": "<div xmlns=\"http://www.w3.org/1999/xhtml\">POSTOPERATIVE DIAGNOSIS</div>"
            },
            "code": {
              "coding": [
                {
                  "code": "10218-6",
                  "display": "POSTOPERATIVE DIAGNOSIS",
                  "system": "http://loinc.org"
                }
              ]
            },
            "mode": "snapshot"
          },
          {
            "title": "PREOPERATIVE DIAGNOSIS",
            "text": {
              "status": "generated",
              "div": "<div xmlns=\"http://www.w3.org/1999/xhtml\">PREOPERATIVE DIAGNOSIS</div>"
            },
            "code": {
              "coding": [
                {
                  "code": "10219-4",
                  "display": "SURGICAL OPERATION NOTE PREOPERATIVE DX",
                  "system": "http://loinc.org"
                }
              ]
            },
            "mode": "snapshot"
          },
          {
            "title": "PROCEDURE DESCRIPTION",
            "text": {
              "status": "generated",
              "div": "<div xmlns=\"http://www.w3.org/1999/xhtml\">PROCEDURE DESCRIPTION</div>"
            },
            "code": {
              "coding": [
                {
                  "code": "29554-3",
                  "display": "PROCEDURE DESCRIPTION",
                  "system": "http://loinc.org"
                }
              ]
            },
            "mode": "snapshot"
          },
          {
            "title": "PROCEDURE DISPOSITION",
            "text": {
              "status": "generated",
              "div": "<div xmlns=\"http://www.w3.org/1999/xhtml\">PROCEDURE DISPOSITION</div>"
            },
            "code": {
              "coding": [
                {
                  "code": "59775-7",
                  "display": "PROCEDURE DISPOSITION",
                  "system": "http://loinc.org"
                }
              ]
            },
            "mode": "snapshot"
          },
          {
            "title": "PROCEDURE ESTIMATED BLOOD LOSS",
            "text": {
              "status": "generated",
              "div": "<div xmlns=\"http://www.w3.org/1999/xhtml\">PROCEDURE ESTIMATED BLOOD LOSS</div>"
            },
            "code": {
              "coding": [
                {
                  "code": "59770-8",
                  "display": "PROCEDURE ESTIMATED BLOOD LOSS",
                  "system": "http://loinc.org"
                }
              ]
            },
            "mode": "snapshot"
          },
          {
            "title": "PROCEDURE FINDINGS",
            "text": {
              "status": "generated",
              "div": "<div xmlns=\"http://www.w3.org/1999/xhtml\">PROCEDURE FINDINGS</div>"
            },
            "code": {
              "coding": [
                {
                  "code": "59776-5",
                  "display": "PROCEDURE FINDINGS",
                  "system": "http://loinc.org"
                }
              ]
            },
            "mode": "snapshot"
          },
          {
            "title": "PROCEDURE IMPLANTS",
            "text": {
              "status": "generated",
              "div": "<div xmlns=\"http://www.w3.org/1999/xhtml\">PROCEDURE IMPLANTS</div>"
            },
            "code": {
              "coding": [
                {
                  "code": "59771-6",
                  "display": "PROCEDURE IMPLANTS",
                  "system": "http://loinc.org"
                }
              ]
            },
            "mode": "snapshot"
          },
          {
            "title": "PROCEDURE INDICATIONS",
            "text": {
              "status": "generated",
              "div": "<div xmlns=\"http://www.w3.org/1999/xhtml\">PROCEDURE INDICATIONS</div>"
            },
            "code": {
              "coding": [
                {
                  "code": "59768-2",
                  "display": "PROCEDURE INDICATIONS",
                  "system": "http://loinc.org"
                }
              ]
            },
            "mode": "snapshot"
          },
          {
            "title": "PROCEDURE SPECIMENS TAKEN",
            "text": {
              "status": "generated",
              "div": "<div xmlns=\"http://www.w3.org/1999/xhtml\">PROCEDURE SPECIMENS TAKEN</div>"
            },
            "code": {
              "coding": [
                {
                  "code": "59773-2",
                  "display": "PROCEDURE SPECIMENS TAKEN",
                  "system": "http://loinc.org"
                }
              ]
            },
            "mode": "snapshot"
          },
          {
            "title": "SURGICAL DRAINS",
            "text": {
              "status": "generated",
              "div": "<div xmlns=\"http://www.w3.org/1999/xhtml\">SURGICAL DRAINS</div>"
            },
            "code": {
              "coding": [
                {
                  "code": "11537-8",
                  "display": "SURGICAL DRAINS",
                  "system": "http://loinc.org"
                }
              ]
            },
            "mode": "snapshot"
          }
        ],
        "subject": {
          "reference": "Patient/5510eaa6-2ad2-b82b-248b-aba749e28fa1"
        },
        "custodian": {
          "reference": "Organization/ccf335f7-e962-e711-c0ac-aca0f1f41b74"
        },
        "author": [
          {
            "reference": "Practitioner/b818f780-0177-affe-d9d2-2aefb7adeee2"
          }
        ]
      },
      "request": {
        "method": "PUT",
        "url": "Composition/3af6bc53-6c60-64cf-443e-767266745c48"
      }
    },
    {
      "fullUrl": "urn:uuid:151bd63c-93e9-9838-dd94-f74d3b63be52",
      "resource": {
        "resourceType": "Practitioner",
        "id": "151bd63c-93e9-9838-dd94-f74d3b63be52",
        "meta": {
          "profile": [
            "http://hl7.org/fhir/us/core/StructureDefinition/us-core-practitioner"
          ]
        },
        "identifier": [
          {
            "system": "http://hl7.org/fhir/sid/us-npi",
            "value": "999999999"
          }
        ],
        "name": [
          {
            "family": "Seven",
            "given": [
              "Henry"
            ]
          }
        ],
        "address": [
          {
            "line": [
              "1001 Village Avenue"
            ],
            "city": "Portland",
            "state": "OR",
            "country": "US",
            "postalCode": "99123"
          }
        ],
        "telecom": [
          {
            "system": "phone",
            "value": "555-555-1002",
            "use": "work"
          }
        ]
      },
      "request": {
        "method": "PUT",
        "url": "Practitioner/151bd63c-93e9-9838-dd94-f74d3b63be52"
      }
    },
    {
      "fullUrl": "urn:uuid:ccf335f7-e962-e711-c0ac-aca0f1f41b74",
      "resource": {
        "resourceType": "Organization",
        "id": "ccf335f7-e962-e711-c0ac-aca0f1f41b74",
        "identifier": [
          {
            "system": "http://hl7.org/fhir/sid/us-npi",
            "value": "99999999"
          }
        ],
        "name": "Community Health and Hospitals",
        "address": [
          {
            "use": "work",
            "line": [
              "1002 Healthcare Drive "
            ],
            "city": "Portland",
            "state": "OR",
            "country": "US",
            "postalCode": "99123"
          }
        ],
        "telecom": [
          {
            "system": "phone",
            "value": "555-555-1002",
            "use": "work"
          }
        ]
      },
      "request": {
        "method": "PUT",
        "url": "Organization/ccf335f7-e962-e711-c0ac-aca0f1f41b74"
      }
    },
    {
      "fullUrl": "urn:uuid:b818f780-0177-affe-d9d2-2aefb7adeee2",
      "resource": {
        "resourceType": "Practitioner",
        "id": "b818f780-0177-affe-d9d2-2aefb7adeee2",
        "meta": {
          "profile": [
            "http://hl7.org/fhir/us/core/StructureDefinition/us-core-practitioner"
          ]
        },
        "identifier": [
          {
            "system": "http://hl7.org/fhir/sid/us-npi",
            "value": "99999999"
          }
        ],
        "name": [
          {
            "family": "Seven",
            "given": [
              "Henry"
            ]
          }
        ],
        "address": [
          {
            "line": [
              "1002 Healthcare Drive "
            ],
            "city": "Portland",
            "state": "OR",
            "country": "US",
            "postalCode": "99123"
          }
        ],
        "telecom": [
          {
            "system": "phone",
            "value": "555-555-1002",
            "use": "work"
          }
        ],
        "qualification": [
          {
            "code": {
              "coding": [
                {
                  "code": "200000000X",
                  "display": "Allopathic & Osteopathic Physicians",
                  "system": "http://nucc.org/provider-taxonomy"
                }
              ]
            }
          }
        ]
      },
      "request": {
        "method": "PUT",
        "url": "Practitioner/b818f780-0177-affe-d9d2-2aefb7adeee2"
      }
    },
    {
      "fullUrl": "urn:uuid:5510eaa6-2ad2-b82b-248b-aba749e28fa1",
      "resource": {
        "resourceType": "Patient",
        "id": "5510eaa6-2ad2-b82b-248b-aba749e28fa1",
        "meta": {
          "profile": [
            "http://hl7.org/fhir/us/core/StructureDefinition/us-core-patient"
          ]
        },
        "identifier": [
          {
            "system": "urn:oid:2.16.840.1.113883.19.5.99999.2",
            "value": "998991"
          },
          {
            "system": "http://hl7.org/fhir/sid/us-ssn",
            "value": "111-00-2330"
          }
        ],
        "name": [
          {
            "use": "usual",
            "family": "Jones",
            "given": [
              "Isabella",
              "Isa"
            ]
          }
        ],
        "birthDate": "2005-05-01",
        "gender": "female",
        "extension": [
          {
            "url": "http://hl7.org/fhir/us/core/StructureDefinition/us-core-race",
            "extension": [
              {
                "url": "detailed",
                "valueCoding": {
                  "code": "1966-1",
                  "display": "Aleut"
                }
              },
              {
                "url": "text",
                "valueString": "Aleut"
              }
            ]
          },
          {
            "url": "http://hl7.org/fhir/us/core/StructureDefinition/us-core-ethnicity",
            "extension": [
              {
                "url": "ombCategory",
                "valueCoding": {
                  "code": "2186-5",
                  "display": "Not Hispanic or Latino"
                }
              },
              {
                "url": "text",
                "valueString": "Not Hispanic or Latino"
              }
            ]
          }
        ],
        "address": [
          {
            "use": "home",
            "line": [
              "1357 Amber Drive"
            ],
            "city": "Beaverton",
            "state": "OR",
            "country": "US",
            "postalCode": "97867"
          }
        ],
        "telecom": [
          {
            "system": "phone",
            "value": "(816)276-6909",
            "use": "home"
          }
        ],
        "communication": [
          {
            "language": {
              "coding": [
                {
                  "system": "urn:ietf:bcp:47",
                  "code": "en",
                  "display": "English"
                }
              ]
            },
            "preferred": true
          }
        ]
      },
      "request": {
        "method": "PUT",
        "url": "Patient/5510eaa6-2ad2-b82b-248b-aba749e28fa1"
      }
    },
    {
      "fullUrl": "urn:uuid:ee674bd9-634f-7bfb-de2e-510f1248a374",
      "resource": {
        "resourceType": "RelatedPerson",
        "id": "ee674bd9-634f-7bfb-de2e-510f1248a374",
        "relationship": [
          {
            "coding": [
              {
                "code": "GRPRN",
                "display": "Grandparent",
                "system": "urn:oid:2.16.840.1.113883.5.111"
              }
            ]
          }
        ],
        "name": [
          {
            "family": "Jones",
            "given": [
              "Ralph"
            ]
          }
        ],
        "telecom": [
          {
            "system": "phone",
            "value": "(816)276-6909",
            "use": "home"
          }
        ],
        "address": [
          {
            "use": "home",
            "line": [
              "1357 Amber Drive"
            ],
            "city": "Beaverton",
            "state": "OR",
            "country": "US",
            "postalCode": "97867"
          }
        ],
        "patient": {
          "reference": "Patient/5510eaa6-2ad2-b82b-248b-aba749e28fa1"
        }
      },
      "request": {
        "method": "PUT",
        "url": "RelatedPerson/ee674bd9-634f-7bfb-de2e-510f1248a374"
      }
    },
    {
      "fullUrl": "urn:uuid:c897ff2d-4584-a8c5-fea2-73f9d95e9590",
      "resource": {
        "resourceType": "Procedure",
        "id": "c897ff2d-4584-a8c5-fea2-73f9d95e9590",
        "meta": {
          "profile": [
            "http://hl7.org/fhir/us/core/StructureDefinition/us-core-procedure"
          ]
        },
        "identifier": [
          {
            "system": "urn:ietf:rfc:3986",
            "value": "urn:uuid:d68b7e32-7810-4f5b-9cc2-acd54b0fd85d"
          }
        ],
        "status": "completed",
        "code": {
          "coding": [
            {
              "code": "73761001",
              "display": "Colonoscopy",
              "system": "http://snomed.info/sct"
            }
          ]
        },
        "performedDateTime": "2012-05-12",
        "subject": {
          "reference": "Patient/5510eaa6-2ad2-b82b-248b-aba749e28fa1"
        },
        "performer": [
          {
            "actor": {
              "reference": "Organization/bb481cff-4e21-5cd1-9057-7e8b00a33843"
            }
          }
        ]
      },
      "request": {
        "method": "PUT",
        "url": "Procedure/c897ff2d-4584-a8c5-fea2-73f9d95e9590"
      }
    },
    {
      "fullUrl": "urn:uuid:bb481cff-4e21-5cd1-9057-7e8b00a33843",
      "resource": {
        "resourceType": "Organization",
        "id": "bb481cff-4e21-5cd1-9057-7e8b00a33843",
        "identifier": [
          {
            "system": "urn:ietf:rfc:3986",
            "value": "urn:uuid:2.16.840.1.113883.19.5.9999.1393"
          }
        ],
        "name": "Community Health and Hospitals",
        "address": [
          {
            "line": [
              "1001 Village Avenue"
            ],
            "city": "Portland",
            "state": "OR",
            "country": "US",
            "postalCode": "99123"
          }
        ]
      },
      "request": {
        "method": "PUT",
        "url": "Organization/bb481cff-4e21-5cd1-9057-7e8b00a33843"
      }
    },
    {
      "fullUrl": "urn:uuid:b95adddc-9627-3b0f-6552-4d5ae06284bc",
      "resource": {
        "resourceType": "MedicationAdministration",
        "id": "b95adddc-9627-3b0f-6552-4d5ae06284bc",
        "identifier": [
          {
            "system": "urn:ietf:rfc:3986",
            "value": "urn:uuid:cdbd33f0-6cde-11db-9fe1-0800200c9a66"
          }
        ],
        "status": "completed",
        "effectivePeriod": {
          "start": "2012-05-12",
          "end": "2012-05-12"
        },
        "dosage": {
          "route": {
            "coding": [
              {
                "code": "C38276",
                "display": "INTRAVENOUS",
                "system": "urn:oid:2.16.840.1.113883.3.26.1.1"
              }
            ]
          },
          "dose": {
            "value": 20,
            "unit": "mg/mL"
          },
          "rateQuantity": {
            "value": 2,
            "unit": "ml/min"
          }
        },
        "subject": {
          "reference": "Patient/5510eaa6-2ad2-b82b-248b-aba749e28fa1"
        },
        "medicationReference": {
          "reference": "Medication/893a5b7c-5465-35d1-0ef4-a101b13eb69d"
        }
      },
      "request": {
        "method": "PUT",
        "url": "MedicationAdministration/b95adddc-9627-3b0f-6552-4d5ae06284bc"
      }
    },
    {
      "fullUrl": "urn:uuid:893a5b7c-5465-35d1-0ef4-a101b13eb69d",
      "resource": {
        "resourceType": "Medication",
        "id": "893a5b7c-5465-35d1-0ef4-a101b13eb69d",
        "code": {
          "coding": [
            {
              "code": "153475",
              "display": "Propofol 20 MG/ML Injectable Suspension",
              "system": "http://www.nlm.nih.gov/research/umls/rxnorm"
            }
          ]
        }
      },
      "request": {
        "method": "PUT",
        "url": "Medication/893a5b7c-5465-35d1-0ef4-a101b13eb69d"
      }
    },
    {
      "fullUrl": "urn:uuid:66e444cb-edff-dc45-9565-0d5706c4392a",
      "resource": {
        "resourceType": "Condition",
        "id": "66e444cb-edff-dc45-9565-0d5706c4392a",
        "identifier": [
          {
            "system": "urn:ietf:rfc:3986",
            "value": "urn:uuid:ab1791b0-5c71-11db-b0de-0800200c9a66"
          }
        ],
        "clinicalStatus": {
          "coding": [
            {
              "code": "81323004",
              "display": "Alive and well",
              "system": "http://snomed.info/sct"
            }
          ]
        },
        "code": {
          "coding": [
            {
              "code": "233604007",
              "display": "Pneumonia",
              "system": "http://snomed.info/sct"
            }
          ]
        },
        "onsetDateTime": "2008-01-03",
        "subject": {
          "reference": "Patient/5510eaa6-2ad2-b82b-248b-aba749e28fa1"
        }
      },
      "request": {
        "method": "PUT",
        "url": "Condition/66e444cb-edff-dc45-9565-0d5706c4392a"
      }
    },
    {
      "fullUrl": "urn:uuid:cf2051fd-a80a-4fc6-7e0b-d3474b746204",
      "resource": {
        "resourceType": "Condition",
        "id": "cf2051fd-a80a-4fc6-7e0b-d3474b746204",
        "identifier": [
          {
            "system": "urn:ietf:rfc:3986",
            "value": "urn:uuid:ab1791b0-5c71-11db-b0de-0800200c9a66"
          }
        ],
        "code": {
          "coding": [
            {
              "code": "103679000",
              "display": "Sessile Polyp",
              "system": "http://snomed.info/sct"
            }
          ]
        },
        "onsetDateTime": "2008-01-03",
        "subject": {
          "reference": "Patient/5510eaa6-2ad2-b82b-248b-aba749e28fa1"
        }
      },
      "request": {
        "method": "PUT",
        "url": "Condition/cf2051fd-a80a-4fc6-7e0b-d3474b746204"
      }
    },
    {
      "fullUrl": "urn:uuid:fe724228-d3e7-6353-c952-e14490fa5cc3",
      "resource": {
        "resourceType": "Condition",
        "id": "fe724228-d3e7-6353-c952-e14490fa5cc3",
        "identifier": [
          {
            "system": "urn:ietf:rfc:3986",
            "value": "urn:uuid:cd1791b0-5c71-11db-b0de-0800200c9a66"
          }
        ],
        "code": {
          "coding": [
            {
              "code": "429430001",
              "display": "diverticulosis of sigmoid",
              "system": "http://snomed.info/sct"
            }
          ]
        },
        "onsetDateTime": "2008-01-03",
        "subject": {
          "reference": "Patient/5510eaa6-2ad2-b82b-248b-aba749e28fa1"
        }
      },
      "request": {
        "method": "PUT",
        "url": "Condition/fe724228-d3e7-6353-c952-e14490fa5cc3"
      }
    },
    {
      "fullUrl": "urn:uuid:e08bf664-1ff1-e77e-2bb5-80f31a65917d",
      "resource": {
        "resourceType": "Condition",
        "id": "e08bf664-1ff1-e77e-2bb5-80f31a65917d",
        "identifier": [
          {
            "system": "urn:ietf:rfc:3986",
            "value": "urn:uuid:cd1791b0-5c71-11db-b0de-0800200c9a66"
          }
        ],
        "code": {
          "coding": [
            {
              "code": "90458007",
              "display": "internal hemorrhoids",
              "system": "http://snomed.info/sct"
            }
          ]
        },
        "onsetDateTime": "2008-01-03",
        "subject": {
          "reference": "Patient/5510eaa6-2ad2-b82b-248b-aba749e28fa1"
        }
      },
      "request": {
        "method": "PUT",
        "url": "Condition/e08bf664-1ff1-e77e-2bb5-80f31a65917d"
      }
    },
    {
      "fullUrl": "urn:uuid:5d0fcffd-af2a-defa-d8af-6d1238884d32",
      "resource": {
        "resourceType": "Condition",
        "id": "5d0fcffd-af2a-defa-d8af-6d1238884d32",
        "identifier": [
          {
            "system": "urn:ietf:rfc:3986",
            "value": "urn:uuid:ab1791b0-5c71-11db-b0de-0800200c9a66"
          }
        ],
        "code": {
          "coding": [
            {
              "code": "74400008",
              "display": "Appendicitis",
              "system": "http://snomed.info/sct"
            }
          ]
        },
        "onsetDateTime": "2008-01-03",
        "subject": {
          "reference": "Patient/5510eaa6-2ad2-b82b-248b-aba749e28fa1"
        }
      },
      "request": {
        "method": "PUT",
        "url": "Condition/5d0fcffd-af2a-defa-d8af-6d1238884d32"
      }
    },
    {
      "fullUrl": "urn:uuid:40fa88b9-a7bf-ded0-2a9c-b67c888feebf",
      "resource": {
        "resourceType": "DocumentReference",
        "id": "40fa88b9-a7bf-ded0-2a9c-b67c888feebf",
        "type": {
          "coding": [
            {
              "code": "11504-8",
              "display": "Surgical Operation Note",
              "system": "http://loinc.org"
            }
          ]
        },
        "date": "2024-10-31T15:05:06.354Z",
        "status": "current",
        "content": [
          {
            "attachment": {
              "contentType": "text/plain",
              "data": "",
              "hash": "ZGI1MjZlYjFhZTMxNTY3Yzk1ZGIzZjExNjE2YzU2MTU5Njg5YjY1MQ=="
            }
          }
        ]
      },
      "request": {
        "method": "PUT",
        "url": "DocumentReference/40fa88b9-a7bf-ded0-2a9c-b67c888feebf"
      }
    }
  ]
}