{
    "resourceType": "Bundle",
    "type": "transaction",
    "entry": [
        {
            "fullUrl": "urn:uuid:37351237-c7b3-3621-ab4e-5476d5e8f36d",
            "resource": {
                "resourceType": "Patient",
                "id": "37351237-c7b3-3621-ab4e-5476d5e8f36d",
                "identifier": [
                    {
                        "value": "999999999"
                    }
                ],
                "name": [
                    {
                        "family": "TEST",
                        "given": [
                            "PATIENT"
                        ]
                    }
                ],
                "birthDate": "1845-01-01",
                "gender": "female"
            },
            "request": {
                "method": "POST",
                "url": "Patient/37351237-c7b3-3621-ab4e-5476d5e8f36d"
            }
        },
        {
            "fullUrl": "urn:uuid:4cfe8d6d-3fc8-3e41-b921-f204be18db31",
            "resource": {
                "resourceType": "Encounter",
                "id": "4cfe8d6d-3fc8-3e41-b921-f204be18db31",
                "status": "unknown",
                "location": [
                    {
                        "status": "active"
                    }
                ],
                "subject": {
                    "reference": "Patient/37351237-c7b3-3621-ab4e-5476d5e8f36d"
                }
            },
            "request": {
                "method": "POST",
                "url": "Encounter/4cfe8d6d-3fc8-3e41-b921-f204be18db31"
            }
        },
        {
            "fullUrl": "urn:uuid:e5a260da-2b25-3c2a-b96e-d7e45b2eafce",
            "resource": {
                "resourceType": "DiagnosticReport",
                "id": "e5a260da-2b25-3c2a-b96e-d7e45b2eafce",
                "identifier": [
                    {
                        "type": {
                            "coding": [
                                {
                                    "code": "FILL",
                                    "system": "http://terminology.hl7.org/CodeSystem/v2-0203"
                                }
                            ]
                        }
                    },
                    {
                        "value": "211088491"
                    }
                ],
                "effectiveDateTime": "2011-06-20T17:06:31.000Z",
                "code": {
                    "coding": [
                        {
                            "code": "0",
                            "display": "ADULT",
                            "system": "ROCHECG"
                        }
                    ]
                },
                "issued": "2011-06-21T06:02:32.000Z",
                "category": [
                    {
                        "coding": [
                            {
                                "code": "EC"
                            }
                        ]
                    }
                ],
                "status": "final",
                "encounter": {
                    "reference": "Encounter/4cfe8d6d-3fc8-3e41-b921-f204be18db31"
                },
                "result": [
                    {
                        "reference": "Observation/0d368d51-5b4c-3d5b-950e-e9f21ceaf93d"
                    },
                    {
                        "reference": "Observation/81e7552f-360a-30e3-bd38-ffe387f4491e"
                    },
                    {
                        "reference": "Observation/c3cf4e49-296c-3d8a-8875-dcc6bb5cec63"
                    },
                    {
                        "reference": "Observation/053905ae-2288-3cd0-8fa9-7dd29e146c3c"
                    },
                    {
                        "reference": "Observation/7ff19a48-a02a-3239-9c2a-6b8ec092abd0"
                    },
                    {
                        "reference": "Observation/b23c3fb0-4fcd-3135-bcdf-c768c6ed6254"
                    },
                    {
                        "reference": "Observation/f7bb4b7a-062b-38a7-8af5-0ceab252c23f"
                    },
                    {
                        "reference": "Observation/bb78f780-d8e4-37fe-96ee-70fd6524a764"
                    },
                    {
                        "reference": "Observation/cbaa47a2-8533-3ba1-a8d1-8789a74221ed"
                    },
                    {
                        "reference": "Observation/8f04f1da-befc-3641-9bb8-b82b24e1b3b4"
                    },
                    {
                        "reference": "Observation/31cb31c7-118e-38d9-8788-f2b6e84f9187"
                    },
                    {
                        "reference": "Observation/01be33de-bb35-35d2-bd08-9e3e25f71680"
                    },
                    {
                        "reference": "Observation/c795b0de-1b72-395e-bd03-bedcd6d89fcf"
                    }
                ]
            },
            "request": {
                "method": "POST",
                "url": "DiagnosticReport/e5a260da-2b25-3c2a-b96e-d7e45b2eafce"
            }
        },
        {
            "fullUrl": "urn:uuid:0d368d51-5b4c-3d5b-950e-e9f21ceaf93d",
            "resource": {
                "resourceType": "Observation",
                "id": "0d368d51-5b4c-3d5b-950e-e9f21ceaf93d",
                "code": {
                    "coding": [
                        {
                            "code": "93000.2",
                            "display": "VENTRICULAR RATE EKG/MIN",
                            "system": "CPT4"
                        }
                    ]
                },
                "valueString": "52",
                "component": [
                    {
                        "code": {
                            "coding": [
                                {
                                    "code": "93000.2",
                                    "display": "VENTRICULAR RATE EKG/MIN",
                                    "system": "CPT4"
                                }
                            ]
                        },
                        "valueString": "52"
                    }
                ],
                "subject": {
                    "reference": "Patient/37351237-c7b3-3621-ab4e-5476d5e8f36d"
                }
            },
            "request": {
                "method": "POST",
                "url": "Observation/0d368d51-5b4c-3d5b-950e-e9f21ceaf93d"
            }
        },
        {
            "fullUrl": "urn:uuid:81e7552f-360a-30e3-bd38-ffe387f4491e",
            "resource": {
                "resourceType": "Observation",
                "id": "81e7552f-360a-30e3-bd38-ffe387f4491e",
                "code": {
                    "coding": [
                        {
                            "code": "93000.4",
                            "display": "PR INTERVAL(MSEC)",
                            "system": "CPT4"
                        }
                    ]
                },
                "valueString": "208",
                "component": [
                    {
                        "code": {
                            "coding": [
                                {
                                    "code": "93000.4",
                                    "display": "PR INTERVAL(MSEC)",
                                    "system": "CPT4"
                                }
                            ]
                        },
                        "valueString": "208"
                    }
                ],
                "subject": {
                    "reference": "Patient/37351237-c7b3-3621-ab4e-5476d5e8f36d"
                }
            },
            "request": {
                "method": "POST",
                "url": "Observation/81e7552f-360a-30e3-bd38-ffe387f4491e"
            }
        },
        {
            "fullUrl": "urn:uuid:c3cf4e49-296c-3d8a-8875-dcc6bb5cec63",
            "resource": {
                "resourceType": "Observation",
                "id": "c3cf4e49-296c-3d8a-8875-dcc6bb5cec63",
                "code": {
                    "coding": [
                        {
                            "code": "93000.5",
                            "display": "QRS - INTERVAL(MSEC)",
                            "system": "CPT4"
                        }
                    ]
                },
                "valueString": "88",
                "component": [
                    {
                        "code": {
                            "coding": [
                                {
                                    "code": "93000.5",
                                    "display": "QRS - INTERVAL(MSEC)",
                                    "system": "CPT4"
                                }
                            ]
                        },
                        "valueString": "88"
                    }
                ],
                "subject": {
                    "reference": "Patient/37351237-c7b3-3621-ab4e-5476d5e8f36d"
                }
            },
            "request": {
                "method": "POST",
                "url": "Observation/c3cf4e49-296c-3d8a-8875-dcc6bb5cec63"
            }
        },
        {
            "fullUrl": "urn:uuid:053905ae-2288-3cd0-8fa9-7dd29e146c3c",
            "resource": {
                "resourceType": "Observation",
                "id": "053905ae-2288-3cd0-8fa9-7dd29e146c3c",
                "code": {
                    "coding": [
                        {
                            "code": "93000.6",
                            "display": "QT - INTERVAL(MSEC)",
                            "system": "CPT4"
                        }
                    ]
                },
                "valueString": "466",
                "component": [
                    {
                        "code": {
                            "coding": [
                                {
                                    "code": "93000.6",
                                    "display": "QT - INTERVAL(MSEC)",
                                    "system": "CPT4"
                                }
                            ]
                        },
                        "valueString": "466"
                    }
                ],
                "subject": {
                    "reference": "Patient/37351237-c7b3-3621-ab4e-5476d5e8f36d"
                }
            },
            "request": {
                "method": "POST",
                "url": "Observation/053905ae-2288-3cd0-8fa9-7dd29e146c3c"
            }
        },
        {
            "fullUrl": "urn:uuid:7ff19a48-a02a-3239-9c2a-6b8ec092abd0",
            "resource": {
                "resourceType": "Observation",
                "id": "7ff19a48-a02a-3239-9c2a-6b8ec092abd0",
                "code": {
                    "coding": [
                        {
                            "code": "93000,PTL",
                            "display": "PHYSICAL TEST LOCATION",
                            "system": "CPT4"
                        }
                    ]
                },
                "valueString": "STMA",
                "component": [
                    {
                        "code": {
                            "coding": [
                                {
                                    "code": "93000,PTL",
                                    "display": "PHYSICAL TEST LOCATION",
                                    "system": "CPT4"
                                }
                            ]
                        },
                        "valueString": "STMA"
                    }
                ],
                "subject": {
                    "reference": "Patient/37351237-c7b3-3621-ab4e-5476d5e8f36d"
                }
            },
            "request": {
                "method": "POST",
                "url": "Observation/7ff19a48-a02a-3239-9c2a-6b8ec092abd0"
            }
        },
        {
            "fullUrl": "urn:uuid:b23c3fb0-4fcd-3135-bcdf-c768c6ed6254",
            "resource": {
                "resourceType": "Observation",
                "id": "b23c3fb0-4fcd-3135-bcdf-c768c6ed6254",
                "code": {
                    "coding": [
                        {
                            "code": "93000,PTR",
                            "display": "PHYSICAL TEST ROOM",
                            "system": "CPT4"
                        }
                    ]
                },
                "valueString": "04254",
                "component": [
                    {
                        "code": {
                            "coding": [
                                {
                                    "code": "93000,PTR",
                                    "display": "PHYSICAL TEST ROOM",
                                    "system": "CPT4"
                                }
                            ]
                        },
                        "valueString": "04254"
                    }
                ],
                "subject": {
                    "reference": "Patient/37351237-c7b3-3621-ab4e-5476d5e8f36d"
                }
            },
            "request": {
                "method": "POST",
                "url": "Observation/b23c3fb0-4fcd-3135-bcdf-c768c6ed6254"
            }
        },
        {
            "fullUrl": "urn:uuid:f7bb4b7a-062b-38a7-8af5-0ceab252c23f",
            "resource": {
                "resourceType": "Observation",
                "id": "f7bb4b7a-062b-38a7-8af5-0ceab252c23f",
                "code": {
                    "coding": [
                        {
                            "code": "93000.17",
                            "system": "CPT4"
                        }
                    ]
                },
                "valueCodeableConcept": {
                    "coding": [
                        {
                            "code": "21,101",
                            "display": "Sinus bradycardia&#x60;T&#x60;with 1st degree A-V block",
                            "system": "MEIECG"
                        }
                    ]
                },
                "component": [
                    {
                        "code": {
                            "coding": [
                                {
                                    "code": "93000.17",
                                    "system": "CPT4"
                                }
                            ]
                        }
                    }
                ],
                "subject": {
                    "reference": "Patient/37351237-c7b3-3621-ab4e-5476d5e8f36d"
                }
            },
            "request": {
                "method": "POST",
                "url": "Observation/f7bb4b7a-062b-38a7-8af5-0ceab252c23f"
            }
        },
        {
            "fullUrl": "urn:uuid:bb78f780-d8e4-37fe-96ee-70fd6524a764",
            "resource": {
                "resourceType": "Observation",
                "id": "bb78f780-d8e4-37fe-96ee-70fd6524a764",
                "code": {
                    "coding": [
                        {
                            "code": "93000.17",
                            "system": "CPT4"
                        }
                    ]
                },
                "valueCodeableConcept": {
                    "coding": [
                        {
                            "code": "1687",
                            "display": "Otherwise normal ECG",
                            "system": "MEIECG"
                        }
                    ]
                },
                "component": [
                    {
                        "code": {
                            "coding": [
                                {
                                    "code": "93000.17",
                                    "system": "CPT4"
                                }
                            ]
                        }
                    }
                ],
                "subject": {
                    "reference": "Patient/37351237-c7b3-3621-ab4e-5476d5e8f36d"
                }
            },
            "request": {
                "method": "POST",
                "url": "Observation/bb78f780-d8e4-37fe-96ee-70fd6524a764"
            }
        },
        {
            "fullUrl": "urn:uuid:cbaa47a2-8533-3ba1-a8d1-8789a74221ed",
            "resource": {
                "resourceType": "Observation",
                "id": "cbaa47a2-8533-3ba1-a8d1-8789a74221ed",
                "code": {
                    "coding": [
                        {
                            "code": "93000,CMP",
                            "system": "CPT4"
                        }
                    ]
                },
                "valueCodeableConcept": {
                    "coding": [
                        {
                            "code": "1301",
                            "display": "When compared with ECG of",
                            "system": "MEIECG"
                        }
                    ]
                },
                "component": [
                    {
                        "code": {
                            "coding": [
                                {
                                    "code": "93000,CMP",
                                    "system": "CPT4"
                                }
                            ]
                        }
                    }
                ],
                "subject": {
                    "reference": "Patient/37351237-c7b3-3621-ab4e-5476d5e8f36d"
                }
            },
            "request": {
                "method": "POST",
                "url": "Observation/cbaa47a2-8533-3ba1-a8d1-8789a74221ed"
            }
        },
        {
            "fullUrl": "urn:uuid:8f04f1da-befc-3641-9bb8-b82b24e1b3b4",
            "resource": {
                "resourceType": "Observation",
                "id": "8f04f1da-befc-3641-9bb8-b82b24e1b3b4",
                "code": {
                    "coding": [
                        {
                            "code": "93000,CMD",
                            "display": "EKG COMPARISON DATE",
                            "system": "CPT4"
                        }
                    ]
                },
                "component": [
                    {
                        "code": {
                            "coding": [
                                {
                                    "code": "93000,CMD",
                                    "display": "EKG COMPARISON DATE",
                                    "system": "CPT4"
                                }
                            ]
                        }
                    }
                ],
                "subject": {
                    "reference": "Patient/37351237-c7b3-3621-ab4e-5476d5e8f36d"
                }
            },
            "request": {
                "method": "POST",
                "url": "Observation/8f04f1da-befc-3641-9bb8-b82b24e1b3b4"
            }
        },
        {
            "fullUrl": "urn:uuid:31cb31c7-118e-38d9-8788-f2b6e84f9187",
            "resource": {
                "resourceType": "Observation",
                "id": "31cb31c7-118e-38d9-8788-f2b6e84f9187",
                "code": {
                    "coding": [
                        {
                            "code": "93000,CMP",
                            "system": "CPT4"
                        }
                    ]
                },
                "valueCodeableConcept": {
                    "coding": [
                        {
                            "code": "1305",
                            "display": "No significant change was found",
                            "system": "MEIECG"
                        }
                    ]
                },
                "component": [
                    {
                        "code": {
                            "coding": [
                                {
                                    "code": "93000,CMP",
                                    "system": "CPT4"
                                }
                            ]
                        }
                    }
                ],
                "subject": {
                    "reference": "Patient/37351237-c7b3-3621-ab4e-5476d5e8f36d"
                }
            },
            "request": {
                "method": "POST",
                "url": "Observation/31cb31c7-118e-38d9-8788-f2b6e84f9187"
            }
        },
        {
            "fullUrl": "urn:uuid:01be33de-bb35-35d2-bd08-9e3e25f71680",
            "resource": {
                "resourceType": "Observation",
                "id": "01be33de-bb35-35d2-bd08-9e3e25f71680",
                "code": {
                    "coding": [
                        {
                            "code": "93000.48",
                            "display": "EKG COMMENT",
                            "system": "CPT4"
                        }
                    ]
                },
                "valueString": "9917,LASTNAME MD,FIRSTNAME",
                "component": [
                    {
                        "code": {
                            "coding": [
                                {
                                    "code": "93000.48",
                                    "display": "EKG COMMENT",
                                    "system": "CPT4"
                                }
                            ]
                        },
                        "valueString": "9917,LASTNAME MD,FIRSTNAME"
                    }
                ],
                "subject": {
                    "reference": "Patient/37351237-c7b3-3621-ab4e-5476d5e8f36d"
                }
            },
            "request": {
                "method": "POST",
                "url": "Observation/01be33de-bb35-35d2-bd08-9e3e25f71680"
            }
        },
        {
            "fullUrl": "urn:uuid:c795b0de-1b72-395e-bd03-bedcd6d89fcf",
            "resource": {
                "resourceType": "Observation",
                "id": "c795b0de-1b72-395e-bd03-bedcd6d89fcf",
                "code": {
                    "coding": [
                        {
                            "code": "93000",
                            "display": "ECG 12-LEAD",
                            "system": "CPT4"
                        }
                    ]
                },
                "valueString": "{\\rtf1\\ansi \\deff1\\deflang1033\\ {\\fonttbl{\\f1\\fmodern\\fcharset0 Courier;}{\\f2\\fmodern\\fcharset0 Courier;}} \\pard\\plain \\f1\\fs18\\par 20Jun2011 17:06\\par VENTRICULAR RATE 52\\par Sinus bradycardia with 1st degree A-V block\\par Otherwise normal ECG\\par When compared with ECG of 17-JUN-2011 16:59,\\par No significant change was found\\par 47507&#x60;S&#x60;&#x27;LASTNAME MD&#x60;S&#x60;&#x27;FIRSTNAME \\par }",
                "component": [
                    {
                        "code": {
                            "coding": [
                                {
                                    "code": "93000",
                                    "display": "ECG 12-LEAD",
                                    "system": "CPT4"
                                }
                            ]
                        },
                        "valueString": "{\\rtf1\\ansi \\deff1\\deflang1033\\ {\\fonttbl{\\f1\\fmodern\\fcharset0 Courier;}{\\f2\\fmodern\\fcharset0 Courier;}} \\pard\\plain \\f1\\fs18\\par 20Jun2011 17:06\\par VENTRICULAR RATE 52\\par Sinus bradycardia with 1st degree A-V block\\par Otherwise normal ECG\\par When compared with ECG of 17-JUN-2011 16:59,\\par No significant change was found\\par 47507&#x60;S&#x60;&#x27;LASTNAME MD&#x60;S&#x60;&#x27;FIRSTNAME \\par }"
                    }
                ],
                "subject": {
                    "reference": "Patient/37351237-c7b3-3621-ab4e-5476d5e8f36d"
                }
            },
            "request": {
                "method": "POST",
                "url": "Observation/c795b0de-1b72-395e-bd03-bedcd6d89fcf"
            }
        }
    ]
}