{
    "resourceType": "Bundle",
    "type": "transaction",
    "entry": [
        {
            "fullUrl": "urn:uuid:eb76f96f-dde1-31cd-8815-7c2546dabe7e",
            "resource": {
                "resourceType": "Patient",
                "id": "eb76f96f-dde1-31cd-8815-7c2546dabe7e",
                "identifier": [
                    {
                        "value": "PATID1234",
                        "type": {
                            "coding": [
                                {
                                    "code": "MR",
                                    "system": "http://terminology.hl7.org/CodeSystem/v2-0203"
                                }
                            ]
                        }
                    }
                ],
                "name": [
                    {
                        "family": "Jones",
                        "given": [
                            "William",
                            "A"
                        ]
                    }
                ],
                "birthDate": "1961-06-15",
                "gender": "male"
            },
            "request": {
                "method": "POST",
                "url": "Patient/eb76f96f-dde1-31cd-8815-7c2546dabe7e"
            }
        },
        {
            "fullUrl": "urn:uuid:4cfe8d6d-3fc8-3e41-b921-f204be18db31",
            "resource": {
                "resourceType": "Encounter",
                "id": "4cfe8d6d-3fc8-3e41-b921-f204be18db31",
                "status": "unknown",
                "location": [
                    {
                        "status": "active"
                    }
                ],
                "subject": {
                    "reference": "Patient/eb76f96f-dde1-31cd-8815-7c2546dabe7e"
                }
            },
            "request": {
                "method": "POST",
                "url": "Encounter/4cfe8d6d-3fc8-3e41-b921-f204be18db31"
            }
        },
        {
            "fullUrl": "urn:uuid:18d8ec74-0eaf-3d96-b74b-a7144acb0eb0",
            "resource": {
                "resourceType": "DiagnosticReport",
                "id": "18d8ec74-0eaf-3d96-b74b-a7144acb0eb0",
                "identifier": [
                    {
                        "type": {
                            "coding": [
                                {
                                    "code": "FILL",
                                    "system": "http://terminology.hl7.org/CodeSystem/v2-0203"
                                }
                            ]
                        }
                    },
                    {
                        "value": "ORD666555"
                    },
                    {
                        "value": "R-991133"
                    }
                ],
                "effectiveDateTime": "2011-01-03T22:34:28.000Z",
                "code": {
                    "coding": [
                        {
                            "code": "57021-8",
                            "display": "CBC W Auto Differential panel in Blood",
                            "system": "LN"
                        },
                        {
                            "code": "4456544",
                            "display": "CBC",
                            "system": "99USI"
                        }
                    ],
                    "text": "CBC W Auto Differential panel in Blood"
                },
                "issued": "2011-01-05T01:00:28.000Z",
                "status": "final",
                "encounter": {
                    "reference": "Encounter/4cfe8d6d-3fc8-3e41-b921-f204be18db31"
                },
                "result": [
                    {
                        "reference": "Observation/39d9fcbd-c623-3f5a-b670-679dcd944b79"
                    },
                    {
                        "reference": "Observation/eea9769b-e60d-3cc1-8038-83ba69f87d0a"
                    },
                    {
                        "reference": "Observation/04a3ad60-9b19-3600-9d05-557430555340"
                    },
                    {
                        "reference": "Observation/5e6f097e-c754-3da5-aec2-1f4591cce94e"
                    },
                    {
                        "reference": "Observation/a59df09b-d3bd-39cd-a2ad-fe3b8533f740"
                    },
                    {
                        "reference": "Observation/6bc932dc-4437-365a-b361-92c533a5c79a"
                    },
                    {
                        "reference": "Observation/874110cc-0b60-37a8-a8dc-fe439f3d9b49"
                    },
                    {
                        "reference": "Observation/35d0a57e-f043-3323-8ad9-28ab9edab72c"
                    },
                    {
                        "reference": "Observation/537b0a55-e453-3e37-ad57-e625b7c4bf79"
                    },
                    {
                        "reference": "Observation/184f556d-f8a9-31ac-9b92-4e0c4403e3e6"
                    },
                    {
                        "reference": "Observation/9dfc7d81-fbdf-3ecf-9f1d-0219e05f9093"
                    },
                    {
                        "reference": "Observation/d9602744-f15f-3ba5-b952-9fe2fb9bff77"
                    },
                    {
                        "reference": "Observation/0d14c4b4-137f-35fb-9e29-9df3dbb8315e"
                    },
                    {
                        "reference": "Observation/04d3f283-040d-386c-abfc-12f1b89fca66"
                    },
                    {
                        "reference": "Observation/5caee591-1624-3345-a1a7-ec9ef093ec38"
                    },
                    {
                        "reference": "Observation/1b33cac6-a079-3733-b964-d5a3c68389fa"
                    },
                    {
                        "reference": "Observation/f0651c8e-62c5-35b7-8e3e-1f61428d6de3"
                    },
                    {
                        "reference": "Observation/58e77de2-16ee-3f17-85c3-545e7fdd82d3"
                    },
                    {
                        "reference": "Observation/9dd8933d-0098-3a15-8170-50baa513990a"
                    },
                    {
                        "reference": "Observation/ef637f95-5883-35ee-a356-9da4a67e4361"
                    },
                    {
                        "reference": "Observation/0b17e383-723b-33f1-a72c-0cbe31d9fb1e"
                    },
                    {
                        "reference": "Observation/f0b8396b-c890-38b5-936f-1c28408b978a"
                    },
                    {
                        "reference": "Observation/f412b0a5-397d-3932-b61e-4cf27f6f7d9c"
                    },
                    {
                        "reference": "Observation/3e6d0937-0603-3fb7-9f2d-636d3c1faafa"
                    },
                    {
                        "reference": "Observation/4f77e51d-41e2-3be0-acc1-a2c2fb167c98"
                    },
                    {
                        "reference": "Observation/990d2140-9688-3eef-bb3b-3a8c4e2a5bdf"
                    },
                    {
                        "reference": "Observation/7b0f91f6-36a8-399d-8f5b-450aecf3a1f8"
                    },
                    {
                        "reference": "Observation/e677e532-fd63-34a1-ab2b-9edb180a7768"
                    }
                ],
                "specimen": [
                    {
                        "reference": "Specimen/bc39ef4c-9be6-3688-90c1-4d38582f327b"
                    }
                ]
            },
            "request": {
                "method": "POST",
                "url": "DiagnosticReport/18d8ec74-0eaf-3d96-b74b-a7144acb0eb0"
            }
        },
        {
            "fullUrl": "urn:uuid:39d9fcbd-c623-3f5a-b670-679dcd944b79",
            "resource": {
                "resourceType": "Observation",
                "id": "39d9fcbd-c623-3f5a-b670-679dcd944b79",
                "code": {
                    "coding": [
                        {
                            "code": "26453-1",
                            "display": "Erythrocytes [#/volume] in Blood",
                            "system": "LN"
                        }
                    ],
                    "text": "Erythrocytes [#/volume] in Blood"
                },
                "valueQuantity": {
                    "value": "4.41",
                    "code": "10*6/uL",
                    "unit": "million per microliter",
                    "system": "UCUM"
                },
                "interpretation": [
                    {
                        "coding": [
                            {
                                "code": "N",
                                "display": "Normal",
                                "system": "http://terminology.hl7.org/CodeSystem/v3-ObservationInterpretation"
                            }
                        ]
                    }
                ],
                "status": "final",
                "effectiveDateTime": "2011-01-03T22:34:28.000Z",
                "component": [
                    {
                        "code": {
                            "coding": [
                                {
                                    "code": "26453-1",
                                    "display": "Erythrocytes [#/volume] in Blood",
                                    "system": "LN"
                                }
                            ],
                            "text": "Erythrocytes [#/volume] in Blood"
                        },
                        "valueQuantity": {
                            "value": "4.41",
                            "code": "10*6/uL",
                            "unit": "million per microliter",
                            "system": "UCUM"
                        },
                        "referenceRange": [
                            {
                                "text": "4.3 to 6.2"
                            }
                        ],
                        "interpretation": [
                            {
                                "coding": [
                                    {
                                        "code": "N",
                                        "display": "Normal",
                                        "system": "http://terminology.hl7.org/CodeSystem/v3-ObservationInterpretation"
                                    }
                                ]
                            }
                        ]
                    }
                ],
                "subject": {
                    "reference": "Patient/eb76f96f-dde1-31cd-8815-7c2546dabe7e"
                }
            },
            "request": {
                "method": "POST",
                "url": "Observation/39d9fcbd-c623-3f5a-b670-679dcd944b79"
            }
        },
        {
            "fullUrl": "urn:uuid:eea9769b-e60d-3cc1-8038-83ba69f87d0a",
            "resource": {
                "resourceType": "Observation",
                "id": "eea9769b-e60d-3cc1-8038-83ba69f87d0a",
                "code": {
                    "coding": [
                        {
                            "code": "718-7",
                            "display": "Hemoglobin [Mass/volume] in Blood",
                            "system": "LN"
                        }
                    ],
                    "text": "Hemoglobin [Mass/volume] in Blood"
                },
                "valueQuantity": {
                    "value": "12.5",
                    "code": "g/mL",
                    "unit": "grams per milliliter",
                    "system": "UCUM"
                },
                "interpretation": [
                    {
                        "coding": [
                            {
                                "code": "L",
                                "display": "Low",
                                "system": "http://terminology.hl7.org/CodeSystem/v3-ObservationInterpretation"
                            }
                        ]
                    }
                ],
                "status": "final",
                "effectiveDateTime": "2011-01-03T22:34:28.000Z",
                "component": [
                    {
                        "code": {
                            "coding": [
                                {
                                    "code": "718-7",
                                    "display": "Hemoglobin [Mass/volume] in Blood",
                                    "system": "LN"
                                }
                            ],
                            "text": "Hemoglobin [Mass/volume] in Blood"
                        },
                        "valueQuantity": {
                            "value": "12.5",
                            "code": "g/mL",
                            "unit": "grams per milliliter",
                            "system": "UCUM"
                        },
                        "referenceRange": [
                            {
                                "text": "13 to 18"
                            }
                        ],
                        "interpretation": [
                            {
                                "coding": [
                                    {
                                        "code": "L",
                                        "display": "Low",
                                        "system": "http://terminology.hl7.org/CodeSystem/v3-ObservationInterpretation"
                                    }
                                ]
                            }
                        ]
                    }
                ],
                "subject": {
                    "reference": "Patient/eb76f96f-dde1-31cd-8815-7c2546dabe7e"
                }
            },
            "request": {
                "method": "POST",
                "url": "Observation/eea9769b-e60d-3cc1-8038-83ba69f87d0a"
            }
        },
        {
            "fullUrl": "urn:uuid:04a3ad60-9b19-3600-9d05-557430555340",
            "resource": {
                "resourceType": "Observation",
                "id": "04a3ad60-9b19-3600-9d05-557430555340",
                "code": {
                    "coding": [
                        {
                            "code": "20570-8",
                            "display": "Hematocrit [Volume Fraction] of Blood",
                            "system": "LN"
                        }
                    ],
                    "text": "Hematocrit [Volume Fraction] of Blood"
                },
                "valueQuantity": {
                    "value": "41",
                    "code": "%",
                    "unit": "percent",
                    "system": "UCUM"
                },
                "interpretation": [
                    {
                        "coding": [
                            {
                                "code": "N",
                                "display": "Normal",
                                "system": "http://terminology.hl7.org/CodeSystem/v3-ObservationInterpretation"
                            }
                        ]
                    }
                ],
                "status": "final",
                "effectiveDateTime": "2011-01-03T22:34:28.000Z",
                "component": [
                    {
                        "code": {
                            "coding": [
                                {
                                    "code": "20570-8",
                                    "display": "Hematocrit [Volume Fraction] of Blood",
                                    "system": "LN"
                                }
                            ],
                            "text": "Hematocrit [Volume Fraction] of Blood"
                        },
                        "valueQuantity": {
                            "value": "41",
                            "code": "%",
                            "unit": "percent",
                            "system": "UCUM"
                        },
                        "referenceRange": [
                            {
                                "text": "40 to 52"
                            }
                        ],
                        "interpretation": [
                            {
                                "coding": [
                                    {
                                        "code": "N",
                                        "display": "Normal",
                                        "system": "http://terminology.hl7.org/CodeSystem/v3-ObservationInterpretation"
                                    }
                                ]
                            }
                        ]
                    }
                ],
                "subject": {
                    "reference": "Patient/eb76f96f-dde1-31cd-8815-7c2546dabe7e"
                }
            },
            "request": {
                "method": "POST",
                "url": "Observation/04a3ad60-9b19-3600-9d05-557430555340"
            }
        },
        {
            "fullUrl": "urn:uuid:5e6f097e-c754-3da5-aec2-1f4591cce94e",
            "resource": {
                "resourceType": "Observation",
                "id": "5e6f097e-c754-3da5-aec2-1f4591cce94e",
                "code": {
                    "coding": [
                        {
                            "code": "26464-8",
                            "display": "Leukocytes [#/volume] in Blood",
                            "system": "LN"
                        }
                    ],
                    "text": "Leukocytes [#/volume] in Blood"
                },
                "valueQuantity": {
                    "value": "105600",
                    "code": "{cells}/uL",
                    "unit": "cells per microliter",
                    "system": "UCUM"
                },
                "interpretation": [
                    {
                        "coding": [
                            {
                                "code": "HH",
                                "display": "Critical high",
                                "system": "http://terminology.hl7.org/CodeSystem/v3-ObservationInterpretation"
                            }
                        ]
                    }
                ],
                "status": "final",
                "effectiveDateTime": "2011-01-03T22:34:28.000Z",
                "component": [
                    {
                        "code": {
                            "coding": [
                                {
                                    "code": "26464-8",
                                    "display": "Leukocytes [#/volume] in Blood",
                                    "system": "LN"
                                }
                            ],
                            "text": "Leukocytes [#/volume] in Blood"
                        },
                        "valueQuantity": {
                            "value": "105600",
                            "code": "{cells}/uL",
                            "unit": "cells per microliter",
                            "system": "UCUM"
                        },
                        "referenceRange": [
                            {
                                "text": "4300 to 10800"
                            }
                        ],
                        "interpretation": [
                            {
                                "coding": [
                                    {
                                        "code": "HH",
                                        "display": "Critical high",
                                        "system": "http://terminology.hl7.org/CodeSystem/v3-ObservationInterpretation"
                                    }
                                ]
                            }
                        ]
                    }
                ],
                "subject": {
                    "reference": "Patient/eb76f96f-dde1-31cd-8815-7c2546dabe7e"
                }
            },
            "request": {
                "method": "POST",
                "url": "Observation/5e6f097e-c754-3da5-aec2-1f4591cce94e"
            }
        },
        {
            "fullUrl": "urn:uuid:a59df09b-d3bd-39cd-a2ad-fe3b8533f740",
            "resource": {
                "resourceType": "Observation",
                "id": "a59df09b-d3bd-39cd-a2ad-fe3b8533f740",
                "code": {
                    "coding": [
                        {
                            "code": "26515-7",
                            "display": "Platelets [#/volume] in Blood",
                            "system": "LN"
                        }
                    ],
                    "text": "Platelets [#/volume] in Blood"
                },
                "valueQuantity": {
                    "value": "210000",
                    "code": "{cells}/uL",
                    "unit": "cells per microliter",
                    "system": "UCUM"
                },
                "interpretation": [
                    {
                        "coding": [
                            {
                                "code": "N",
                                "display": "Normal",
                                "system": "http://terminology.hl7.org/CodeSystem/v3-ObservationInterpretation"
                            }
                        ]
                    }
                ],
                "status": "final",
                "effectiveDateTime": "2011-01-03T22:34:28.000Z",
                "component": [
                    {
                        "code": {
                            "coding": [
                                {
                                    "code": "26515-7",
                                    "display": "Platelets [#/volume] in Blood",
                                    "system": "LN"
                                }
                            ],
                            "text": "Platelets [#/volume] in Blood"
                        },
                        "valueQuantity": {
                            "value": "210000",
                            "code": "{cells}/uL",
                            "unit": "cells per microliter",
                            "system": "UCUM"
                        },
                        "referenceRange": [
                            {
                                "text": "150000 to 350000"
                            }
                        ],
                        "interpretation": [
                            {
                                "coding": [
                                    {
                                        "code": "N",
                                        "display": "Normal",
                                        "system": "http://terminology.hl7.org/CodeSystem/v3-ObservationInterpretation"
                                    }
                                ]
                            }
                        ]
                    }
                ],
                "subject": {
                    "reference": "Patient/eb76f96f-dde1-31cd-8815-7c2546dabe7e"
                }
            },
            "request": {
                "method": "POST",
                "url": "Observation/a59df09b-d3bd-39cd-a2ad-fe3b8533f740"
            }
        },
        {
            "fullUrl": "urn:uuid:6bc932dc-4437-365a-b361-92c533a5c79a",
            "resource": {
                "resourceType": "Observation",
                "id": "6bc932dc-4437-365a-b361-92c533a5c79a",
                "code": {
                    "coding": [
                        {
                            "code": "30428-7",
                            "display": "Erythrocyte mean corpuscular volume [Entitic volume]",
                            "system": "LN"
                        }
                    ],
                    "text": "Erythrocyte mean corpuscular volume [Entitic volume]"
                },
                "valueQuantity": {
                    "value": "91",
                    "code": "fL",
                    "unit": "femtoliter",
                    "system": "UCUM"
                },
                "interpretation": [
                    {
                        "coding": [
                            {
                                "code": "N",
                                "display": "Normal",
                                "system": "http://terminology.hl7.org/CodeSystem/v3-ObservationInterpretation"
                            }
                        ]
                    }
                ],
                "status": "final",
                "effectiveDateTime": "2011-01-03T22:34:28.000Z",
                "component": [
                    {
                        "code": {
                            "coding": [
                                {
                                    "code": "30428-7",
                                    "display": "Erythrocyte mean corpuscular volume [Entitic volume]",
                                    "system": "LN"
                                }
                            ],
                            "text": "Erythrocyte mean corpuscular volume [Entitic volume]"
                        },
                        "valueQuantity": {
                            "value": "91",
                            "code": "fL",
                            "unit": "femtoliter",
                            "system": "UCUM"
                        },
                        "referenceRange": [
                            {
                                "text": "80 to 95"
                            }
                        ],
                        "interpretation": [
                            {
                                "coding": [
                                    {
                                        "code": "N",
                                        "display": "Normal",
                                        "system": "http://terminology.hl7.org/CodeSystem/v3-ObservationInterpretation"
                                    }
                                ]
                            }
                        ]
                    }
                ],
                "subject": {
                    "reference": "Patient/eb76f96f-dde1-31cd-8815-7c2546dabe7e"
                }
            },
            "request": {
                "method": "POST",
                "url": "Observation/6bc932dc-4437-365a-b361-92c533a5c79a"
            }
        },
        {
            "fullUrl": "urn:uuid:874110cc-0b60-37a8-a8dc-fe439f3d9b49",
            "resource": {
                "resourceType": "Observation",
                "id": "874110cc-0b60-37a8-a8dc-fe439f3d9b49",
                "code": {
                    "coding": [
                        {
                            "code": "28539-5",
                            "display": "Erythrocyte mean corpuscular hemoglobin [Entitic mass]",
                            "system": "LN"
                        }
                    ],
                    "text": "Erythrocyte mean corpuscular hemoglobin [Entitic mass]"
                },
                "valueQuantity": {
                    "value": "29",
                    "code": "pg/{cell}",
                    "unit": "picograms per cell",
                    "system": "UCUM"
                },
                "interpretation": [
                    {
                        "coding": [
                            {
                                "code": "N",
                                "display": "Normal",
                                "system": "http://terminology.hl7.org/CodeSystem/v3-ObservationInterpretation"
                            }
                        ]
                    }
                ],
                "status": "final",
                "effectiveDateTime": "2011-01-03T22:34:28.000Z",
                "component": [
                    {
                        "code": {
                            "coding": [
                                {
                                    "code": "28539-5",
                                    "display": "Erythrocyte mean corpuscular hemoglobin [Entitic mass]",
                                    "system": "LN"
                                }
                            ],
                            "text": "Erythrocyte mean corpuscular hemoglobin [Entitic mass]"
                        },
                        "valueQuantity": {
                            "value": "29",
                            "code": "pg/{cell}",
                            "unit": "picograms per cell",
                            "system": "UCUM"
                        },
                        "referenceRange": [
                            {
                                "text": "27 to 31"
                            }
                        ],
                        "interpretation": [
                            {
                                "coding": [
                                    {
                                        "code": "N",
                                        "display": "Normal",
                                        "system": "http://terminology.hl7.org/CodeSystem/v3-ObservationInterpretation"
                                    }
                                ]
                            }
                        ]
                    }
                ],
                "subject": {
                    "reference": "Patient/eb76f96f-dde1-31cd-8815-7c2546dabe7e"
                }
            },
            "request": {
                "method": "POST",
                "url": "Observation/874110cc-0b60-37a8-a8dc-fe439f3d9b49"
            }
        },
        {
            "fullUrl": "urn:uuid:35d0a57e-f043-3323-8ad9-28ab9edab72c",
            "resource": {
                "resourceType": "Observation",
                "id": "35d0a57e-f043-3323-8ad9-28ab9edab72c",
                "code": {
                    "coding": [
                        {
                            "code": "28540-3",
                            "display": "Erythrocyte mean corpuscular hemoglobin concentration [Mass/volume]",
                            "system": "LN"
                        }
                    ],
                    "text": "Erythrocyte mean corpuscular hemoglobin concentration [Mass/volume]"
                },
                "valueQuantity": {
                    "value": "32.4",
                    "code": "g/dL",
                    "unit": "grams per deciliter",
                    "system": "UCUM"
                },
                "interpretation": [
                    {
                        "coding": [
                            {
                                "code": "N",
                                "display": "Normal",
                                "system": "http://terminology.hl7.org/CodeSystem/v3-ObservationInterpretation"
                            }
                        ]
                    }
                ],
                "status": "final",
                "effectiveDateTime": "2011-01-03T22:34:28.000Z",
                "component": [
                    {
                        "code": {
                            "coding": [
                                {
                                    "code": "28540-3",
                                    "display": "Erythrocyte mean corpuscular hemoglobin concentration [Mass/volume]",
                                    "system": "LN"
                                }
                            ],
                            "text": "Erythrocyte mean corpuscular hemoglobin concentration [Mass/volume]"
                        },
                        "valueQuantity": {
                            "value": "32.4",
                            "code": "g/dL",
                            "unit": "grams per deciliter",
                            "system": "UCUM"
                        },
                        "referenceRange": [
                            {
                                "text": "32 to 36"
                            }
                        ],
                        "interpretation": [
                            {
                                "coding": [
                                    {
                                        "code": "N",
                                        "display": "Normal",
                                        "system": "http://terminology.hl7.org/CodeSystem/v3-ObservationInterpretation"
                                    }
                                ]
                            }
                        ]
                    }
                ],
                "subject": {
                    "reference": "Patient/eb76f96f-dde1-31cd-8815-7c2546dabe7e"
                }
            },
            "request": {
                "method": "POST",
                "url": "Observation/35d0a57e-f043-3323-8ad9-28ab9edab72c"
            }
        },
        {
            "fullUrl": "urn:uuid:537b0a55-e453-3e37-ad57-e625b7c4bf79",
            "resource": {
                "resourceType": "Observation",
                "id": "537b0a55-e453-3e37-ad57-e625b7c4bf79",
                "code": {
                    "coding": [
                        {
                            "code": "30385-9",
                            "display": "Erythrocyte distribution width [Ratio]",
                            "system": "LN"
                        }
                    ],
                    "text": "Erythrocyte distribution width [Ratio]"
                },
                "valueQuantity": {
                    "value": "10.5",
                    "code": "%",
                    "unit": "percent",
                    "system": "UCUM"
                },
                "interpretation": [
                    {
                        "coding": [
                            {
                                "code": "N",
                                "display": "Normal",
                                "system": "http://terminology.hl7.org/CodeSystem/v3-ObservationInterpretation"
                            }
                        ]
                    }
                ],
                "status": "final",
                "effectiveDateTime": "2011-01-03T22:34:28.000Z",
                "component": [
                    {
                        "code": {
                            "coding": [
                                {
                                    "code": "30385-9",
                                    "display": "Erythrocyte distribution width [Ratio]",
                                    "system": "LN"
                                }
                            ],
                            "text": "Erythrocyte distribution width [Ratio]"
                        },
                        "valueQuantity": {
                            "value": "10.5",
                            "code": "%",
                            "unit": "percent",
                            "system": "UCUM"
                        },
                        "referenceRange": [
                            {
                                "text": "10.2 to 14.5"
                            }
                        ],
                        "interpretation": [
                            {
                                "coding": [
                                    {
                                        "code": "N",
                                        "display": "Normal",
                                        "system": "http://terminology.hl7.org/CodeSystem/v3-ObservationInterpretation"
                                    }
                                ]
                            }
                        ]
                    }
                ],
                "subject": {
                    "reference": "Patient/eb76f96f-dde1-31cd-8815-7c2546dabe7e"
                }
            },
            "request": {
                "method": "POST",
                "url": "Observation/537b0a55-e453-3e37-ad57-e625b7c4bf79"
            }
        },
        {
            "fullUrl": "urn:uuid:184f556d-f8a9-31ac-9b92-4e0c4403e3e6",
            "resource": {
                "resourceType": "Observation",
                "id": "184f556d-f8a9-31ac-9b92-4e0c4403e3e6",
                "code": {
                    "coding": [
                        {
                            "code": "26444-0",
                            "display": "Basophils [#/volume] in Blood",
                            "system": "LN"
                        }
                    ],
                    "text": "Basophils [#/volume] in Blood"
                },
                "valueQuantity": {
                    "value": "0.1",
                    "code": "10*3/uL",
                    "unit": "thousand per microliter",
                    "system": "UCUM"
                },
                "interpretation": [
                    {
                        "coding": [
                            {
                                "code": "N",
                                "display": "Normal",
                                "system": "http://terminology.hl7.org/CodeSystem/v3-ObservationInterpretation"
                            }
                        ]
                    }
                ],
                "status": "final",
                "effectiveDateTime": "2011-01-03T22:34:28.000Z",
                "component": [
                    {
                        "code": {
                            "coding": [
                                {
                                    "code": "26444-0",
                                    "display": "Basophils [#/volume] in Blood",
                                    "system": "LN"
                                }
                            ],
                            "text": "Basophils [#/volume] in Blood"
                        },
                        "valueQuantity": {
                            "value": "0.1",
                            "code": "10*3/uL",
                            "unit": "thousand per microliter",
                            "system": "UCUM"
                        },
                        "referenceRange": [
                            {
                                "text": "0 to 0.3"
                            }
                        ],
                        "interpretation": [
                            {
                                "coding": [
                                    {
                                        "code": "N",
                                        "display": "Normal",
                                        "system": "http://terminology.hl7.org/CodeSystem/v3-ObservationInterpretation"
                                    }
                                ]
                            }
                        ]
                    }
                ],
                "subject": {
                    "reference": "Patient/eb76f96f-dde1-31cd-8815-7c2546dabe7e"
                }
            },
            "request": {
                "method": "POST",
                "url": "Observation/184f556d-f8a9-31ac-9b92-4e0c4403e3e6"
            }
        },
        {
            "fullUrl": "urn:uuid:9dfc7d81-fbdf-3ecf-9f1d-0219e05f9093",
            "resource": {
                "resourceType": "Observation",
                "id": "9dfc7d81-fbdf-3ecf-9f1d-0219e05f9093",
                "code": {
                    "coding": [
                        {
                            "code": "30180-4",
                            "display": "Basophils/100 leukocytes in Blood",
                            "system": "LN"
                        }
                    ],
                    "text": "Basophils/100 leukocytes in Blood"
                },
                "valueQuantity": {
                    "value": "0.1",
                    "code": "%",
                    "unit": "percent",
                    "system": "UCUM"
                },
                "interpretation": [
                    {
                        "coding": [
                            {
                                "code": "N",
                                "display": "Normal",
                                "system": "http://terminology.hl7.org/CodeSystem/v3-ObservationInterpretation"
                            }
                        ]
                    }
                ],
                "status": "final",
                "effectiveDateTime": "2011-01-03T22:34:28.000Z",
                "component": [
                    {
                        "code": {
                            "coding": [
                                {
                                    "code": "30180-4",
                                    "display": "Basophils/100 leukocytes in Blood",
                                    "system": "LN"
                                }
                            ],
                            "text": "Basophils/100 leukocytes in Blood"
                        },
                        "valueQuantity": {
                            "value": "0.1",
                            "code": "%",
                            "unit": "percent",
                            "system": "UCUM"
                        },
                        "referenceRange": [
                            {
                                "text": "0 to 2"
                            }
                        ],
                        "interpretation": [
                            {
                                "coding": [
                                    {
                                        "code": "N",
                                        "display": "Normal",
                                        "system": "http://terminology.hl7.org/CodeSystem/v3-ObservationInterpretation"
                                    }
                                ]
                            }
                        ]
                    }
                ],
                "subject": {
                    "reference": "Patient/eb76f96f-dde1-31cd-8815-7c2546dabe7e"
                }
            },
            "request": {
                "method": "POST",
                "url": "Observation/9dfc7d81-fbdf-3ecf-9f1d-0219e05f9093"
            }
        },
        {
            "fullUrl": "urn:uuid:d9602744-f15f-3ba5-b952-9fe2fb9bff77",
            "resource": {
                "resourceType": "Observation",
                "id": "d9602744-f15f-3ba5-b952-9fe2fb9bff77",
                "code": {
                    "coding": [
                        {
                            "code": "26484-6",
                            "display": "Monocytes [#/volume] in Blood",
                            "system": "LN"
                        }
                    ],
                    "text": "Monocytes [#/volume] in Blood"
                },
                "valueQuantity": {
                    "value": "3",
                    "code": "10*3/uL",
                    "unit": "thousand per microliter",
                    "system": "UCUM"
                },
                "interpretation": [
                    {
                        "coding": [
                            {
                                "code": "N",
                                "display": "Normal",
                                "system": "http://terminology.hl7.org/CodeSystem/v3-ObservationInterpretation"
                            }
                        ]
                    }
                ],
                "status": "final",
                "effectiveDateTime": "2011-01-03T22:34:28.000Z",
                "component": [
                    {
                        "code": {
                            "coding": [
                                {
                                    "code": "26484-6",
                                    "display": "Monocytes [#/volume] in Blood",
                                    "system": "LN"
                                }
                            ],
                            "text": "Monocytes [#/volume] in Blood"
                        },
                        "valueQuantity": {
                            "value": "3",
                            "code": "10*3/uL",
                            "unit": "thousand per microliter",
                            "system": "UCUM"
                        },
                        "referenceRange": [
                            {
                                "text": "0.0 to 13.0"
                            }
                        ],
                        "interpretation": [
                            {
                                "coding": [
                                    {
                                        "code": "N",
                                        "display": "Normal",
                                        "system": "http://terminology.hl7.org/CodeSystem/v3-ObservationInterpretation"
                                    }
                                ]
                            }
                        ]
                    }
                ],
                "subject": {
                    "reference": "Patient/eb76f96f-dde1-31cd-8815-7c2546dabe7e"
                }
            },
            "request": {
                "method": "POST",
                "url": "Observation/d9602744-f15f-3ba5-b952-9fe2fb9bff77"
            }
        },
        {
            "fullUrl": "urn:uuid:0d14c4b4-137f-35fb-9e29-9df3dbb8315e",
            "resource": {
                "resourceType": "Observation",
                "id": "0d14c4b4-137f-35fb-9e29-9df3dbb8315e",
                "code": {
                    "coding": [
                        {
                            "code": "26485-3",
                            "display": "Monocytes/100 leukocytes in Blood",
                            "system": "LN"
                        }
                    ],
                    "text": "Monocytes/100 leukocytes in Blood"
                },
                "valueQuantity": {
                    "value": "3",
                    "code": "%",
                    "unit": "percent",
                    "system": "UCUM"
                },
                "interpretation": [
                    {
                        "coding": [
                            {
                                "code": "N",
                                "display": "Normal",
                                "system": "http://terminology.hl7.org/CodeSystem/v3-ObservationInterpretation"
                            }
                        ]
                    }
                ],
                "status": "final",
                "effectiveDateTime": "2011-01-03T22:34:28.000Z",
                "component": [
                    {
                        "code": {
                            "coding": [
                                {
                                    "code": "26485-3",
                                    "display": "Monocytes/100 leukocytes in Blood",
                                    "system": "LN"
                                }
                            ],
                            "text": "Monocytes/100 leukocytes in Blood"
                        },
                        "valueQuantity": {
                            "value": "3",
                            "code": "%",
                            "unit": "percent",
                            "system": "UCUM"
                        },
                        "referenceRange": [
                            {
                                "text": "0 to 10"
                            }
                        ],
                        "interpretation": [
                            {
                                "coding": [
                                    {
                                        "code": "N",
                                        "display": "Normal",
                                        "system": "http://terminology.hl7.org/CodeSystem/v3-ObservationInterpretation"
                                    }
                                ]
                            }
                        ]
                    }
                ],
                "subject": {
                    "reference": "Patient/eb76f96f-dde1-31cd-8815-7c2546dabe7e"
                }
            },
            "request": {
                "method": "POST",
                "url": "Observation/0d14c4b4-137f-35fb-9e29-9df3dbb8315e"
            }
        },
        {
            "fullUrl": "urn:uuid:04d3f283-040d-386c-abfc-12f1b89fca66",
            "resource": {
                "resourceType": "Observation",
                "id": "04d3f283-040d-386c-abfc-12f1b89fca66",
                "code": {
                    "coding": [
                        {
                            "code": "26449-9",
                            "display": "Eosinophils [#/volume] in Blood",
                            "system": "LN"
                        }
                    ],
                    "text": "Eosinophils [#/volume] in Blood"
                },
                "valueQuantity": {
                    "value": "2.1",
                    "code": "10*3/uL",
                    "unit": "thousand per microliter",
                    "system": "UCUM"
                },
                "interpretation": [
                    {
                        "coding": [
                            {
                                "code": "HH",
                                "display": "Critical high",
                                "system": "http://terminology.hl7.org/CodeSystem/v3-ObservationInterpretation"
                            }
                        ]
                    }
                ],
                "status": "final",
                "effectiveDateTime": "2011-01-03T22:34:28.000Z",
                "component": [
                    {
                        "code": {
                            "coding": [
                                {
                                    "code": "26449-9",
                                    "display": "Eosinophils [#/volume] in Blood",
                                    "system": "LN"
                                }
                            ],
                            "text": "Eosinophils [#/volume] in Blood"
                        },
                        "valueQuantity": {
                            "value": "2.1",
                            "code": "10*3/uL",
                            "unit": "thousand per microliter",
                            "system": "UCUM"
                        },
                        "referenceRange": [
                            {
                                "text": "0.0 to 0.45"
                            }
                        ],
                        "interpretation": [
                            {
                                "coding": [
                                    {
                                        "code": "HH",
                                        "display": "Critical high",
                                        "system": "http://terminology.hl7.org/CodeSystem/v3-ObservationInterpretation"
                                    }
                                ]
                            }
                        ]
                    }
                ],
                "subject": {
                    "reference": "Patient/eb76f96f-dde1-31cd-8815-7c2546dabe7e"
                }
            },
            "request": {
                "method": "POST",
                "url": "Observation/04d3f283-040d-386c-abfc-12f1b89fca66"
            }
        },
        {
            "fullUrl": "urn:uuid:5caee591-1624-3345-a1a7-ec9ef093ec38",
            "resource": {
                "resourceType": "Observation",
                "id": "5caee591-1624-3345-a1a7-ec9ef093ec38",
                "code": {
                    "coding": [
                        {
                            "code": "26450-7",
                            "display": "Eosinophils/100 leukocytes in Blood",
                            "system": "LN"
                        }
                    ],
                    "text": "Eosinophils/100 leukocytes in Blood"
                },
                "valueQuantity": {
                    "value": "2",
                    "code": "%",
                    "unit": "percent",
                    "system": "UCUM"
                },
                "interpretation": [
                    {
                        "coding": [
                            {
                                "code": "N",
                                "display": "Normal",
                                "system": "http://terminology.hl7.org/CodeSystem/v3-ObservationInterpretation"
                            }
                        ]
                    }
                ],
                "status": "final",
                "effectiveDateTime": "2011-01-03T22:34:28.000Z",
                "component": [
                    {
                        "code": {
                            "coding": [
                                {
                                    "code": "26450-7",
                                    "display": "Eosinophils/100 leukocytes in Blood",
                                    "system": "LN"
                                }
                            ],
                            "text": "Eosinophils/100 leukocytes in Blood"
                        },
                        "valueQuantity": {
                            "value": "2",
                            "code": "%",
                            "unit": "percent",
                            "system": "UCUM"
                        },
                        "referenceRange": [
                            {
                                "text": "0 to 6"
                            }
                        ],
                        "interpretation": [
                            {
                                "coding": [
                                    {
                                        "code": "N",
                                        "display": "Normal",
                                        "system": "http://terminology.hl7.org/CodeSystem/v3-ObservationInterpretation"
                                    }
                                ]
                            }
                        ]
                    }
                ],
                "subject": {
                    "reference": "Patient/eb76f96f-dde1-31cd-8815-7c2546dabe7e"
                }
            },
            "request": {
                "method": "POST",
                "url": "Observation/5caee591-1624-3345-a1a7-ec9ef093ec38"
            }
        },
        {
            "fullUrl": "urn:uuid:1b33cac6-a079-3733-b964-d5a3c68389fa",
            "resource": {
                "resourceType": "Observation",
                "id": "1b33cac6-a079-3733-b964-d5a3c68389fa",
                "code": {
                    "coding": [
                        {
                            "code": "26474-7",
                            "display": "Lymphocytes [#/volume] in Blood",
                            "system": "LN"
                        }
                    ],
                    "text": "Lymphocytes [#/volume] in Blood"
                },
                "valueQuantity": {
                    "value": "41.2",
                    "code": "10*3/uL",
                    "unit": "thousand per microliter",
                    "system": "UCUM"
                },
                "interpretation": [
                    {
                        "coding": [
                            {
                                "code": "HH",
                                "display": "Critical high",
                                "system": "http://terminology.hl7.org/CodeSystem/v3-ObservationInterpretation"
                            }
                        ]
                    }
                ],
                "status": "final",
                "effectiveDateTime": "2011-01-03T22:34:28.000Z",
                "component": [
                    {
                        "code": {
                            "coding": [
                                {
                                    "code": "26474-7",
                                    "display": "Lymphocytes [#/volume] in Blood",
                                    "system": "LN"
                                }
                            ],
                            "text": "Lymphocytes [#/volume] in Blood"
                        },
                        "valueQuantity": {
                            "value": "41.2",
                            "code": "10*3/uL",
                            "unit": "thousand per microliter",
                            "system": "UCUM"
                        },
                        "referenceRange": [
                            {
                                "text": "1.0 to 4.8"
                            }
                        ],
                        "interpretation": [
                            {
                                "coding": [
                                    {
                                        "code": "HH",
                                        "display": "Critical high",
                                        "system": "http://terminology.hl7.org/CodeSystem/v3-ObservationInterpretation"
                                    }
                                ]
                            }
                        ]
                    }
                ],
                "subject": {
                    "reference": "Patient/eb76f96f-dde1-31cd-8815-7c2546dabe7e"
                }
            },
            "request": {
                "method": "POST",
                "url": "Observation/1b33cac6-a079-3733-b964-d5a3c68389fa"
            }
        },
        {
            "fullUrl": "urn:uuid:f0651c8e-62c5-35b7-8e3e-1f61428d6de3",
            "resource": {
                "resourceType": "Observation",
                "id": "f0651c8e-62c5-35b7-8e3e-1f61428d6de3",
                "code": {
                    "coding": [
                        {
                            "code": "26478-8",
                            "display": "Lymphocytes/100 leukocytes in Blood",
                            "system": "LN"
                        }
                    ],
                    "text": "Lymphocytes/100 leukocytes in Blood"
                },
                "valueQuantity": {
                    "value": "39",
                    "code": "%",
                    "unit": "percent",
                    "system": "UCUM"
                },
                "interpretation": [
                    {
                        "coding": [
                            {
                                "code": "N",
                                "display": "Normal",
                                "system": "http://terminology.hl7.org/CodeSystem/v3-ObservationInterpretation"
                            }
                        ]
                    }
                ],
                "status": "final",
                "effectiveDateTime": "2011-01-03T22:34:28.000Z",
                "component": [
                    {
                        "code": {
                            "coding": [
                                {
                                    "code": "26478-8",
                                    "display": "Lymphocytes/100 leukocytes in Blood",
                                    "system": "LN"
                                }
                            ],
                            "text": "Lymphocytes/100 leukocytes in Blood"
                        },
                        "valueQuantity": {
                            "value": "39",
                            "code": "%",
                            "unit": "percent",
                            "system": "UCUM"
                        },
                        "referenceRange": [
                            {
                                "text": "15.0 to 45.0"
                            }
                        ],
                        "interpretation": [
                            {
                                "coding": [
                                    {
                                        "code": "N",
                                        "display": "Normal",
                                        "system": "http://terminology.hl7.org/CodeSystem/v3-ObservationInterpretation"
                                    }
                                ]
                            }
                        ]
                    }
                ],
                "subject": {
                    "reference": "Patient/eb76f96f-dde1-31cd-8815-7c2546dabe7e"
                }
            },
            "request": {
                "method": "POST",
                "url": "Observation/f0651c8e-62c5-35b7-8e3e-1f61428d6de3"
            }
        },
        {
            "fullUrl": "urn:uuid:58e77de2-16ee-3f17-85c3-545e7fdd82d3",
            "resource": {
                "resourceType": "Observation",
                "id": "58e77de2-16ee-3f17-85c3-545e7fdd82d3",
                "code": {
                    "coding": [
                        {
                            "code": "26499-4",
                            "display": "Neutrophils [#/volume] in Blood",
                            "system": "LN"
                        }
                    ],
                    "text": "Neutrophils [#/volume] in Blood"
                },
                "valueQuantity": {
                    "value": "58",
                    "code": "10*3/uL",
                    "unit": "thousand per microliter",
                    "system": "UCUM"
                },
                "interpretation": [
                    {
                        "coding": [
                            {
                                "code": "HH",
                                "display": "Critical high",
                                "system": "http://terminology.hl7.org/CodeSystem/v3-ObservationInterpretation"
                            }
                        ]
                    }
                ],
                "status": "final",
                "effectiveDateTime": "2011-01-03T22:34:28.000Z",
                "component": [
                    {
                        "code": {
                            "coding": [
                                {
                                    "code": "26499-4",
                                    "display": "Neutrophils [#/volume] in Blood",
                                    "system": "LN"
                                }
                            ],
                            "text": "Neutrophils [#/volume] in Blood"
                        },
                        "valueQuantity": {
                            "value": "58",
                            "code": "10*3/uL",
                            "unit": "thousand per microliter",
                            "system": "UCUM"
                        },
                        "referenceRange": [
                            {
                                "text": "1.5 to 7.0"
                            }
                        ],
                        "interpretation": [
                            {
                                "coding": [
                                    {
                                        "code": "HH",
                                        "display": "Critical high",
                                        "system": "http://terminology.hl7.org/CodeSystem/v3-ObservationInterpretation"
                                    }
                                ]
                            }
                        ]
                    }
                ],
                "subject": {
                    "reference": "Patient/eb76f96f-dde1-31cd-8815-7c2546dabe7e"
                }
            },
            "request": {
                "method": "POST",
                "url": "Observation/58e77de2-16ee-3f17-85c3-545e7fdd82d3"
            }
        },
        {
            "fullUrl": "urn:uuid:9dd8933d-0098-3a15-8170-50baa513990a",
            "resource": {
                "resourceType": "Observation",
                "id": "9dd8933d-0098-3a15-8170-50baa513990a",
                "code": {
                    "coding": [
                        {
                            "code": "26511-6",
                            "display": "Neutrophils/100 leukocytes in Blood",
                            "system": "LN"
                        }
                    ],
                    "text": "Neutrophils/100 leukocytes in Blood"
                },
                "valueQuantity": {
                    "value": "55",
                    "code": "%",
                    "unit": "percent",
                    "system": "UCUM"
                },
                "interpretation": [
                    {
                        "coding": [
                            {
                                "code": "N",
                                "display": "Normal",
                                "system": "http://terminology.hl7.org/CodeSystem/v3-ObservationInterpretation"
                            }
                        ]
                    }
                ],
                "status": "final",
                "effectiveDateTime": "2011-01-03T22:34:28.000Z",
                "component": [
                    {
                        "code": {
                            "coding": [
                                {
                                    "code": "26511-6",
                                    "display": "Neutrophils/100 leukocytes in Blood",
                                    "system": "LN"
                                }
                            ],
                            "text": "Neutrophils/100 leukocytes in Blood"
                        },
                        "valueQuantity": {
                            "value": "55",
                            "code": "%",
                            "unit": "percent",
                            "system": "UCUM"
                        },
                        "referenceRange": [
                            {
                                "text": "50 to 73"
                            }
                        ],
                        "interpretation": [
                            {
                                "coding": [
                                    {
                                        "code": "N",
                                        "display": "Normal",
                                        "system": "http://terminology.hl7.org/CodeSystem/v3-ObservationInterpretation"
                                    }
                                ]
                            }
                        ]
                    }
                ],
                "subject": {
                    "reference": "Patient/eb76f96f-dde1-31cd-8815-7c2546dabe7e"
                }
            },
            "request": {
                "method": "POST",
                "url": "Observation/9dd8933d-0098-3a15-8170-50baa513990a"
            }
        },
        {
            "fullUrl": "urn:uuid:ef637f95-5883-35ee-a356-9da4a67e4361",
            "resource": {
                "resourceType": "Observation",
                "id": "ef637f95-5883-35ee-a356-9da4a67e4361",
                "code": {
                    "coding": [
                        {
                            "code": "38892-6",
                            "display": "Anisocytosis [Presence] in Blood",
                            "system": "LN"
                        }
                    ],
                    "text": "Anisocytosis [Presence] in Blood"
                },
                "valueCodeableConcept": {
                    "coding": [
                        {
                            "code": "260348001",
                            "display": "Present ++ out of ++++",
                            "system": "SCT"
                        }
                    ],
                    "text": "Moderate Anisocytosis"
                },
                "interpretation": [
                    {
                        "coding": [
                            {
                                "code": "A",
                                "display": "Abnormal",
                                "system": "http://terminology.hl7.org/CodeSystem/v3-ObservationInterpretation"
                            }
                        ]
                    }
                ],
                "status": "final",
                "effectiveDateTime": "2011-01-03T22:34:28.000Z",
                "component": [
                    {
                        "code": {
                            "coding": [
                                {
                                    "code": "38892-6",
                                    "display": "Anisocytosis [Presence] in Blood",
                                    "system": "LN"
                                }
                            ],
                            "text": "Anisocytosis [Presence] in Blood"
                        },
                        "interpretation": [
                            {
                                "coding": [
                                    {
                                        "code": "A",
                                        "display": "Abnormal",
                                        "system": "http://terminology.hl7.org/CodeSystem/v3-ObservationInterpretation"
                                    }
                                ]
                            }
                        ]
                    }
                ],
                "subject": {
                    "reference": "Patient/eb76f96f-dde1-31cd-8815-7c2546dabe7e"
                }
            },
            "request": {
                "method": "POST",
                "url": "Observation/ef637f95-5883-35ee-a356-9da4a67e4361"
            }
        },
        {
            "fullUrl": "urn:uuid:0b17e383-723b-33f1-a72c-0cbe31d9fb1e",
            "resource": {
                "resourceType": "Observation",
                "id": "0b17e383-723b-33f1-a72c-0cbe31d9fb1e",
                "code": {
                    "coding": [
                        {
                            "code": "30400-6",
                            "display": "Hypochromia [Presence] in Blood",
                            "system": "LN"
                        }
                    ],
                    "text": "Hypochromia [Presence] in Blood"
                },
                "valueCodeableConcept": {
                    "coding": [
                        {
                            "code": "260415000",
                            "display": "not detected",
                            "system": "SCT"
                        }
                    ],
                    "text": "None seen"
                },
                "interpretation": [
                    {
                        "coding": [
                            {
                                "code": "N",
                                "display": "Normal",
                                "system": "http://terminology.hl7.org/CodeSystem/v3-ObservationInterpretation"
                            }
                        ]
                    }
                ],
                "status": "final",
                "effectiveDateTime": "2011-01-03T22:34:28.000Z",
                "component": [
                    {
                        "code": {
                            "coding": [
                                {
                                    "code": "30400-6",
                                    "display": "Hypochromia [Presence] in Blood",
                                    "system": "LN"
                                }
                            ],
                            "text": "Hypochromia [Presence] in Blood"
                        },
                        "interpretation": [
                            {
                                "coding": [
                                    {
                                        "code": "N",
                                        "display": "Normal",
                                        "system": "http://terminology.hl7.org/CodeSystem/v3-ObservationInterpretation"
                                    }
                                ]
                            }
                        ]
                    }
                ],
                "subject": {
                    "reference": "Patient/eb76f96f-dde1-31cd-8815-7c2546dabe7e"
                }
            },
            "request": {
                "method": "POST",
                "url": "Observation/0b17e383-723b-33f1-a72c-0cbe31d9fb1e"
            }
        },
        {
            "fullUrl": "urn:uuid:f0b8396b-c890-38b5-936f-1c28408b978a",
            "resource": {
                "resourceType": "Observation",
                "id": "f0b8396b-c890-38b5-936f-1c28408b978a",
                "code": {
                    "coding": [
                        {
                            "code": "30424-6",
                            "display": "Macrocytes [Presence] in Blood",
                            "system": "LN"
                        }
                    ],
                    "text": "Macrocytes [Presence] in Blood"
                },
                "valueCodeableConcept": {
                    "coding": [
                        {
                            "code": "260415000",
                            "display": "not detected",
                            "system": "SCT"
                        }
                    ],
                    "text": "None seen"
                },
                "interpretation": [
                    {
                        "coding": [
                            {
                                "code": "N",
                                "display": "Normal",
                                "system": "http://terminology.hl7.org/CodeSystem/v3-ObservationInterpretation"
                            }
                        ]
                    }
                ],
                "status": "final",
                "effectiveDateTime": "2011-01-03T22:34:28.000Z",
                "component": [
                    {
                        "code": {
                            "coding": [
                                {
                                    "code": "30424-6",
                                    "display": "Macrocytes [Presence] in Blood",
                                    "system": "LN"
                                }
                            ],
                            "text": "Macrocytes [Presence] in Blood"
                        },
                        "interpretation": [
                            {
                                "coding": [
                                    {
                                        "code": "N",
                                        "display": "Normal",
                                        "system": "http://terminology.hl7.org/CodeSystem/v3-ObservationInterpretation"
                                    }
                                ]
                            }
                        ]
                    }
                ],
                "subject": {
                    "reference": "Patient/eb76f96f-dde1-31cd-8815-7c2546dabe7e"
                }
            },
            "request": {
                "method": "POST",
                "url": "Observation/f0b8396b-c890-38b5-936f-1c28408b978a"
            }
        },
        {
            "fullUrl": "urn:uuid:f412b0a5-397d-3932-b61e-4cf27f6f7d9c",
            "resource": {
                "resourceType": "Observation",
                "id": "f412b0a5-397d-3932-b61e-4cf27f6f7d9c",
                "code": {
                    "coding": [
                        {
                            "code": "30434-5",
                            "display": "Microcytes [Presence] in Blood",
                            "system": "LN"
                        }
                    ],
                    "text": "Microcytes [Presence] in Blood"
                },
                "valueCodeableConcept": {
                    "coding": [
                        {
                            "code": "260415000",
                            "display": "not detected",
                            "system": "SCT"
                        }
                    ],
                    "text": "None seen"
                },
                "interpretation": [
                    {
                        "coding": [
                            {
                                "code": "N",
                                "display": "Normal",
                                "system": "http://terminology.hl7.org/CodeSystem/v3-ObservationInterpretation"
                            }
                        ]
                    }
                ],
                "status": "final",
                "effectiveDateTime": "2011-01-03T22:34:28.000Z",
                "component": [
                    {
                        "code": {
                            "coding": [
                                {
                                    "code": "30434-5",
                                    "display": "Microcytes [Presence] in Blood",
                                    "system": "LN"
                                }
                            ],
                            "text": "Microcytes [Presence] in Blood"
                        },
                        "interpretation": [
                            {
                                "coding": [
                                    {
                                        "code": "N",
                                        "display": "Normal",
                                        "system": "http://terminology.hl7.org/CodeSystem/v3-ObservationInterpretation"
                                    }
                                ]
                            }
                        ]
                    }
                ],
                "subject": {
                    "reference": "Patient/eb76f96f-dde1-31cd-8815-7c2546dabe7e"
                }
            },
            "request": {
                "method": "POST",
                "url": "Observation/f412b0a5-397d-3932-b61e-4cf27f6f7d9c"
            }
        },
        {
            "fullUrl": "urn:uuid:3e6d0937-0603-3fb7-9f2d-636d3c1faafa",
            "resource": {
                "resourceType": "Observation",
                "id": "3e6d0937-0603-3fb7-9f2d-636d3c1faafa",
                "code": {
                    "coding": [
                        {
                            "code": "779-9",
                            "display": "Poikilocytosis [Presence] in Blood by Light microscopy",
                            "system": "LN"
                        }
                    ],
                    "text": "Poikilocytosis [Presence] in Blood by Light microscopy"
                },
                "valueCodeableConcept": {
                    "coding": [
                        {
                            "code": "260415000",
                            "display": "not detected",
                            "system": "SCT"
                        }
                    ],
                    "text": "None seen"
                },
                "interpretation": [
                    {
                        "coding": [
                            {
                                "code": "N",
                                "display": "Normal",
                                "system": "http://terminology.hl7.org/CodeSystem/v3-ObservationInterpretation"
                            }
                        ]
                    }
                ],
                "status": "final",
                "effectiveDateTime": "2011-01-03T22:34:28.000Z",
                "component": [
                    {
                        "code": {
                            "coding": [
                                {
                                    "code": "779-9",
                                    "display": "Poikilocytosis [Presence] in Blood by Light microscopy",
                                    "system": "LN"
                                }
                            ],
                            "text": "Poikilocytosis [Presence] in Blood by Light microscopy"
                        },
                        "interpretation": [
                            {
                                "coding": [
                                    {
                                        "code": "N",
                                        "display": "Normal",
                                        "system": "http://terminology.hl7.org/CodeSystem/v3-ObservationInterpretation"
                                    }
                                ]
                            }
                        ]
                    }
                ],
                "subject": {
                    "reference": "Patient/eb76f96f-dde1-31cd-8815-7c2546dabe7e"
                }
            },
            "request": {
                "method": "POST",
                "url": "Observation/3e6d0937-0603-3fb7-9f2d-636d3c1faafa"
            }
        },
        {
            "fullUrl": "urn:uuid:4f77e51d-41e2-3be0-acc1-a2c2fb167c98",
            "resource": {
                "resourceType": "Observation",
                "id": "4f77e51d-41e2-3be0-acc1-a2c2fb167c98",
                "code": {
                    "coding": [
                        {
                            "code": "10378-8",
                            "display": "Polychromasia [Presence] in Blood by Light microscopy",
                            "system": "LN"
                        }
                    ],
                    "text": "Polychromasia [Presence] in Blood by Light microscopy"
                },
                "valueCodeableConcept": {
                    "coding": [
                        {
                            "code": "260415000",
                            "display": "not detected",
                            "system": "SCT"
                        }
                    ],
                    "text": "None seen"
                },
                "interpretation": [
                    {
                        "coding": [
                            {
                                "code": "N",
                                "display": "Normal",
                                "system": "http://terminology.hl7.org/CodeSystem/v3-ObservationInterpretation"
                            }
                        ]
                    }
                ],
                "status": "final",
                "effectiveDateTime": "2011-01-03T22:34:28.000Z",
                "component": [
                    {
                        "code": {
                            "coding": [
                                {
                                    "code": "10378-8",
                                    "display": "Polychromasia [Presence] in Blood by Light microscopy",
                                    "system": "LN"
                                }
                            ],
                            "text": "Polychromasia [Presence] in Blood by Light microscopy"
                        },
                        "interpretation": [
                            {
                                "coding": [
                                    {
                                        "code": "N",
                                        "display": "Normal",
                                        "system": "http://terminology.hl7.org/CodeSystem/v3-ObservationInterpretation"
                                    }
                                ]
                            }
                        ]
                    }
                ],
                "subject": {
                    "reference": "Patient/eb76f96f-dde1-31cd-8815-7c2546dabe7e"
                }
            },
            "request": {
                "method": "POST",
                "url": "Observation/4f77e51d-41e2-3be0-acc1-a2c2fb167c98"
            }
        },
        {
            "fullUrl": "urn:uuid:990d2140-9688-3eef-bb3b-3a8c4e2a5bdf",
            "resource": {
                "resourceType": "Observation",
                "id": "990d2140-9688-3eef-bb3b-3a8c4e2a5bdf",
                "code": {
                    "coding": [
                        {
                            "code": "6742-1",
                            "display": "Erythrocyte morphology finding [Identifier] in Blood",
                            "system": "LN"
                        }
                    ],
                    "text": "Erythrocyte morphology finding [Identifier] in Blood"
                },
                "valueString": "Many spherocytes present.",
                "interpretation": [
                    {
                        "coding": [
                            {
                                "code": "A",
                                "display": "Abnormal",
                                "system": "http://terminology.hl7.org/CodeSystem/v3-ObservationInterpretation"
                            }
                        ]
                    }
                ],
                "status": "final",
                "effectiveDateTime": "2011-01-03T22:34:28.000Z",
                "component": [
                    {
                        "code": {
                            "coding": [
                                {
                                    "code": "6742-1",
                                    "display": "Erythrocyte morphology finding [Identifier] in Blood",
                                    "system": "LN"
                                }
                            ],
                            "text": "Erythrocyte morphology finding [Identifier] in Blood"
                        },
                        "valueString": "Many spherocytes present.",
                        "interpretation": [
                            {
                                "coding": [
                                    {
                                        "code": "A",
                                        "display": "Abnormal",
                                        "system": "http://terminology.hl7.org/CodeSystem/v3-ObservationInterpretation"
                                    }
                                ]
                            }
                        ]
                    }
                ],
                "subject": {
                    "reference": "Patient/eb76f96f-dde1-31cd-8815-7c2546dabe7e"
                }
            },
            "request": {
                "method": "POST",
                "url": "Observation/990d2140-9688-3eef-bb3b-3a8c4e2a5bdf"
            }
        },
        {
            "fullUrl": "urn:uuid:7b0f91f6-36a8-399d-8f5b-450aecf3a1f8",
            "resource": {
                "resourceType": "Observation",
                "id": "7b0f91f6-36a8-399d-8f5b-450aecf3a1f8",
                "code": {
                    "coding": [
                        {
                            "code": "11156-7",
                            "display": "Leukocyte morphology finding [Identifier] in Blood",
                            "system": "LN"
                        }
                    ],
                    "text": "Leukocyte morphology finding [Identifier] in Blood"
                },
                "valueString": "Reactive morphology in lymphoid cells.",
                "interpretation": [
                    {
                        "coding": [
                            {
                                "code": "A",
                                "display": "Abnormal",
                                "system": "http://terminology.hl7.org/CodeSystem/v3-ObservationInterpretation"
                            }
                        ]
                    }
                ],
                "status": "final",
                "effectiveDateTime": "2011-01-03T22:34:28.000Z",
                "component": [
                    {
                        "code": {
                            "coding": [
                                {
                                    "code": "11156-7",
                                    "display": "Leukocyte morphology finding [Identifier] in Blood",
                                    "system": "LN"
                                }
                            ],
                            "text": "Leukocyte morphology finding [Identifier] in Blood"
                        },
                        "valueString": "Reactive morphology in lymphoid cells.",
                        "interpretation": [
                            {
                                "coding": [
                                    {
                                        "code": "A",
                                        "display": "Abnormal",
                                        "system": "http://terminology.hl7.org/CodeSystem/v3-ObservationInterpretation"
                                    }
                                ]
                            }
                        ]
                    }
                ],
                "subject": {
                    "reference": "Patient/eb76f96f-dde1-31cd-8815-7c2546dabe7e"
                }
            },
            "request": {
                "method": "POST",
                "url": "Observation/7b0f91f6-36a8-399d-8f5b-450aecf3a1f8"
            }
        },
        {
            "fullUrl": "urn:uuid:e677e532-fd63-34a1-ab2b-9edb180a7768",
            "resource": {
                "resourceType": "Observation",
                "id": "e677e532-fd63-34a1-ab2b-9edb180a7768",
                "code": {
                    "coding": [
                        {
                            "code": "11125-2",
                            "display": "Platelet morphology finding [Identifier] in Blood",
                            "system": "LN"
                        }
                    ],
                    "text": "Platelet morphology finding [Identifier] in Blood"
                },
                "valueString": "Platelets show defective granulation.",
                "interpretation": [
                    {
                        "coding": [
                            {
                                "code": "A",
                                "display": "Abnormal",
                                "system": "http://terminology.hl7.org/CodeSystem/v3-ObservationInterpretation"
                            }
                        ]
                    }
                ],
                "status": "final",
                "effectiveDateTime": "2011-01-03T22:34:28.000Z",
                "component": [
                    {
                        "code": {
                            "coding": [
                                {
                                    "code": "11125-2",
                                    "display": "Platelet morphology finding [Identifier] in Blood",
                                    "system": "LN"
                                }
                            ],
                            "text": "Platelet morphology finding [Identifier] in Blood"
                        },
                        "valueString": "Platelets show defective granulation.",
                        "interpretation": [
                            {
                                "coding": [
                                    {
                                        "code": "A",
                                        "display": "Abnormal",
                                        "system": "http://terminology.hl7.org/CodeSystem/v3-ObservationInterpretation"
                                    }
                                ]
                            }
                        ]
                    }
                ],
                "subject": {
                    "reference": "Patient/eb76f96f-dde1-31cd-8815-7c2546dabe7e"
                }
            },
            "request": {
                "method": "POST",
                "url": "Observation/e677e532-fd63-34a1-ab2b-9edb180a7768"
            }
        },
        {
            "fullUrl": "urn:uuid:bc39ef4c-9be6-3688-90c1-4d38582f327b",
            "resource": {
                "resourceType": "Specimen",
                "id": "bc39ef4c-9be6-3688-90c1-4d38582f327b",
                "type": {
                    "coding": [
                        {
                            "code": "119297000",
                            "display": "BLD",
                            "system": "SCT"
                        }
                    ],
                    "text": "Blood"
                },
                "collection": {
                    "collectedDateTime": "2011-01-03T22:34:28.000Z"
                }
            },
            "request": {
                "method": "POST",
                "url": "Specimen/bc39ef4c-9be6-3688-90c1-4d38582f327b"
            }
        }
    ]
}