{
    "resourceType": "Bundle",
    "type": "transaction",
    "entry": [
        {
            "fullUrl": "urn:uuid:64bac34e-e611-3549-848b-89416176aa0b",
            "resource": {
                "resourceType": "Patient",
                "id": "64bac34e-e611-3549-848b-89416176aa0b",
                "identifier": [
                    {
                        "value": "10006579",
                        "type": {
                            "coding": [
                                {
                                    "code": "MR",
                                    "system": "http://terminology.hl7.org/CodeSystem/v2-0203"
                                }
                            ]
                        }
                    },
                    {
                        "type": {
                            "coding": [
                                {
                                    "system": "http://terminology.hl7.org/CodeSystem/v2-0203",
                                    "code": "SS"
                                }
                            ]
                        },
                        "system": "http://hl7.org/fhir/sid/us-ssn",
                        "value": "123121234"
                    }
                ],
                "name": [
                    {
                        "family": "DUCK",
                        "given": [
                            "DONALD",
                            "D"
                        ]
                    }
                ],
                "birthDate": "1924-10-10",
                "gender": "male",
                "address": [
                    {
                        "line": [
                            "111 DUCK ST"
                        ],
                        "city": "FOWL",
                        "state": "CA",
                        "postalCode": "999990000",
                        "type": "postal"
                    },
                    {
                        "district": "1"
                    }
                ],
                "telecom": [
                    {
                        "value": "8885551212",
                        "use": "home"
                    },
                    {
                        "value": "8885551212",
                        "use": "work"
                    }
                ],
                "communication": [
                    {
                        "preferred": true
                    }
                ]
            },
            "request": {
                "method": "POST",
                "url": "Patient/64bac34e-e611-3549-848b-89416176aa0b"
            }
        },
        {
            "fullUrl": "urn:uuid:4cfe8d6d-3fc8-3e41-b921-f204be18db31",
            "resource": {
                "resourceType": "Encounter",
                "id": "4cfe8d6d-3fc8-3e41-b921-f204be18db31",
                "status": "unknown",
                "location": [
                    {
                        "status": "active"
                    }
                ],
                "subject": {
                    "reference": "Patient/64bac34e-e611-3549-848b-89416176aa0b"
                }
            },
            "request": {
                "method": "POST",
                "url": "Encounter/4cfe8d6d-3fc8-3e41-b921-f204be18db31"
            }
        },
        {
            "fullUrl": "urn:uuid:2b7ef4d5-cc9f-3f2c-b6c6-cbe6cdf69443",
            "resource": {
                "resourceType": "DiagnosticReport",
                "id": "2b7ef4d5-cc9f-3f2c-b6c6-cbe6cdf69443",
                "identifier": [
                    {
                        "type": {
                            "coding": [
                                {
                                    "code": "FILL",
                                    "system": "http://terminology.hl7.org/CodeSystem/v2-0203"
                                }
                            ]
                        }
                    },
                    {
                        "value": "855238581"
                    },
                    {
                        "value": "890775544"
                    }
                ],
                "code": {
                    "coding": [
                        {
                            "code": "26464-8",
                            "display": "Differential WBC Count, buffy coat",
                            "system": "LN"
                        }
                    ]
                },
                "encounter": {
                    "reference": "Encounter/4cfe8d6d-3fc8-3e41-b921-f204be18db31"
                },
                "result": [
                    {
                        "reference": "Observation/6b1344d2-48e7-3e00-a374-0394c7a6abcb"
                    },
                    {
                        "reference": "Observation/d8188032-3f38-30db-bf41-02157a07473a"
                    },
                    {
                        "reference": "Observation/85c674a2-32a2-3152-b1df-9873d169b74d"
                    },
                    {
                        "reference": "Observation/961a7690-c346-3465-8222-989f43dd414d"
                    },
                    {
                        "reference": "Observation/6249f756-25f7-3bc7-bc3f-655cad98126a"
                    }
                ],
                "specimen": [
                    {
                        "reference": "Specimen/7797ab46-7f2b-3781-9062-c4a19fa4be38"
                    }
                ]
            },
            "request": {
                "method": "POST",
                "url": "DiagnosticReport/2b7ef4d5-cc9f-3f2c-b6c6-cbe6cdf69443"
            }
        },
        {
            "fullUrl": "urn:uuid:6b1344d2-48e7-3e00-a374-0394c7a6abcb",
            "resource": {
                "resourceType": "Observation",
                "id": "6b1344d2-48e7-3e00-a374-0394c7a6abcb",
                "code": {
                    "coding": [
                        {
                            "code": "30180-4",
                            "display": "BASOPHILS/100 LEUKOCYTES",
                            "system": "LN"
                        }
                    ]
                },
                "valueQuantity": {
                    "value": "0",
                    "code": "%"
                },
                "interpretation": [
                    {
                        "coding": [
                            {
                                "code": "N",
                                "display": "Normal",
                                "system": "http://terminology.hl7.org/CodeSystem/v3-ObservationInterpretation"
                            }
                        ]
                    }
                ],
                "status": "final",
                "effectiveDateTime": "2014-10-06T08:30:00.000Z",
                "component": [
                    {
                        "code": {
                            "coding": [
                                {
                                    "code": "30180-4",
                                    "display": "BASOPHILS/100 LEUKOCYTES",
                                    "system": "LN"
                                }
                            ]
                        },
                        "valueQuantity": {
                            "value": "0",
                            "code": "%"
                        },
                        "interpretation": [
                            {
                                "coding": [
                                    {
                                        "code": "N",
                                        "display": "Normal",
                                        "system": "http://terminology.hl7.org/CodeSystem/v3-ObservationInterpretation"
                                    }
                                ]
                            }
                        ]
                    }
                ],
                "subject": {
                    "reference": "Patient/64bac34e-e611-3549-848b-89416176aa0b"
                }
            },
            "request": {
                "method": "POST",
                "url": "Observation/6b1344d2-48e7-3e00-a374-0394c7a6abcb"
            }
        },
        {
            "fullUrl": "urn:uuid:d8188032-3f38-30db-bf41-02157a07473a",
            "resource": {
                "resourceType": "Observation",
                "id": "d8188032-3f38-30db-bf41-02157a07473a",
                "code": {
                    "coding": [
                        {
                            "code": "23761-0",
                            "display": "NEUTROPHILS/100 LEUKOCYTES",
                            "system": "LN"
                        }
                    ]
                },
                "valueQuantity": {
                    "value": "72",
                    "code": "%"
                },
                "interpretation": [
                    {
                        "coding": [
                            {
                                "code": "N",
                                "display": "Normal",
                                "system": "http://terminology.hl7.org/CodeSystem/v3-ObservationInterpretation"
                            }
                        ]
                    }
                ],
                "status": "final",
                "effectiveDateTime": "2014-10-06T08:30:00.000Z",
                "component": [
                    {
                        "code": {
                            "coding": [
                                {
                                    "code": "23761-0",
                                    "display": "NEUTROPHILS/100 LEUKOCYTES",
                                    "system": "LN"
                                }
                            ]
                        },
                        "valueQuantity": {
                            "value": "72",
                            "code": "%"
                        },
                        "interpretation": [
                            {
                                "coding": [
                                    {
                                        "code": "N",
                                        "display": "Normal",
                                        "system": "http://terminology.hl7.org/CodeSystem/v3-ObservationInterpretation"
                                    }
                                ]
                            }
                        ]
                    }
                ],
                "subject": {
                    "reference": "Patient/64bac34e-e611-3549-848b-89416176aa0b"
                }
            },
            "request": {
                "method": "POST",
                "url": "Observation/d8188032-3f38-30db-bf41-02157a07473a"
            }
        },
        {
            "fullUrl": "urn:uuid:85c674a2-32a2-3152-b1df-9873d169b74d",
            "resource": {
                "resourceType": "Observation",
                "id": "85c674a2-32a2-3152-b1df-9873d169b74d",
                "code": {
                    "coding": [
                        {
                            "code": "26450-7",
                            "display": "EOSINOPHILS/100 LEUKOCYTES",
                            "system": "LN"
                        }
                    ]
                },
                "valueQuantity": {
                    "value": "2",
                    "code": "%"
                },
                "interpretation": [
                    {
                        "coding": [
                            {
                                "code": "N",
                                "display": "Normal",
                                "system": "http://terminology.hl7.org/CodeSystem/v3-ObservationInterpretation"
                            }
                        ]
                    }
                ],
                "status": "final",
                "effectiveDateTime": "2014-10-06T08:30:00.000Z",
                "component": [
                    {
                        "code": {
                            "coding": [
                                {
                                    "code": "26450-7",
                                    "display": "EOSINOPHILS/100 LEUKOCYTES",
                                    "system": "LN"
                                }
                            ]
                        },
                        "valueQuantity": {
                            "value": "2",
                            "code": "%"
                        },
                        "interpretation": [
                            {
                                "coding": [
                                    {
                                        "code": "N",
                                        "display": "Normal",
                                        "system": "http://terminology.hl7.org/CodeSystem/v3-ObservationInterpretation"
                                    }
                                ]
                            }
                        ]
                    }
                ],
                "subject": {
                    "reference": "Patient/64bac34e-e611-3549-848b-89416176aa0b"
                }
            },
            "request": {
                "method": "POST",
                "url": "Observation/85c674a2-32a2-3152-b1df-9873d169b74d"
            }
        },
        {
            "fullUrl": "urn:uuid:961a7690-c346-3465-8222-989f43dd414d",
            "resource": {
                "resourceType": "Observation",
                "id": "961a7690-c346-3465-8222-989f43dd414d",
                "code": {
                    "coding": [
                        {
                            "code": "26478-8",
                            "display": "LYMPHOCYTES/100 LEUKOCYTES",
                            "system": "LN"
                        }
                    ]
                },
                "valueQuantity": {
                    "value": "20",
                    "code": "%"
                },
                "interpretation": [
                    {
                        "coding": [
                            {
                                "code": "N",
                                "display": "Normal",
                                "system": "http://terminology.hl7.org/CodeSystem/v3-ObservationInterpretation"
                            }
                        ]
                    }
                ],
                "status": "final",
                "effectiveDateTime": "2014-10-06T08:30:00.000Z",
                "component": [
                    {
                        "code": {
                            "coding": [
                                {
                                    "code": "26478-8",
                                    "display": "LYMPHOCYTES/100 LEUKOCYTES",
                                    "system": "LN"
                                }
                            ]
                        },
                        "valueQuantity": {
                            "value": "20",
                            "code": "%"
                        },
                        "interpretation": [
                            {
                                "coding": [
                                    {
                                        "code": "N",
                                        "display": "Normal",
                                        "system": "http://terminology.hl7.org/CodeSystem/v3-ObservationInterpretation"
                                    }
                                ]
                            }
                        ]
                    }
                ],
                "subject": {
                    "reference": "Patient/64bac34e-e611-3549-848b-89416176aa0b"
                }
            },
            "request": {
                "method": "POST",
                "url": "Observation/961a7690-c346-3465-8222-989f43dd414d"
            }
        },
        {
            "fullUrl": "urn:uuid:6249f756-25f7-3bc7-bc3f-655cad98126a",
            "resource": {
                "resourceType": "Observation",
                "id": "6249f756-25f7-3bc7-bc3f-655cad98126a",
                "code": {
                    "coding": [
                        {
                            "code": "26485-3",
                            "display": "MONOCYTES/100 LEUKOCYTES",
                            "system": "LN"
                        }
                    ]
                },
                "valueQuantity": {
                    "value": "6",
                    "code": "%"
                },
                "interpretation": [
                    {
                        "coding": [
                            {
                                "code": "N",
                                "display": "Normal",
                                "system": "http://terminology.hl7.org/CodeSystem/v3-ObservationInterpretation"
                            }
                        ]
                    }
                ],
                "status": "final",
                "effectiveDateTime": "2014-10-06T08:30:00.000Z",
                "component": [
                    {
                        "code": {
                            "coding": [
                                {
                                    "code": "26485-3",
                                    "display": "MONOCYTES/100 LEUKOCYTES",
                                    "system": "LN"
                                }
                            ]
                        },
                        "valueQuantity": {
                            "value": "6",
                            "code": "%"
                        },
                        "interpretation": [
                            {
                                "coding": [
                                    {
                                        "code": "N",
                                        "display": "Normal",
                                        "system": "http://terminology.hl7.org/CodeSystem/v3-ObservationInterpretation"
                                    }
                                ]
                            }
                        ]
                    }
                ],
                "subject": {
                    "reference": "Patient/64bac34e-e611-3549-848b-89416176aa0b"
                }
            },
            "request": {
                "method": "POST",
                "url": "Observation/6249f756-25f7-3bc7-bc3f-655cad98126a"
            }
        },
        {
            "fullUrl": "urn:uuid:7797ab46-7f2b-3781-9062-c4a19fa4be38",
            "resource": {
                "resourceType": "Specimen",
                "id": "7797ab46-7f2b-3781-9062-c4a19fa4be38",
                "receivedTime": "2014-10-06T06:21:00.000Z",
                "identifier": [
                    {
                        "value": "SpecimenID",
                        "type": {
                            "coding": [
                                {
                                    "code": "PLAC",
                                    "system": "http://terminology.hl7.org/CodeSystem/v2-0203"
                                }
                            ]
                        }
                    }
                ],
                "type": {
                    "coding": [
                        {
                            "code": "BLD"
                        }
                    ]
                },
                "collection": {
                    "collectedDateTime": "2014-10-06T05:35:00.000Z"
                },
                "status": "available"
            },
            "request": {
                "method": "POST",
                "url": "Specimen/7797ab46-7f2b-3781-9062-c4a19fa4be38"
            }
        },
        {
            "fullUrl": "urn:uuid:8e3c2993-641d-3c9b-8c4d-2b3877d576ed",
            "resource": {
                "resourceType": "DiagnosticReport",
                "id": "8e3c2993-641d-3c9b-8c4d-2b3877d576ed",
                "identifier": [
                    {
                        "type": {
                            "coding": [
                                {
                                    "code": "FILL",
                                    "system": "http://terminology.hl7.org/CodeSystem/v2-0203"
                                }
                            ]
                        }
                    },
                    {
                        "value": "88502218"
                    },
                    {
                        "value": "82503246"
                    }
                ],
                "code": {
                    "coding": [
                        {
                            "code": "24317-0",
                            "display": "Hemogram and platelet count, automated",
                            "system": "LN"
                        }
                    ]
                },
                "encounter": {
                    "reference": "Encounter/4cfe8d6d-3fc8-3e41-b921-f204be18db31"
                },
                "result": [
                    {
                        "reference": "Observation/7e30263d-7675-37da-bea1-4ea0b86391a0"
                    },
                    {
                        "reference": "Observation/ebe4c385-979c-30a2-b094-b7647cb9bfed"
                    },
                    {
                        "reference": "Observation/64136956-15a2-3e1a-a8af-713056993434"
                    },
                    {
                        "reference": "Observation/90c114fd-411c-363c-b059-3c2d7561a65a"
                    },
                    {
                        "reference": "Observation/7eb626fd-9b62-3741-a39b-a22d361ba191"
                    }
                ],
                "specimen": [
                    {
                        "reference": "Specimen/7797ab46-7f2b-3781-9062-c4a19fa4be38"
                    }
                ]
            },
            "request": {
                "method": "POST",
                "url": "DiagnosticReport/8e3c2993-641d-3c9b-8c4d-2b3877d576ed"
            }
        },
        {
            "fullUrl": "urn:uuid:7e30263d-7675-37da-bea1-4ea0b86391a0",
            "resource": {
                "resourceType": "Observation",
                "id": "7e30263d-7675-37da-bea1-4ea0b86391a0",
                "code": {
                    "coding": [
                        {
                            "code": "20509-6",
                            "display": "HEMOGLOBIN",
                            "system": "LN"
                        }
                    ]
                },
                "valueQuantity": {
                    "value": "13.4",
                    "code": "g/l-1"
                },
                "interpretation": [
                    {
                        "coding": [
                            {
                                "code": "N",
                                "display": "Normal",
                                "system": "http://terminology.hl7.org/CodeSystem/v3-ObservationInterpretation"
                            }
                        ]
                    }
                ],
                "status": "final",
                "effectiveDateTime": "2014-10-06T08:30:00.000Z",
                "component": [
                    {
                        "code": {
                            "coding": [
                                {
                                    "code": "20509-6",
                                    "display": "HEMOGLOBIN",
                                    "system": "LN"
                                }
                            ]
                        },
                        "valueQuantity": {
                            "value": "13.4",
                            "code": "g/l-1"
                        },
                        "interpretation": [
                            {
                                "coding": [
                                    {
                                        "code": "N",
                                        "display": "Normal",
                                        "system": "http://terminology.hl7.org/CodeSystem/v3-ObservationInterpretation"
                                    }
                                ]
                            }
                        ]
                    }
                ],
                "subject": {
                    "reference": "Patient/64bac34e-e611-3549-848b-89416176aa0b"
                }
            },
            "request": {
                "method": "POST",
                "url": "Observation/7e30263d-7675-37da-bea1-4ea0b86391a0"
            }
        },
        {
            "fullUrl": "urn:uuid:ebe4c385-979c-30a2-b094-b7647cb9bfed",
            "resource": {
                "resourceType": "Observation",
                "id": "ebe4c385-979c-30a2-b094-b7647cb9bfed",
                "code": {
                    "coding": [
                        {
                            "code": "11156-7",
                            "display": "LEUKOCYTES",
                            "system": "LN"
                        }
                    ]
                },
                "valueQuantity": {
                    "value": "8.2",
                    "code": "giga.l-1"
                },
                "interpretation": [
                    {
                        "coding": [
                            {
                                "code": "N",
                                "display": "Normal",
                                "system": "http://terminology.hl7.org/CodeSystem/v3-ObservationInterpretation"
                            }
                        ]
                    }
                ],
                "status": "final",
                "effectiveDateTime": "2014-10-06T08:30:00.000Z",
                "component": [
                    {
                        "code": {
                            "coding": [
                                {
                                    "code": "11156-7",
                                    "display": "LEUKOCYTES",
                                    "system": "LN"
                                }
                            ]
                        },
                        "valueQuantity": {
                            "value": "8.2",
                            "code": "giga.l-1"
                        },
                        "interpretation": [
                            {
                                "coding": [
                                    {
                                        "code": "N",
                                        "display": "Normal",
                                        "system": "http://terminology.hl7.org/CodeSystem/v3-ObservationInterpretation"
                                    }
                                ]
                            }
                        ]
                    }
                ],
                "subject": {
                    "reference": "Patient/64bac34e-e611-3549-848b-89416176aa0b"
                }
            },
            "request": {
                "method": "POST",
                "url": "Observation/ebe4c385-979c-30a2-b094-b7647cb9bfed"
            }
        },
        {
            "fullUrl": "urn:uuid:64136956-15a2-3e1a-a8af-713056993434",
            "resource": {
                "resourceType": "Observation",
                "id": "64136956-15a2-3e1a-a8af-713056993434",
                "code": {
                    "coding": [
                        {
                            "code": "11273-0",
                            "display": "ERYTHROCYTES",
                            "system": "LN"
                        }
                    ]
                },
                "valueQuantity": {
                    "value": "4.08",
                    "code": "tera.l-1"
                },
                "interpretation": [
                    {
                        "coding": [
                            {
                                "code": "N",
                                "display": "Normal",
                                "system": "http://terminology.hl7.org/CodeSystem/v3-ObservationInterpretation"
                            }
                        ]
                    }
                ],
                "status": "final",
                "effectiveDateTime": "2014-10-06T08:30:00.000Z",
                "component": [
                    {
                        "code": {
                            "coding": [
                                {
                                    "code": "11273-0",
                                    "display": "ERYTHROCYTES",
                                    "system": "LN"
                                }
                            ]
                        },
                        "valueQuantity": {
                            "value": "4.08",
                            "code": "tera.l-1"
                        },
                        "interpretation": [
                            {
                                "coding": [
                                    {
                                        "code": "N",
                                        "display": "Normal",
                                        "system": "http://terminology.hl7.org/CodeSystem/v3-ObservationInterpretation"
                                    }
                                ]
                            }
                        ]
                    }
                ],
                "subject": {
                    "reference": "Patient/64bac34e-e611-3549-848b-89416176aa0b"
                }
            },
            "request": {
                "method": "POST",
                "url": "Observation/64136956-15a2-3e1a-a8af-713056993434"
            }
        },
        {
            "fullUrl": "urn:uuid:90c114fd-411c-363c-b059-3c2d7561a65a",
            "resource": {
                "resourceType": "Observation",
                "id": "90c114fd-411c-363c-b059-3c2d7561a65a",
                "code": {
                    "coding": [
                        {
                            "code": "20570-8",
                            "display": "HEMATOCRIT",
                            "system": "LN"
                        }
                    ]
                },
                "valueQuantity": {
                    "value": "39.7",
                    "code": "%"
                },
                "interpretation": [
                    {
                        "coding": [
                            {
                                "code": "N",
                                "display": "Normal",
                                "system": "http://terminology.hl7.org/CodeSystem/v3-ObservationInterpretation"
                            }
                        ]
                    }
                ],
                "status": "final",
                "effectiveDateTime": "2014-10-06T08:30:00.000Z",
                "component": [
                    {
                        "code": {
                            "coding": [
                                {
                                    "code": "20570-8",
                                    "display": "HEMATOCRIT",
                                    "system": "LN"
                                }
                            ]
                        },
                        "valueQuantity": {
                            "value": "39.7",
                            "code": "%"
                        },
                        "interpretation": [
                            {
                                "coding": [
                                    {
                                        "code": "N",
                                        "display": "Normal",
                                        "system": "http://terminology.hl7.org/CodeSystem/v3-ObservationInterpretation"
                                    }
                                ]
                            }
                        ]
                    }
                ],
                "subject": {
                    "reference": "Patient/64bac34e-e611-3549-848b-89416176aa0b"
                }
            },
            "request": {
                "method": "POST",
                "url": "Observation/90c114fd-411c-363c-b059-3c2d7561a65a"
            }
        },
        {
            "fullUrl": "urn:uuid:7eb626fd-9b62-3741-a39b-a22d361ba191",
            "resource": {
                "resourceType": "Observation",
                "id": "7eb626fd-9b62-3741-a39b-a22d361ba191",
                "code": {
                    "coding": [
                        {
                            "code": "11125-2",
                            "display": "PLATELETS",
                            "system": "LN"
                        }
                    ]
                },
                "valueQuantity": {
                    "value": "220",
                    "code": "giga.l-1"
                },
                "interpretation": [
                    {
                        "coding": [
                            {
                                "code": "N",
                                "display": "Normal",
                                "system": "http://terminology.hl7.org/CodeSystem/v3-ObservationInterpretation"
                            }
                        ]
                    }
                ],
                "status": "final",
                "effectiveDateTime": "2014-10-06T08:30:00.000Z",
                "component": [
                    {
                        "code": {
                            "coding": [
                                {
                                    "code": "11125-2",
                                    "display": "PLATELETS",
                                    "system": "LN"
                                }
                            ]
                        },
                        "valueQuantity": {
                            "value": "220",
                            "code": "giga.l-1"
                        },
                        "interpretation": [
                            {
                                "coding": [
                                    {
                                        "code": "N",
                                        "display": "Normal",
                                        "system": "http://terminology.hl7.org/CodeSystem/v3-ObservationInterpretation"
                                    }
                                ]
                            }
                        ]
                    }
                ],
                "subject": {
                    "reference": "Patient/64bac34e-e611-3549-848b-89416176aa0b"
                }
            },
            "request": {
                "method": "POST",
                "url": "Observation/7eb626fd-9b62-3741-a39b-a22d361ba191"
            }
        }
    ]
}