{
    "resourceType": "Bundle",
    "type": "transaction",
    "entry": [
        {
            "fullUrl": "urn:uuid:37351237-c7b3-3621-ab4e-5476d5e8f36d",
            "resource": {
                "resourceType": "Patient",
                "id": "37351237-c7b3-3621-ab4e-5476d5e8f36d",
                "identifier": [
                    {
                        "value": "999999999"
                    }
                ],
                "name": [
                    {
                        "family": "TEST",
                        "given": [
                            "PATIENT"
                        ]
                    }
                ],
                "birthDate": "1845-01-01",
                "gender": "female"
            },
            "request": {
                "method": "POST",
                "url": "Patient/37351237-c7b3-3621-ab4e-5476d5e8f36d"
            }
        },
        {
            "fullUrl": "urn:uuid:4cfe8d6d-3fc8-3e41-b921-f204be18db31",
            "resource": {
                "resourceType": "Encounter",
                "id": "4cfe8d6d-3fc8-3e41-b921-f204be18db31",
                "status": "unknown",
                "location": [
                    {
                        "status": "active"
                    }
                ],
                "subject": {
                    "reference": "Patient/37351237-c7b3-3621-ab4e-5476d5e8f36d"
                }
            },
            "request": {
                "method": "POST",
                "url": "Encounter/4cfe8d6d-3fc8-3e41-b921-f204be18db31"
            }
        },
        {
            "fullUrl": "urn:uuid:0257737f-3ab4-3709-b60e-2681176b5e5b",
            "resource": {
                "resourceType": "DiagnosticReport",
                "id": "0257737f-3ab4-3709-b60e-2681176b5e5b",
                "identifier": [
                    {
                        "type": {
                            "coding": [
                                {
                                    "code": "FILL",
                                    "system": "http://terminology.hl7.org/CodeSystem/v2-0203"
                                }
                            ]
                        }
                    },
                    {
                        "value": "211088501"
                    }
                ],
                "effectiveDateTime": "2011-06-20T17:34:16.000Z",
                "code": {
                    "coding": [
                        {
                            "code": "0",
                            "display": "ADULT",
                            "system": "ROCHECG"
                        }
                    ]
                },
                "issued": "2011-06-21T06:10:53.000Z",
                "category": [
                    {
                        "coding": [
                            {
                                "code": "EC"
                            }
                        ]
                    }
                ],
                "status": "final",
                "encounter": {
                    "reference": "Encounter/4cfe8d6d-3fc8-3e41-b921-f204be18db31"
                },
                "result": [
                    {
                        "reference": "Observation/a0cef5b4-1e6f-3af0-bfb3-928f79f50a33"
                    },
                    {
                        "reference": "Observation/f0758106-7346-33b9-b230-859d675f75b8"
                    },
                    {
                        "reference": "Observation/e15706c4-3ec8-3a56-9ed0-198dceac698d"
                    },
                    {
                        "reference": "Observation/2074063b-3c3c-3fd6-811c-d18e1f4fa200"
                    },
                    {
                        "reference": "Observation/7ff19a48-a02a-3239-9c2a-6b8ec092abd0"
                    },
                    {
                        "reference": "Observation/45e5458f-b6a4-3a9f-9f0d-65577abb6a65"
                    },
                    {
                        "reference": "Observation/f7bb4b7a-062b-38a7-8af5-0ceab252c23f"
                    },
                    {
                        "reference": "Observation/4962f9b1-7bcf-3133-af76-1a57cd83eb6e"
                    },
                    {
                        "reference": "Observation/573cf63c-5528-350d-92f6-e5bfa841b6f5"
                    },
                    {
                        "reference": "Observation/269935a2-8f97-34e2-9735-efa06f0a3b10"
                    },
                    {
                        "reference": "Observation/4fbadb39-4022-3367-91e6-af66e470e085"
                    },
                    {
                        "reference": "Observation/464ffec2-b1e3-39d4-a271-704aead2f922"
                    },
                    {
                        "reference": "Observation/20db797c-504a-397d-a8de-2752ab9aecf5"
                    },
                    {
                        "reference": "Observation/931eb6ec-3227-374f-8c1c-a5a35c1c1ca3"
                    }
                ]
            },
            "request": {
                "method": "POST",
                "url": "DiagnosticReport/0257737f-3ab4-3709-b60e-2681176b5e5b"
            }
        },
        {
            "fullUrl": "urn:uuid:a0cef5b4-1e6f-3af0-bfb3-928f79f50a33",
            "resource": {
                "resourceType": "Observation",
                "id": "a0cef5b4-1e6f-3af0-bfb3-928f79f50a33",
                "code": {
                    "coding": [
                        {
                            "code": "93000.2",
                            "display": "VENTRICULAR RATE EKG/MIN",
                            "system": "CPT4"
                        }
                    ]
                },
                "valueString": "50",
                "component": [
                    {
                        "code": {
                            "coding": [
                                {
                                    "code": "93000.2",
                                    "display": "VENTRICULAR RATE EKG/MIN",
                                    "system": "CPT4"
                                }
                            ]
                        },
                        "valueString": "50"
                    }
                ],
                "subject": {
                    "reference": "Patient/37351237-c7b3-3621-ab4e-5476d5e8f36d"
                }
            },
            "request": {
                "method": "POST",
                "url": "Observation/a0cef5b4-1e6f-3af0-bfb3-928f79f50a33"
            }
        },
        {
            "fullUrl": "urn:uuid:f0758106-7346-33b9-b230-859d675f75b8",
            "resource": {
                "resourceType": "Observation",
                "id": "f0758106-7346-33b9-b230-859d675f75b8",
                "code": {
                    "coding": [
                        {
                            "code": "93000.4",
                            "display": "PR INTERVAL(MSEC)",
                            "system": "CPT4"
                        }
                    ]
                },
                "valueString": "218",
                "component": [
                    {
                        "code": {
                            "coding": [
                                {
                                    "code": "93000.4",
                                    "display": "PR INTERVAL(MSEC)",
                                    "system": "CPT4"
                                }
                            ]
                        },
                        "valueString": "218"
                    }
                ],
                "subject": {
                    "reference": "Patient/37351237-c7b3-3621-ab4e-5476d5e8f36d"
                }
            },
            "request": {
                "method": "POST",
                "url": "Observation/f0758106-7346-33b9-b230-859d675f75b8"
            }
        },
        {
            "fullUrl": "urn:uuid:e15706c4-3ec8-3a56-9ed0-198dceac698d",
            "resource": {
                "resourceType": "Observation",
                "id": "e15706c4-3ec8-3a56-9ed0-198dceac698d",
                "code": {
                    "coding": [
                        {
                            "code": "93000.5",
                            "display": "QRS - INTERVAL(MSEC)",
                            "system": "CPT4"
                        }
                    ]
                },
                "valueString": "92",
                "component": [
                    {
                        "code": {
                            "coding": [
                                {
                                    "code": "93000.5",
                                    "display": "QRS - INTERVAL(MSEC)",
                                    "system": "CPT4"
                                }
                            ]
                        },
                        "valueString": "92"
                    }
                ],
                "subject": {
                    "reference": "Patient/37351237-c7b3-3621-ab4e-5476d5e8f36d"
                }
            },
            "request": {
                "method": "POST",
                "url": "Observation/e15706c4-3ec8-3a56-9ed0-198dceac698d"
            }
        },
        {
            "fullUrl": "urn:uuid:2074063b-3c3c-3fd6-811c-d18e1f4fa200",
            "resource": {
                "resourceType": "Observation",
                "id": "2074063b-3c3c-3fd6-811c-d18e1f4fa200",
                "code": {
                    "coding": [
                        {
                            "code": "93000.6",
                            "display": "QT - INTERVAL(MSEC)",
                            "system": "CPT4"
                        }
                    ]
                },
                "valueString": "488",
                "component": [
                    {
                        "code": {
                            "coding": [
                                {
                                    "code": "93000.6",
                                    "display": "QT - INTERVAL(MSEC)",
                                    "system": "CPT4"
                                }
                            ]
                        },
                        "valueString": "488"
                    }
                ],
                "subject": {
                    "reference": "Patient/37351237-c7b3-3621-ab4e-5476d5e8f36d"
                }
            },
            "request": {
                "method": "POST",
                "url": "Observation/2074063b-3c3c-3fd6-811c-d18e1f4fa200"
            }
        },
        {
            "fullUrl": "urn:uuid:7ff19a48-a02a-3239-9c2a-6b8ec092abd0",
            "resource": {
                "resourceType": "Observation",
                "id": "7ff19a48-a02a-3239-9c2a-6b8ec092abd0",
                "code": {
                    "coding": [
                        {
                            "code": "93000,PTL",
                            "display": "PHYSICAL TEST LOCATION",
                            "system": "CPT4"
                        }
                    ]
                },
                "valueString": "STMA",
                "component": [
                    {
                        "code": {
                            "coding": [
                                {
                                    "code": "93000,PTL",
                                    "display": "PHYSICAL TEST LOCATION",
                                    "system": "CPT4"
                                }
                            ]
                        },
                        "valueString": "STMA"
                    }
                ],
                "subject": {
                    "reference": "Patient/37351237-c7b3-3621-ab4e-5476d5e8f36d"
                }
            },
            "request": {
                "method": "POST",
                "url": "Observation/7ff19a48-a02a-3239-9c2a-6b8ec092abd0"
            }
        },
        {
            "fullUrl": "urn:uuid:45e5458f-b6a4-3a9f-9f0d-65577abb6a65",
            "resource": {
                "resourceType": "Observation",
                "id": "45e5458f-b6a4-3a9f-9f0d-65577abb6a65",
                "code": {
                    "coding": [
                        {
                            "code": "93000,PTR",
                            "display": "PHYSICAL TEST ROOM",
                            "system": "CPT4"
                        }
                    ]
                },
                "valueString": "05730",
                "component": [
                    {
                        "code": {
                            "coding": [
                                {
                                    "code": "93000,PTR",
                                    "display": "PHYSICAL TEST ROOM",
                                    "system": "CPT4"
                                }
                            ]
                        },
                        "valueString": "05730"
                    }
                ],
                "subject": {
                    "reference": "Patient/37351237-c7b3-3621-ab4e-5476d5e8f36d"
                }
            },
            "request": {
                "method": "POST",
                "url": "Observation/45e5458f-b6a4-3a9f-9f0d-65577abb6a65"
            }
        },
        {
            "fullUrl": "urn:uuid:f7bb4b7a-062b-38a7-8af5-0ceab252c23f",
            "resource": {
                "resourceType": "Observation",
                "id": "f7bb4b7a-062b-38a7-8af5-0ceab252c23f",
                "code": {
                    "coding": [
                        {
                            "code": "93000.17",
                            "system": "CPT4"
                        }
                    ]
                },
                "valueCodeableConcept": {
                    "coding": [
                        {
                            "code": "21,101",
                            "display": "Sinus bradycardia&#x60;T&#x60;with 1st degree A-V block",
                            "system": "MEIECG"
                        }
                    ]
                },
                "component": [
                    {
                        "code": {
                            "coding": [
                                {
                                    "code": "93000.17",
                                    "system": "CPT4"
                                }
                            ]
                        }
                    }
                ],
                "subject": {
                    "reference": "Patient/37351237-c7b3-3621-ab4e-5476d5e8f36d"
                }
            },
            "request": {
                "method": "POST",
                "url": "Observation/f7bb4b7a-062b-38a7-8af5-0ceab252c23f"
            }
        },
        {
            "fullUrl": "urn:uuid:4962f9b1-7bcf-3133-af76-1a57cd83eb6e",
            "resource": {
                "resourceType": "Observation",
                "id": "4962f9b1-7bcf-3133-af76-1a57cd83eb6e",
                "code": {
                    "coding": [
                        {
                            "code": "93000.20",
                            "system": "CPT4"
                        }
                    ]
                },
                "valueCodeableConcept": {
                    "coding": [
                        {
                            "code": "410",
                            "display": "Low voltage QRS",
                            "system": "MEIECG"
                        }
                    ]
                },
                "component": [
                    {
                        "code": {
                            "coding": [
                                {
                                    "code": "93000.20",
                                    "system": "CPT4"
                                }
                            ]
                        }
                    }
                ],
                "subject": {
                    "reference": "Patient/37351237-c7b3-3621-ab4e-5476d5e8f36d"
                }
            },
            "request": {
                "method": "POST",
                "url": "Observation/4962f9b1-7bcf-3133-af76-1a57cd83eb6e"
            }
        },
        {
            "fullUrl": "urn:uuid:573cf63c-5528-350d-92f6-e5bfa841b6f5",
            "resource": {
                "resourceType": "Observation",
                "id": "573cf63c-5528-350d-92f6-e5bfa841b6f5",
                "code": {
                    "coding": [
                        {
                            "code": "93000.27",
                            "system": "CPT4"
                        }
                    ]
                },
                "valueCodeableConcept": {
                    "coding": [
                        {
                            "code": "1180",
                            "display": "T wave abnormality, consider anterolateral ischemia",
                            "system": "MEIECG"
                        }
                    ]
                },
                "component": [
                    {
                        "code": {
                            "coding": [
                                {
                                    "code": "93000.27",
                                    "system": "CPT4"
                                }
                            ]
                        }
                    }
                ],
                "subject": {
                    "reference": "Patient/37351237-c7b3-3621-ab4e-5476d5e8f36d"
                }
            },
            "request": {
                "method": "POST",
                "url": "Observation/573cf63c-5528-350d-92f6-e5bfa841b6f5"
            }
        },
        {
            "fullUrl": "urn:uuid:269935a2-8f97-34e2-9735-efa06f0a3b10",
            "resource": {
                "resourceType": "Observation",
                "id": "269935a2-8f97-34e2-9735-efa06f0a3b10",
                "code": {
                    "coding": [
                        {
                            "code": "93000,CMP",
                            "system": "CPT4"
                        }
                    ]
                },
                "valueCodeableConcept": {
                    "coding": [
                        {
                            "code": "1301",
                            "display": "When compared with ECG of",
                            "system": "MEIECG"
                        }
                    ]
                },
                "component": [
                    {
                        "code": {
                            "coding": [
                                {
                                    "code": "93000,CMP",
                                    "system": "CPT4"
                                }
                            ]
                        }
                    }
                ],
                "subject": {
                    "reference": "Patient/37351237-c7b3-3621-ab4e-5476d5e8f36d"
                }
            },
            "request": {
                "method": "POST",
                "url": "Observation/269935a2-8f97-34e2-9735-efa06f0a3b10"
            }
        },
        {
            "fullUrl": "urn:uuid:4fbadb39-4022-3367-91e6-af66e470e085",
            "resource": {
                "resourceType": "Observation",
                "id": "4fbadb39-4022-3367-91e6-af66e470e085",
                "code": {
                    "coding": [
                        {
                            "code": "93000,CMD",
                            "display": "EKG COMPARISON DATE",
                            "system": "CPT4"
                        }
                    ]
                },
                "component": [
                    {
                        "code": {
                            "coding": [
                                {
                                    "code": "93000,CMD",
                                    "display": "EKG COMPARISON DATE",
                                    "system": "CPT4"
                                }
                            ]
                        }
                    }
                ],
                "subject": {
                    "reference": "Patient/37351237-c7b3-3621-ab4e-5476d5e8f36d"
                }
            },
            "request": {
                "method": "POST",
                "url": "Observation/4fbadb39-4022-3367-91e6-af66e470e085"
            }
        },
        {
            "fullUrl": "urn:uuid:464ffec2-b1e3-39d4-a271-704aead2f922",
            "resource": {
                "resourceType": "Observation",
                "id": "464ffec2-b1e3-39d4-a271-704aead2f922",
                "code": {
                    "coding": [
                        {
                            "code": "93000.0",
                            "system": "CPT4"
                        }
                    ]
                },
                "valueCodeableConcept": {
                    "coding": [
                        {
                            "code": "1100,1200,1412",
                            "display": "ST and&#x60;T&#x60;T waves&#x60;T&#x60;have changed",
                            "system": "MEIECG"
                        }
                    ]
                },
                "component": [
                    {
                        "code": {
                            "coding": [
                                {
                                    "code": "93000.0",
                                    "system": "CPT4"
                                }
                            ]
                        }
                    }
                ],
                "subject": {
                    "reference": "Patient/37351237-c7b3-3621-ab4e-5476d5e8f36d"
                }
            },
            "request": {
                "method": "POST",
                "url": "Observation/464ffec2-b1e3-39d4-a271-704aead2f922"
            }
        },
        {
            "fullUrl": "urn:uuid:20db797c-504a-397d-a8de-2752ab9aecf5",
            "resource": {
                "resourceType": "Observation",
                "id": "20db797c-504a-397d-a8de-2752ab9aecf5",
                "code": {
                    "coding": [
                        {
                            "code": "93000.48",
                            "display": "EKG COMMENT",
                            "system": "CPT4"
                        }
                    ]
                },
                "valueString": "9917,LASTNAME MD,FIRSTNAME",
                "component": [
                    {
                        "code": {
                            "coding": [
                                {
                                    "code": "93000.48",
                                    "display": "EKG COMMENT",
                                    "system": "CPT4"
                                }
                            ]
                        },
                        "valueString": "9917,LASTNAME MD,FIRSTNAME"
                    }
                ],
                "subject": {
                    "reference": "Patient/37351237-c7b3-3621-ab4e-5476d5e8f36d"
                }
            },
            "request": {
                "method": "POST",
                "url": "Observation/20db797c-504a-397d-a8de-2752ab9aecf5"
            }
        },
        {
            "fullUrl": "urn:uuid:931eb6ec-3227-374f-8c1c-a5a35c1c1ca3",
            "resource": {
                "resourceType": "Observation",
                "id": "931eb6ec-3227-374f-8c1c-a5a35c1c1ca3",
                "code": {
                    "coding": [
                        {
                            "code": "93000",
                            "display": "ECG 12-LEAD",
                            "system": "CPT4"
                        }
                    ]
                },
                "valueString": "{\\rtf1\\ansi \\deff1\\deflang1033\\ {\\fonttbl{\\f1\\fmodern\\fcharset0 Courier;}{\\f2\\fmodern\\fcharset0 Courier;}} \\pard\\plain \\f1\\fs18\\par 20Jun2011 17:34\\par VENTRICULAR RATE 50\\par Sinus bradycardia with 1st degree A-V block\\par Low voltage QRS\\par T wave abnormality, consider anterolateral\\par ischemia\\par When compared with ECG of 20-APR-2011 07:36,\\par ST and T waves have changed\\par 47507&#x60;S&#x60;&#x27;LASTNAME MD&#x60;S&#x60;&#x27;FIRSTNAME \\par }",
                "component": [
                    {
                        "code": {
                            "coding": [
                                {
                                    "code": "93000",
                                    "display": "ECG 12-LEAD",
                                    "system": "CPT4"
                                }
                            ]
                        },
                        "valueString": "{\\rtf1\\ansi \\deff1\\deflang1033\\ {\\fonttbl{\\f1\\fmodern\\fcharset0 Courier;}{\\f2\\fmodern\\fcharset0 Courier;}} \\pard\\plain \\f1\\fs18\\par 20Jun2011 17:34\\par VENTRICULAR RATE 50\\par Sinus bradycardia with 1st degree A-V block\\par Low voltage QRS\\par T wave abnormality, consider anterolateral\\par ischemia\\par When compared with ECG of 20-APR-2011 07:36,\\par ST and T waves have changed\\par 47507&#x60;S&#x60;&#x27;LASTNAME MD&#x60;S&#x60;&#x27;FIRSTNAME \\par }"
                    }
                ],
                "subject": {
                    "reference": "Patient/37351237-c7b3-3621-ab4e-5476d5e8f36d"
                }
            },
            "request": {
                "method": "POST",
                "url": "Observation/931eb6ec-3227-374f-8c1c-a5a35c1c1ca3"
            }
        }
    ]
}