{
    "resourceType": "Bundle",
    "type": "transaction",
    "entry": [
        {
            "fullUrl": "urn:uuid:eb76f96f-dde1-31cd-8815-7c2546dabe7e",
            "resource": {
                "resourceType": "Patient",
                "id": "eb76f96f-dde1-31cd-8815-7c2546dabe7e",
                "identifier": [
                    {
                        "value": "PATID1234",
                        "type": {
                            "coding": [
                                {
                                    "code": "MR",
                                    "system": "http://terminology.hl7.org/CodeSystem/v2-0203"
                                }
                            ]
                        }
                    }
                ],
                "name": [
                    {
                        "family": "Jones",
                        "given": [
                            "William",
                            "A"
                        ]
                    }
                ],
                "birthDate": "1961-06-15",
                "gender": "male"
            },
            "request": {
                "method": "PUT",
                "url": "Patient/eb76f96f-dde1-31cd-8815-7c2546dabe7e"
            }
        },
        {
            "fullUrl": "urn:uuid:f2d5c4fa-7596-30d6-90d9-d736c9681b9e",
            "resource": {
                "resourceType": "DiagnosticReport",
                "id": "f2d5c4fa-7596-30d6-90d9-d736c9681b9e",
                "identifier": [
                    {
                        "type": {
                            "coding": [
                                {
                                    "code": "FILL",
                                    "system": "http://terminology.hl7.org/CodeSystem/v2-0203"
                                }
                            ]
                        }
                    },
                    {
                        "value": "ORD666555"
                    },
                    {
                        "value": "R-991133"
                    }
                ],
                "effectiveDateTime": "2011-01-03T22:34:28.000Z",
                "code": {
                    "coding": [
                        {
                            "code": "57021-8",
                            "display": "CBC W Auto Differential panel in Blood",
                            "system": "LN"
                        },
                        {
                            "code": "4456544",
                            "display": "CBC",
                            "system": "99USI"
                        }
                    ],
                    "text": "CBC W Auto Differential panel in Blood"
                },
                "issued": "2011-01-05T01:00:28.000Z",
                "status": "final",
                "result": [
                    {
                        "reference": "Observation/f8cfd366-66d5-3737-83c2-08fcc0598ea4"
                    },
                    {
                        "reference": "Observation/7ba71e1a-2e20-3712-b919-d33731e39929"
                    },
                    {
                        "reference": "Observation/b803a68d-0924-3920-b18e-ef08ad9fe115"
                    },
                    {
                        "reference": "Observation/20b17053-c30c-3e8d-8d02-8f82d2cf4bb9"
                    },
                    {
                        "reference": "Observation/6b89f590-c4d2-3273-bccb-59ae9c6f1f12"
                    },
                    {
                        "reference": "Observation/e4676236-a558-33aa-a68d-f94fd15cd114"
                    },
                    {
                        "reference": "Observation/872db55b-cb61-3616-ac58-16aa9db5f413"
                    },
                    {
                        "reference": "Observation/fbbcccf2-ce44-321c-b05d-430150b32c43"
                    },
                    {
                        "reference": "Observation/dce8a176-1de4-3920-925a-c8353019026a"
                    },
                    {
                        "reference": "Observation/af28e6a9-f892-3ed9-952f-16790426ab22"
                    },
                    {
                        "reference": "Observation/27490c23-6696-3d50-841b-9f1330a567e6"
                    },
                    {
                        "reference": "Observation/8b3a0731-e4e9-3861-bb23-83a83d52ced7"
                    },
                    {
                        "reference": "Observation/35cfa6bb-5af3-3874-bfc6-a3e75217e52f"
                    },
                    {
                        "reference": "Observation/4c0e82c3-915f-3192-92a4-2bcea16e8048"
                    },
                    {
                        "reference": "Observation/35fe552d-ef24-3b12-8529-72808541ebe7"
                    },
                    {
                        "reference": "Observation/5212a039-c1e0-38af-8c77-6fd199cba2ff"
                    },
                    {
                        "reference": "Observation/80a1575c-edf9-3a00-86a9-7b1817391a17"
                    },
                    {
                        "reference": "Observation/ba2b6fff-bd78-337b-a099-f95cdc57fa5f"
                    },
                    {
                        "reference": "Observation/4e1869dd-731e-321a-8304-b8b58b4591c9"
                    },
                    {
                        "reference": "Observation/cced5bb2-aaed-38fb-896d-d0d87a6d24d8"
                    },
                    {
                        "reference": "Observation/3439feea-3a04-306f-802e-b77b8d3f8673"
                    },
                    {
                        "reference": "Observation/536cf6c6-5206-39c5-8285-4a6c0367d015"
                    },
                    {
                        "reference": "Observation/ed775f76-178e-34c9-b21e-2772b99df2b3"
                    },
                    {
                        "reference": "Observation/99e6cb72-3b6d-38d1-8972-1adc646c7b95"
                    },
                    {
                        "reference": "Observation/a67b007b-75dd-3acb-b331-cea8609fe944"
                    },
                    {
                        "reference": "Observation/c4767164-cf0d-316e-bd1f-1324e9464d5e"
                    },
                    {
                        "reference": "Observation/78a3465f-94ae-3d10-a38a-86a801a9c8bb"
                    },
                    {
                        "reference": "Observation/334cc077-7671-33a2-b39c-72210a504344"
                    }
                ],
                "specimen": [
                    {
                        "reference": "Specimen/bc39ef4c-9be6-3688-90c1-4d38582f327b"
                    }
                ]
            },
            "request": {
                "method": "PUT",
                "url": "DiagnosticReport/f2d5c4fa-7596-30d6-90d9-d736c9681b9e"
            }
        },
        {
            "fullUrl": "urn:uuid:f8cfd366-66d5-3737-83c2-08fcc0598ea4",
            "resource": {
                "resourceType": "Observation",
                "id": "f8cfd366-66d5-3737-83c2-08fcc0598ea4",
                "code": {
                    "coding": [
                        {
                            "code": "26453-1",
                            "display": "Erythrocytes [#/volume] in Blood",
                            "system": "LN"
                        }
                    ],
                    "text": "Erythrocytes [#/volume] in Blood"
                },
                "valueQuantity": {
                    "value": "4.41",
                    "code": "10*6/uL",
                    "unit": "million per microliter",
                    "system": "UCUM"
                },
                "interpretation": [
                    {
                        "coding": [
                            {
                                "code": "N",
                                "display": "Normal",
                                "system": "http://terminology.hl7.org/CodeSystem/v3-ObservationInterpretation"
                            }
                        ]
                    }
                ],
                "status": "final",
                "effectiveDateTime": "2011-01-03T22:34:28.000Z",
                "component": [
                    {
                        "code": {
                            "coding": [
                                {
                                    "code": "26453-1",
                                    "display": "Erythrocytes [#/volume] in Blood",
                                    "system": "LN"
                                }
                            ],
                            "text": "Erythrocytes [#/volume] in Blood"
                        },
                        "valueQuantity": {
                            "value": "4.41",
                            "code": "10*6/uL",
                            "unit": "million per microliter",
                            "system": "UCUM"
                        },
                        "referenceRange": [
                            {
                                "text": "4.3 to 6.2"
                            }
                        ],
                        "interpretation": [
                            {
                                "coding": [
                                    {
                                        "code": "N",
                                        "display": "Normal",
                                        "system": "http://terminology.hl7.org/CodeSystem/v3-ObservationInterpretation"
                                    }
                                ]
                            }
                        ]
                    }
                ],
                "subject": {
                    "reference": "Patient/eb76f96f-dde1-31cd-8815-7c2546dabe7e"
                }
            },
            "request": {
                "method": "PUT",
                "url": "Observation/f8cfd366-66d5-3737-83c2-08fcc0598ea4"
            }
        },
        {
            "fullUrl": "urn:uuid:7ba71e1a-2e20-3712-b919-d33731e39929",
            "resource": {
                "resourceType": "Observation",
                "id": "7ba71e1a-2e20-3712-b919-d33731e39929",
                "code": {
                    "coding": [
                        {
                            "code": "718-7",
                            "display": "Hemoglobin [Mass/volume] in Blood",
                            "system": "LN"
                        }
                    ],
                    "text": "Hemoglobin [Mass/volume] in Blood"
                },
                "valueQuantity": {
                    "value": "12.5",
                    "code": "g/mL",
                    "unit": "grams per milliliter",
                    "system": "UCUM"
                },
                "interpretation": [
                    {
                        "coding": [
                            {
                                "code": "L",
                                "display": "Low",
                                "system": "http://terminology.hl7.org/CodeSystem/v3-ObservationInterpretation"
                            }
                        ]
                    }
                ],
                "status": "final",
                "effectiveDateTime": "2011-01-03T22:34:28.000Z",
                "component": [
                    {
                        "code": {
                            "coding": [
                                {
                                    "code": "718-7",
                                    "display": "Hemoglobin [Mass/volume] in Blood",
                                    "system": "LN"
                                }
                            ],
                            "text": "Hemoglobin [Mass/volume] in Blood"
                        },
                        "valueQuantity": {
                            "value": "12.5",
                            "code": "g/mL",
                            "unit": "grams per milliliter",
                            "system": "UCUM"
                        },
                        "referenceRange": [
                            {
                                "text": "13 to 18"
                            }
                        ],
                        "interpretation": [
                            {
                                "coding": [
                                    {
                                        "code": "L",
                                        "display": "Low",
                                        "system": "http://terminology.hl7.org/CodeSystem/v3-ObservationInterpretation"
                                    }
                                ]
                            }
                        ]
                    }
                ],
                "subject": {
                    "reference": "Patient/eb76f96f-dde1-31cd-8815-7c2546dabe7e"
                }
            },
            "request": {
                "method": "PUT",
                "url": "Observation/7ba71e1a-2e20-3712-b919-d33731e39929"
            }
        },
        {
            "fullUrl": "urn:uuid:b803a68d-0924-3920-b18e-ef08ad9fe115",
            "resource": {
                "resourceType": "Observation",
                "id": "b803a68d-0924-3920-b18e-ef08ad9fe115",
                "code": {
                    "coding": [
                        {
                            "code": "20570-8",
                            "display": "Hematocrit [Volume Fraction] of Blood",
                            "system": "LN"
                        }
                    ],
                    "text": "Hematocrit [Volume Fraction] of Blood"
                },
                "valueQuantity": {
                    "value": "41",
                    "code": "%",
                    "unit": "percent",
                    "system": "UCUM"
                },
                "interpretation": [
                    {
                        "coding": [
                            {
                                "code": "N",
                                "display": "Normal",
                                "system": "http://terminology.hl7.org/CodeSystem/v3-ObservationInterpretation"
                            }
                        ]
                    }
                ],
                "status": "final",
                "effectiveDateTime": "2011-01-03T22:34:28.000Z",
                "component": [
                    {
                        "code": {
                            "coding": [
                                {
                                    "code": "20570-8",
                                    "display": "Hematocrit [Volume Fraction] of Blood",
                                    "system": "LN"
                                }
                            ],
                            "text": "Hematocrit [Volume Fraction] of Blood"
                        },
                        "valueQuantity": {
                            "value": "41",
                            "code": "%",
                            "unit": "percent",
                            "system": "UCUM"
                        },
                        "referenceRange": [
                            {
                                "text": "40 to 52"
                            }
                        ],
                        "interpretation": [
                            {
                                "coding": [
                                    {
                                        "code": "N",
                                        "display": "Normal",
                                        "system": "http://terminology.hl7.org/CodeSystem/v3-ObservationInterpretation"
                                    }
                                ]
                            }
                        ]
                    }
                ],
                "subject": {
                    "reference": "Patient/eb76f96f-dde1-31cd-8815-7c2546dabe7e"
                }
            },
            "request": {
                "method": "PUT",
                "url": "Observation/b803a68d-0924-3920-b18e-ef08ad9fe115"
            }
        },
        {
            "fullUrl": "urn:uuid:20b17053-c30c-3e8d-8d02-8f82d2cf4bb9",
            "resource": {
                "resourceType": "Observation",
                "id": "20b17053-c30c-3e8d-8d02-8f82d2cf4bb9",
                "code": {
                    "coding": [
                        {
                            "code": "26464-8",
                            "display": "Leukocytes [#/volume] in Blood",
                            "system": "LN"
                        }
                    ],
                    "text": "Leukocytes [#/volume] in Blood"
                },
                "valueQuantity": {
                    "value": "105600",
                    "code": "{cells}/uL",
                    "unit": "cells per microliter",
                    "system": "UCUM"
                },
                "interpretation": [
                    {
                        "coding": [
                            {
                                "code": "HH",
                                "display": "Critical high",
                                "system": "http://terminology.hl7.org/CodeSystem/v3-ObservationInterpretation"
                            }
                        ]
                    }
                ],
                "status": "final",
                "effectiveDateTime": "2011-01-03T22:34:28.000Z",
                "component": [
                    {
                        "code": {
                            "coding": [
                                {
                                    "code": "26464-8",
                                    "display": "Leukocytes [#/volume] in Blood",
                                    "system": "LN"
                                }
                            ],
                            "text": "Leukocytes [#/volume] in Blood"
                        },
                        "valueQuantity": {
                            "value": "105600",
                            "code": "{cells}/uL",
                            "unit": "cells per microliter",
                            "system": "UCUM"
                        },
                        "referenceRange": [
                            {
                                "text": "4300 to 10800"
                            }
                        ],
                        "interpretation": [
                            {
                                "coding": [
                                    {
                                        "code": "HH",
                                        "display": "Critical high",
                                        "system": "http://terminology.hl7.org/CodeSystem/v3-ObservationInterpretation"
                                    }
                                ]
                            }
                        ]
                    }
                ],
                "subject": {
                    "reference": "Patient/eb76f96f-dde1-31cd-8815-7c2546dabe7e"
                }
            },
            "request": {
                "method": "PUT",
                "url": "Observation/20b17053-c30c-3e8d-8d02-8f82d2cf4bb9"
            }
        },
        {
            "fullUrl": "urn:uuid:6b89f590-c4d2-3273-bccb-59ae9c6f1f12",
            "resource": {
                "resourceType": "Observation",
                "id": "6b89f590-c4d2-3273-bccb-59ae9c6f1f12",
                "code": {
                    "coding": [
                        {
                            "code": "26515-7",
                            "display": "Platelets [#/volume] in Blood",
                            "system": "LN"
                        }
                    ],
                    "text": "Platelets [#/volume] in Blood"
                },
                "valueQuantity": {
                    "value": "210000",
                    "code": "{cells}/uL",
                    "unit": "cells per microliter",
                    "system": "UCUM"
                },
                "interpretation": [
                    {
                        "coding": [
                            {
                                "code": "N",
                                "display": "Normal",
                                "system": "http://terminology.hl7.org/CodeSystem/v3-ObservationInterpretation"
                            }
                        ]
                    }
                ],
                "status": "final",
                "effectiveDateTime": "2011-01-03T22:34:28.000Z",
                "component": [
                    {
                        "code": {
                            "coding": [
                                {
                                    "code": "26515-7",
                                    "display": "Platelets [#/volume] in Blood",
                                    "system": "LN"
                                }
                            ],
                            "text": "Platelets [#/volume] in Blood"
                        },
                        "valueQuantity": {
                            "value": "210000",
                            "code": "{cells}/uL",
                            "unit": "cells per microliter",
                            "system": "UCUM"
                        },
                        "referenceRange": [
                            {
                                "text": "150000 to 350000"
                            }
                        ],
                        "interpretation": [
                            {
                                "coding": [
                                    {
                                        "code": "N",
                                        "display": "Normal",
                                        "system": "http://terminology.hl7.org/CodeSystem/v3-ObservationInterpretation"
                                    }
                                ]
                            }
                        ]
                    }
                ],
                "subject": {
                    "reference": "Patient/eb76f96f-dde1-31cd-8815-7c2546dabe7e"
                }
            },
            "request": {
                "method": "PUT",
                "url": "Observation/6b89f590-c4d2-3273-bccb-59ae9c6f1f12"
            }
        },
        {
            "fullUrl": "urn:uuid:e4676236-a558-33aa-a68d-f94fd15cd114",
            "resource": {
                "resourceType": "Observation",
                "id": "e4676236-a558-33aa-a68d-f94fd15cd114",
                "code": {
                    "coding": [
                        {
                            "code": "30428-7",
                            "display": "Erythrocyte mean corpuscular volume [Entitic volume]",
                            "system": "LN"
                        }
                    ],
                    "text": "Erythrocyte mean corpuscular volume [Entitic volume]"
                },
                "valueQuantity": {
                    "value": "91",
                    "code": "fL",
                    "unit": "femtoliter",
                    "system": "UCUM"
                },
                "interpretation": [
                    {
                        "coding": [
                            {
                                "code": "N",
                                "display": "Normal",
                                "system": "http://terminology.hl7.org/CodeSystem/v3-ObservationInterpretation"
                            }
                        ]
                    }
                ],
                "status": "final",
                "effectiveDateTime": "2011-01-03T22:34:28.000Z",
                "component": [
                    {
                        "code": {
                            "coding": [
                                {
                                    "code": "30428-7",
                                    "display": "Erythrocyte mean corpuscular volume [Entitic volume]",
                                    "system": "LN"
                                }
                            ],
                            "text": "Erythrocyte mean corpuscular volume [Entitic volume]"
                        },
                        "valueQuantity": {
                            "value": "91",
                            "code": "fL",
                            "unit": "femtoliter",
                            "system": "UCUM"
                        },
                        "referenceRange": [
                            {
                                "text": "80 to 95"
                            }
                        ],
                        "interpretation": [
                            {
                                "coding": [
                                    {
                                        "code": "N",
                                        "display": "Normal",
                                        "system": "http://terminology.hl7.org/CodeSystem/v3-ObservationInterpretation"
                                    }
                                ]
                            }
                        ]
                    }
                ],
                "subject": {
                    "reference": "Patient/eb76f96f-dde1-31cd-8815-7c2546dabe7e"
                }
            },
            "request": {
                "method": "PUT",
                "url": "Observation/e4676236-a558-33aa-a68d-f94fd15cd114"
            }
        },
        {
            "fullUrl": "urn:uuid:872db55b-cb61-3616-ac58-16aa9db5f413",
            "resource": {
                "resourceType": "Observation",
                "id": "872db55b-cb61-3616-ac58-16aa9db5f413",
                "code": {
                    "coding": [
                        {
                            "code": "28539-5",
                            "display": "Erythrocyte mean corpuscular hemoglobin [Entitic mass]",
                            "system": "LN"
                        }
                    ],
                    "text": "Erythrocyte mean corpuscular hemoglobin [Entitic mass]"
                },
                "valueQuantity": {
                    "value": "29",
                    "code": "pg/{cell}",
                    "unit": "picograms per cell",
                    "system": "UCUM"
                },
                "interpretation": [
                    {
                        "coding": [
                            {
                                "code": "N",
                                "display": "Normal",
                                "system": "http://terminology.hl7.org/CodeSystem/v3-ObservationInterpretation"
                            }
                        ]
                    }
                ],
                "status": "final",
                "effectiveDateTime": "2011-01-03T22:34:28.000Z",
                "component": [
                    {
                        "code": {
                            "coding": [
                                {
                                    "code": "28539-5",
                                    "display": "Erythrocyte mean corpuscular hemoglobin [Entitic mass]",
                                    "system": "LN"
                                }
                            ],
                            "text": "Erythrocyte mean corpuscular hemoglobin [Entitic mass]"
                        },
                        "valueQuantity": {
                            "value": "29",
                            "code": "pg/{cell}",
                            "unit": "picograms per cell",
                            "system": "UCUM"
                        },
                        "referenceRange": [
                            {
                                "text": "27 to 31"
                            }
                        ],
                        "interpretation": [
                            {
                                "coding": [
                                    {
                                        "code": "N",
                                        "display": "Normal",
                                        "system": "http://terminology.hl7.org/CodeSystem/v3-ObservationInterpretation"
                                    }
                                ]
                            }
                        ]
                    }
                ],
                "subject": {
                    "reference": "Patient/eb76f96f-dde1-31cd-8815-7c2546dabe7e"
                }
            },
            "request": {
                "method": "PUT",
                "url": "Observation/872db55b-cb61-3616-ac58-16aa9db5f413"
            }
        },
        {
            "fullUrl": "urn:uuid:fbbcccf2-ce44-321c-b05d-430150b32c43",
            "resource": {
                "resourceType": "Observation",
                "id": "fbbcccf2-ce44-321c-b05d-430150b32c43",
                "code": {
                    "coding": [
                        {
                            "code": "28540-3",
                            "display": "Erythrocyte mean corpuscular hemoglobin concentration [Mass/volume]",
                            "system": "LN"
                        }
                    ],
                    "text": "Erythrocyte mean corpuscular hemoglobin concentration [Mass/volume]"
                },
                "valueQuantity": {
                    "value": "32.4",
                    "code": "g/dL",
                    "unit": "grams per deciliter",
                    "system": "UCUM"
                },
                "interpretation": [
                    {
                        "coding": [
                            {
                                "code": "N",
                                "display": "Normal",
                                "system": "http://terminology.hl7.org/CodeSystem/v3-ObservationInterpretation"
                            }
                        ]
                    }
                ],
                "status": "final",
                "effectiveDateTime": "2011-01-03T22:34:28.000Z",
                "component": [
                    {
                        "code": {
                            "coding": [
                                {
                                    "code": "28540-3",
                                    "display": "Erythrocyte mean corpuscular hemoglobin concentration [Mass/volume]",
                                    "system": "LN"
                                }
                            ],
                            "text": "Erythrocyte mean corpuscular hemoglobin concentration [Mass/volume]"
                        },
                        "valueQuantity": {
                            "value": "32.4",
                            "code": "g/dL",
                            "unit": "grams per deciliter",
                            "system": "UCUM"
                        },
                        "referenceRange": [
                            {
                                "text": "32 to 36"
                            }
                        ],
                        "interpretation": [
                            {
                                "coding": [
                                    {
                                        "code": "N",
                                        "display": "Normal",
                                        "system": "http://terminology.hl7.org/CodeSystem/v3-ObservationInterpretation"
                                    }
                                ]
                            }
                        ]
                    }
                ],
                "subject": {
                    "reference": "Patient/eb76f96f-dde1-31cd-8815-7c2546dabe7e"
                }
            },
            "request": {
                "method": "PUT",
                "url": "Observation/fbbcccf2-ce44-321c-b05d-430150b32c43"
            }
        },
        {
            "fullUrl": "urn:uuid:dce8a176-1de4-3920-925a-c8353019026a",
            "resource": {
                "resourceType": "Observation",
                "id": "dce8a176-1de4-3920-925a-c8353019026a",
                "code": {
                    "coding": [
                        {
                            "code": "30385-9",
                            "display": "Erythrocyte distribution width [Ratio]",
                            "system": "LN"
                        }
                    ],
                    "text": "Erythrocyte distribution width [Ratio]"
                },
                "valueQuantity": {
                    "value": "10.5",
                    "code": "%",
                    "unit": "percent",
                    "system": "UCUM"
                },
                "interpretation": [
                    {
                        "coding": [
                            {
                                "code": "N",
                                "display": "Normal",
                                "system": "http://terminology.hl7.org/CodeSystem/v3-ObservationInterpretation"
                            }
                        ]
                    }
                ],
                "status": "final",
                "effectiveDateTime": "2011-01-03T22:34:28.000Z",
                "component": [
                    {
                        "code": {
                            "coding": [
                                {
                                    "code": "30385-9",
                                    "display": "Erythrocyte distribution width [Ratio]",
                                    "system": "LN"
                                }
                            ],
                            "text": "Erythrocyte distribution width [Ratio]"
                        },
                        "valueQuantity": {
                            "value": "10.5",
                            "code": "%",
                            "unit": "percent",
                            "system": "UCUM"
                        },
                        "referenceRange": [
                            {
                                "text": "10.2 to 14.5"
                            }
                        ],
                        "interpretation": [
                            {
                                "coding": [
                                    {
                                        "code": "N",
                                        "display": "Normal",
                                        "system": "http://terminology.hl7.org/CodeSystem/v3-ObservationInterpretation"
                                    }
                                ]
                            }
                        ]
                    }
                ],
                "subject": {
                    "reference": "Patient/eb76f96f-dde1-31cd-8815-7c2546dabe7e"
                }
            },
            "request": {
                "method": "PUT",
                "url": "Observation/dce8a176-1de4-3920-925a-c8353019026a"
            }
        },
        {
            "fullUrl": "urn:uuid:af28e6a9-f892-3ed9-952f-16790426ab22",
            "resource": {
                "resourceType": "Observation",
                "id": "af28e6a9-f892-3ed9-952f-16790426ab22",
                "code": {
                    "coding": [
                        {
                            "code": "26444-0",
                            "display": "Basophils [#/volume] in Blood",
                            "system": "LN"
                        }
                    ],
                    "text": "Basophils [#/volume] in Blood"
                },
                "valueQuantity": {
                    "value": "0.1",
                    "code": "10*3/uL",
                    "unit": "thousand per microliter",
                    "system": "UCUM"
                },
                "interpretation": [
                    {
                        "coding": [
                            {
                                "code": "N",
                                "display": "Normal",
                                "system": "http://terminology.hl7.org/CodeSystem/v3-ObservationInterpretation"
                            }
                        ]
                    }
                ],
                "status": "final",
                "effectiveDateTime": "2011-01-03T22:34:28.000Z",
                "component": [
                    {
                        "code": {
                            "coding": [
                                {
                                    "code": "26444-0",
                                    "display": "Basophils [#/volume] in Blood",
                                    "system": "LN"
                                }
                            ],
                            "text": "Basophils [#/volume] in Blood"
                        },
                        "valueQuantity": {
                            "value": "0.1",
                            "code": "10*3/uL",
                            "unit": "thousand per microliter",
                            "system": "UCUM"
                        },
                        "referenceRange": [
                            {
                                "text": "0 to 0.3"
                            }
                        ],
                        "interpretation": [
                            {
                                "coding": [
                                    {
                                        "code": "N",
                                        "display": "Normal",
                                        "system": "http://terminology.hl7.org/CodeSystem/v3-ObservationInterpretation"
                                    }
                                ]
                            }
                        ]
                    }
                ],
                "subject": {
                    "reference": "Patient/eb76f96f-dde1-31cd-8815-7c2546dabe7e"
                }
            },
            "request": {
                "method": "PUT",
                "url": "Observation/af28e6a9-f892-3ed9-952f-16790426ab22"
            }
        },
        {
            "fullUrl": "urn:uuid:27490c23-6696-3d50-841b-9f1330a567e6",
            "resource": {
                "resourceType": "Observation",
                "id": "27490c23-6696-3d50-841b-9f1330a567e6",
                "code": {
                    "coding": [
                        {
                            "code": "30180-4",
                            "display": "Basophils/100 leukocytes in Blood",
                            "system": "LN"
                        }
                    ],
                    "text": "Basophils/100 leukocytes in Blood"
                },
                "valueQuantity": {
                    "value": "0.1",
                    "code": "%",
                    "unit": "percent",
                    "system": "UCUM"
                },
                "interpretation": [
                    {
                        "coding": [
                            {
                                "code": "N",
                                "display": "Normal",
                                "system": "http://terminology.hl7.org/CodeSystem/v3-ObservationInterpretation"
                            }
                        ]
                    }
                ],
                "status": "final",
                "effectiveDateTime": "2011-01-03T22:34:28.000Z",
                "component": [
                    {
                        "code": {
                            "coding": [
                                {
                                    "code": "30180-4",
                                    "display": "Basophils/100 leukocytes in Blood",
                                    "system": "LN"
                                }
                            ],
                            "text": "Basophils/100 leukocytes in Blood"
                        },
                        "valueQuantity": {
                            "value": "0.1",
                            "code": "%",
                            "unit": "percent",
                            "system": "UCUM"
                        },
                        "referenceRange": [
                            {
                                "text": "0 to 2"
                            }
                        ],
                        "interpretation": [
                            {
                                "coding": [
                                    {
                                        "code": "N",
                                        "display": "Normal",
                                        "system": "http://terminology.hl7.org/CodeSystem/v3-ObservationInterpretation"
                                    }
                                ]
                            }
                        ]
                    }
                ],
                "subject": {
                    "reference": "Patient/eb76f96f-dde1-31cd-8815-7c2546dabe7e"
                }
            },
            "request": {
                "method": "PUT",
                "url": "Observation/27490c23-6696-3d50-841b-9f1330a567e6"
            }
        },
        {
            "fullUrl": "urn:uuid:8b3a0731-e4e9-3861-bb23-83a83d52ced7",
            "resource": {
                "resourceType": "Observation",
                "id": "8b3a0731-e4e9-3861-bb23-83a83d52ced7",
                "code": {
                    "coding": [
                        {
                            "code": "26484-6",
                            "display": "Monocytes [#/volume] in Blood",
                            "system": "LN"
                        }
                    ],
                    "text": "Monocytes [#/volume] in Blood"
                },
                "valueQuantity": {
                    "value": "3",
                    "code": "10*3/uL",
                    "unit": "thousand per microliter",
                    "system": "UCUM"
                },
                "interpretation": [
                    {
                        "coding": [
                            {
                                "code": "N",
                                "display": "Normal",
                                "system": "http://terminology.hl7.org/CodeSystem/v3-ObservationInterpretation"
                            }
                        ]
                    }
                ],
                "status": "final",
                "effectiveDateTime": "2011-01-03T22:34:28.000Z",
                "component": [
                    {
                        "code": {
                            "coding": [
                                {
                                    "code": "26484-6",
                                    "display": "Monocytes [#/volume] in Blood",
                                    "system": "LN"
                                }
                            ],
                            "text": "Monocytes [#/volume] in Blood"
                        },
                        "valueQuantity": {
                            "value": "3",
                            "code": "10*3/uL",
                            "unit": "thousand per microliter",
                            "system": "UCUM"
                        },
                        "referenceRange": [
                            {
                                "text": "0.0 to 13.0"
                            }
                        ],
                        "interpretation": [
                            {
                                "coding": [
                                    {
                                        "code": "N",
                                        "display": "Normal",
                                        "system": "http://terminology.hl7.org/CodeSystem/v3-ObservationInterpretation"
                                    }
                                ]
                            }
                        ]
                    }
                ],
                "subject": {
                    "reference": "Patient/eb76f96f-dde1-31cd-8815-7c2546dabe7e"
                }
            },
            "request": {
                "method": "PUT",
                "url": "Observation/8b3a0731-e4e9-3861-bb23-83a83d52ced7"
            }
        },
        {
            "fullUrl": "urn:uuid:35cfa6bb-5af3-3874-bfc6-a3e75217e52f",
            "resource": {
                "resourceType": "Observation",
                "id": "35cfa6bb-5af3-3874-bfc6-a3e75217e52f",
                "code": {
                    "coding": [
                        {
                            "code": "26485-3",
                            "display": "Monocytes/100 leukocytes in Blood",
                            "system": "LN"
                        }
                    ],
                    "text": "Monocytes/100 leukocytes in Blood"
                },
                "valueQuantity": {
                    "value": "3",
                    "code": "%",
                    "unit": "percent",
                    "system": "UCUM"
                },
                "interpretation": [
                    {
                        "coding": [
                            {
                                "code": "N",
                                "display": "Normal",
                                "system": "http://terminology.hl7.org/CodeSystem/v3-ObservationInterpretation"
                            }
                        ]
                    }
                ],
                "status": "final",
                "effectiveDateTime": "2011-01-03T22:34:28.000Z",
                "component": [
                    {
                        "code": {
                            "coding": [
                                {
                                    "code": "26485-3",
                                    "display": "Monocytes/100 leukocytes in Blood",
                                    "system": "LN"
                                }
                            ],
                            "text": "Monocytes/100 leukocytes in Blood"
                        },
                        "valueQuantity": {
                            "value": "3",
                            "code": "%",
                            "unit": "percent",
                            "system": "UCUM"
                        },
                        "referenceRange": [
                            {
                                "text": "0 to 10"
                            }
                        ],
                        "interpretation": [
                            {
                                "coding": [
                                    {
                                        "code": "N",
                                        "display": "Normal",
                                        "system": "http://terminology.hl7.org/CodeSystem/v3-ObservationInterpretation"
                                    }
                                ]
                            }
                        ]
                    }
                ],
                "subject": {
                    "reference": "Patient/eb76f96f-dde1-31cd-8815-7c2546dabe7e"
                }
            },
            "request": {
                "method": "PUT",
                "url": "Observation/35cfa6bb-5af3-3874-bfc6-a3e75217e52f"
            }
        },
        {
            "fullUrl": "urn:uuid:4c0e82c3-915f-3192-92a4-2bcea16e8048",
            "resource": {
                "resourceType": "Observation",
                "id": "4c0e82c3-915f-3192-92a4-2bcea16e8048",
                "code": {
                    "coding": [
                        {
                            "code": "26449-9",
                            "display": "Eosinophils [#/volume] in Blood",
                            "system": "LN"
                        }
                    ],
                    "text": "Eosinophils [#/volume] in Blood"
                },
                "valueQuantity": {
                    "value": "2.1",
                    "code": "10*3/uL",
                    "unit": "thousand per microliter",
                    "system": "UCUM"
                },
                "interpretation": [
                    {
                        "coding": [
                            {
                                "code": "HH",
                                "display": "Critical high",
                                "system": "http://terminology.hl7.org/CodeSystem/v3-ObservationInterpretation"
                            }
                        ]
                    }
                ],
                "status": "final",
                "effectiveDateTime": "2011-01-03T22:34:28.000Z",
                "component": [
                    {
                        "code": {
                            "coding": [
                                {
                                    "code": "26449-9",
                                    "display": "Eosinophils [#/volume] in Blood",
                                    "system": "LN"
                                }
                            ],
                            "text": "Eosinophils [#/volume] in Blood"
                        },
                        "valueQuantity": {
                            "value": "2.1",
                            "code": "10*3/uL",
                            "unit": "thousand per microliter",
                            "system": "UCUM"
                        },
                        "referenceRange": [
                            {
                                "text": "0.0 to 0.45"
                            }
                        ],
                        "interpretation": [
                            {
                                "coding": [
                                    {
                                        "code": "HH",
                                        "display": "Critical high",
                                        "system": "http://terminology.hl7.org/CodeSystem/v3-ObservationInterpretation"
                                    }
                                ]
                            }
                        ]
                    }
                ],
                "subject": {
                    "reference": "Patient/eb76f96f-dde1-31cd-8815-7c2546dabe7e"
                }
            },
            "request": {
                "method": "PUT",
                "url": "Observation/4c0e82c3-915f-3192-92a4-2bcea16e8048"
            }
        },
        {
            "fullUrl": "urn:uuid:35fe552d-ef24-3b12-8529-72808541ebe7",
            "resource": {
                "resourceType": "Observation",
                "id": "35fe552d-ef24-3b12-8529-72808541ebe7",
                "code": {
                    "coding": [
                        {
                            "code": "26450-7",
                            "display": "Eosinophils/100 leukocytes in Blood",
                            "system": "LN"
                        }
                    ],
                    "text": "Eosinophils/100 leukocytes in Blood"
                },
                "valueQuantity": {
                    "value": "2",
                    "code": "%",
                    "unit": "percent",
                    "system": "UCUM"
                },
                "interpretation": [
                    {
                        "coding": [
                            {
                                "code": "N",
                                "display": "Normal",
                                "system": "http://terminology.hl7.org/CodeSystem/v3-ObservationInterpretation"
                            }
                        ]
                    }
                ],
                "status": "final",
                "effectiveDateTime": "2011-01-03T22:34:28.000Z",
                "component": [
                    {
                        "code": {
                            "coding": [
                                {
                                    "code": "26450-7",
                                    "display": "Eosinophils/100 leukocytes in Blood",
                                    "system": "LN"
                                }
                            ],
                            "text": "Eosinophils/100 leukocytes in Blood"
                        },
                        "valueQuantity": {
                            "value": "2",
                            "code": "%",
                            "unit": "percent",
                            "system": "UCUM"
                        },
                        "referenceRange": [
                            {
                                "text": "0 to 6"
                            }
                        ],
                        "interpretation": [
                            {
                                "coding": [
                                    {
                                        "code": "N",
                                        "display": "Normal",
                                        "system": "http://terminology.hl7.org/CodeSystem/v3-ObservationInterpretation"
                                    }
                                ]
                            }
                        ]
                    }
                ],
                "subject": {
                    "reference": "Patient/eb76f96f-dde1-31cd-8815-7c2546dabe7e"
                }
            },
            "request": {
                "method": "PUT",
                "url": "Observation/35fe552d-ef24-3b12-8529-72808541ebe7"
            }
        },
        {
            "fullUrl": "urn:uuid:5212a039-c1e0-38af-8c77-6fd199cba2ff",
            "resource": {
                "resourceType": "Observation",
                "id": "5212a039-c1e0-38af-8c77-6fd199cba2ff",
                "code": {
                    "coding": [
                        {
                            "code": "26474-7",
                            "display": "Lymphocytes [#/volume] in Blood",
                            "system": "LN"
                        }
                    ],
                    "text": "Lymphocytes [#/volume] in Blood"
                },
                "valueQuantity": {
                    "value": "41.2",
                    "code": "10*3/uL",
                    "unit": "thousand per microliter",
                    "system": "UCUM"
                },
                "interpretation": [
                    {
                        "coding": [
                            {
                                "code": "HH",
                                "display": "Critical high",
                                "system": "http://terminology.hl7.org/CodeSystem/v3-ObservationInterpretation"
                            }
                        ]
                    }
                ],
                "status": "final",
                "effectiveDateTime": "2011-01-03T22:34:28.000Z",
                "component": [
                    {
                        "code": {
                            "coding": [
                                {
                                    "code": "26474-7",
                                    "display": "Lymphocytes [#/volume] in Blood",
                                    "system": "LN"
                                }
                            ],
                            "text": "Lymphocytes [#/volume] in Blood"
                        },
                        "valueQuantity": {
                            "value": "41.2",
                            "code": "10*3/uL",
                            "unit": "thousand per microliter",
                            "system": "UCUM"
                        },
                        "referenceRange": [
                            {
                                "text": "1.0 to 4.8"
                            }
                        ],
                        "interpretation": [
                            {
                                "coding": [
                                    {
                                        "code": "HH",
                                        "display": "Critical high",
                                        "system": "http://terminology.hl7.org/CodeSystem/v3-ObservationInterpretation"
                                    }
                                ]
                            }
                        ]
                    }
                ],
                "subject": {
                    "reference": "Patient/eb76f96f-dde1-31cd-8815-7c2546dabe7e"
                }
            },
            "request": {
                "method": "PUT",
                "url": "Observation/5212a039-c1e0-38af-8c77-6fd199cba2ff"
            }
        },
        {
            "fullUrl": "urn:uuid:80a1575c-edf9-3a00-86a9-7b1817391a17",
            "resource": {
                "resourceType": "Observation",
                "id": "80a1575c-edf9-3a00-86a9-7b1817391a17",
                "code": {
                    "coding": [
                        {
                            "code": "26478-8",
                            "display": "Lymphocytes/100 leukocytes in Blood",
                            "system": "LN"
                        }
                    ],
                    "text": "Lymphocytes/100 leukocytes in Blood"
                },
                "valueQuantity": {
                    "value": "39",
                    "code": "%",
                    "unit": "percent",
                    "system": "UCUM"
                },
                "interpretation": [
                    {
                        "coding": [
                            {
                                "code": "N",
                                "display": "Normal",
                                "system": "http://terminology.hl7.org/CodeSystem/v3-ObservationInterpretation"
                            }
                        ]
                    }
                ],
                "status": "final",
                "effectiveDateTime": "2011-01-03T22:34:28.000Z",
                "component": [
                    {
                        "code": {
                            "coding": [
                                {
                                    "code": "26478-8",
                                    "display": "Lymphocytes/100 leukocytes in Blood",
                                    "system": "LN"
                                }
                            ],
                            "text": "Lymphocytes/100 leukocytes in Blood"
                        },
                        "valueQuantity": {
                            "value": "39",
                            "code": "%",
                            "unit": "percent",
                            "system": "UCUM"
                        },
                        "referenceRange": [
                            {
                                "text": "15.0 to 45.0"
                            }
                        ],
                        "interpretation": [
                            {
                                "coding": [
                                    {
                                        "code": "N",
                                        "display": "Normal",
                                        "system": "http://terminology.hl7.org/CodeSystem/v3-ObservationInterpretation"
                                    }
                                ]
                            }
                        ]
                    }
                ],
                "subject": {
                    "reference": "Patient/eb76f96f-dde1-31cd-8815-7c2546dabe7e"
                }
            },
            "request": {
                "method": "PUT",
                "url": "Observation/80a1575c-edf9-3a00-86a9-7b1817391a17"
            }
        },
        {
            "fullUrl": "urn:uuid:ba2b6fff-bd78-337b-a099-f95cdc57fa5f",
            "resource": {
                "resourceType": "Observation",
                "id": "ba2b6fff-bd78-337b-a099-f95cdc57fa5f",
                "code": {
                    "coding": [
                        {
                            "code": "26499-4",
                            "display": "Neutrophils [#/volume] in Blood",
                            "system": "LN"
                        }
                    ],
                    "text": "Neutrophils [#/volume] in Blood"
                },
                "valueQuantity": {
                    "value": "58",
                    "code": "10*3/uL",
                    "unit": "thousand per microliter",
                    "system": "UCUM"
                },
                "interpretation": [
                    {
                        "coding": [
                            {
                                "code": "HH",
                                "display": "Critical high",
                                "system": "http://terminology.hl7.org/CodeSystem/v3-ObservationInterpretation"
                            }
                        ]
                    }
                ],
                "status": "final",
                "effectiveDateTime": "2011-01-03T22:34:28.000Z",
                "component": [
                    {
                        "code": {
                            "coding": [
                                {
                                    "code": "26499-4",
                                    "display": "Neutrophils [#/volume] in Blood",
                                    "system": "LN"
                                }
                            ],
                            "text": "Neutrophils [#/volume] in Blood"
                        },
                        "valueQuantity": {
                            "value": "58",
                            "code": "10*3/uL",
                            "unit": "thousand per microliter",
                            "system": "UCUM"
                        },
                        "referenceRange": [
                            {
                                "text": "1.5 to 7.0"
                            }
                        ],
                        "interpretation": [
                            {
                                "coding": [
                                    {
                                        "code": "HH",
                                        "display": "Critical high",
                                        "system": "http://terminology.hl7.org/CodeSystem/v3-ObservationInterpretation"
                                    }
                                ]
                            }
                        ]
                    }
                ],
                "subject": {
                    "reference": "Patient/eb76f96f-dde1-31cd-8815-7c2546dabe7e"
                }
            },
            "request": {
                "method": "PUT",
                "url": "Observation/ba2b6fff-bd78-337b-a099-f95cdc57fa5f"
            }
        },
        {
            "fullUrl": "urn:uuid:4e1869dd-731e-321a-8304-b8b58b4591c9",
            "resource": {
                "resourceType": "Observation",
                "id": "4e1869dd-731e-321a-8304-b8b58b4591c9",
                "code": {
                    "coding": [
                        {
                            "code": "26511-6",
                            "display": "Neutrophils/100 leukocytes in Blood",
                            "system": "LN"
                        }
                    ],
                    "text": "Neutrophils/100 leukocytes in Blood"
                },
                "valueQuantity": {
                    "value": "55",
                    "code": "%",
                    "unit": "percent",
                    "system": "UCUM"
                },
                "interpretation": [
                    {
                        "coding": [
                            {
                                "code": "N",
                                "display": "Normal",
                                "system": "http://terminology.hl7.org/CodeSystem/v3-ObservationInterpretation"
                            }
                        ]
                    }
                ],
                "status": "final",
                "effectiveDateTime": "2011-01-03T22:34:28.000Z",
                "component": [
                    {
                        "code": {
                            "coding": [
                                {
                                    "code": "26511-6",
                                    "display": "Neutrophils/100 leukocytes in Blood",
                                    "system": "LN"
                                }
                            ],
                            "text": "Neutrophils/100 leukocytes in Blood"
                        },
                        "valueQuantity": {
                            "value": "55",
                            "code": "%",
                            "unit": "percent",
                            "system": "UCUM"
                        },
                        "referenceRange": [
                            {
                                "text": "50 to 73"
                            }
                        ],
                        "interpretation": [
                            {
                                "coding": [
                                    {
                                        "code": "N",
                                        "display": "Normal",
                                        "system": "http://terminology.hl7.org/CodeSystem/v3-ObservationInterpretation"
                                    }
                                ]
                            }
                        ]
                    }
                ],
                "subject": {
                    "reference": "Patient/eb76f96f-dde1-31cd-8815-7c2546dabe7e"
                }
            },
            "request": {
                "method": "PUT",
                "url": "Observation/4e1869dd-731e-321a-8304-b8b58b4591c9"
            }
        },
        {
            "fullUrl": "urn:uuid:cced5bb2-aaed-38fb-896d-d0d87a6d24d8",
            "resource": {
                "resourceType": "Observation",
                "id": "cced5bb2-aaed-38fb-896d-d0d87a6d24d8",
                "code": {
                    "coding": [
                        {
                            "code": "38892-6",
                            "display": "Anisocytosis [Presence] in Blood",
                            "system": "LN"
                        }
                    ],
                    "text": "Anisocytosis [Presence] in Blood"
                },
                "valueCodeableConcept": {
                    "coding": [
                        {
                            "code": "260348001",
                            "display": "Present ++ out of ++++",
                            "system": "SCT"
                        }
                    ],
                    "text": "Moderate Anisocytosis"
                },
                "interpretation": [
                    {
                        "coding": [
                            {
                                "code": "A",
                                "display": "Abnormal",
                                "system": "http://terminology.hl7.org/CodeSystem/v3-ObservationInterpretation"
                            }
                        ]
                    }
                ],
                "status": "final",
                "effectiveDateTime": "2011-01-03T22:34:28.000Z",
                "component": [
                    {
                        "code": {
                            "coding": [
                                {
                                    "code": "38892-6",
                                    "display": "Anisocytosis [Presence] in Blood",
                                    "system": "LN"
                                }
                            ],
                            "text": "Anisocytosis [Presence] in Blood"
                        },
                        "interpretation": [
                            {
                                "coding": [
                                    {
                                        "code": "A",
                                        "display": "Abnormal",
                                        "system": "http://terminology.hl7.org/CodeSystem/v3-ObservationInterpretation"
                                    }
                                ]
                            }
                        ]
                    }
                ],
                "subject": {
                    "reference": "Patient/eb76f96f-dde1-31cd-8815-7c2546dabe7e"
                }
            },
            "request": {
                "method": "PUT",
                "url": "Observation/cced5bb2-aaed-38fb-896d-d0d87a6d24d8"
            }
        },
        {
            "fullUrl": "urn:uuid:3439feea-3a04-306f-802e-b77b8d3f8673",
            "resource": {
                "resourceType": "Observation",
                "id": "3439feea-3a04-306f-802e-b77b8d3f8673",
                "code": {
                    "coding": [
                        {
                            "code": "30400-6",
                            "display": "Hypochromia [Presence] in Blood",
                            "system": "LN"
                        }
                    ],
                    "text": "Hypochromia [Presence] in Blood"
                },
                "valueCodeableConcept": {
                    "coding": [
                        {
                            "code": "260415000",
                            "display": "not detected",
                            "system": "SCT"
                        }
                    ],
                    "text": "None seen"
                },
                "interpretation": [
                    {
                        "coding": [
                            {
                                "code": "N",
                                "display": "Normal",
                                "system": "http://terminology.hl7.org/CodeSystem/v3-ObservationInterpretation"
                            }
                        ]
                    }
                ],
                "status": "final",
                "effectiveDateTime": "2011-01-03T22:34:28.000Z",
                "component": [
                    {
                        "code": {
                            "coding": [
                                {
                                    "code": "30400-6",
                                    "display": "Hypochromia [Presence] in Blood",
                                    "system": "LN"
                                }
                            ],
                            "text": "Hypochromia [Presence] in Blood"
                        },
                        "interpretation": [
                            {
                                "coding": [
                                    {
                                        "code": "N",
                                        "display": "Normal",
                                        "system": "http://terminology.hl7.org/CodeSystem/v3-ObservationInterpretation"
                                    }
                                ]
                            }
                        ]
                    }
                ],
                "subject": {
                    "reference": "Patient/eb76f96f-dde1-31cd-8815-7c2546dabe7e"
                }
            },
            "request": {
                "method": "PUT",
                "url": "Observation/3439feea-3a04-306f-802e-b77b8d3f8673"
            }
        },
        {
            "fullUrl": "urn:uuid:536cf6c6-5206-39c5-8285-4a6c0367d015",
            "resource": {
                "resourceType": "Observation",
                "id": "536cf6c6-5206-39c5-8285-4a6c0367d015",
                "code": {
                    "coding": [
                        {
                            "code": "30424-6",
                            "display": "Macrocytes [Presence] in Blood",
                            "system": "LN"
                        }
                    ],
                    "text": "Macrocytes [Presence] in Blood"
                },
                "valueCodeableConcept": {
                    "coding": [
                        {
                            "code": "260415000",
                            "display": "not detected",
                            "system": "SCT"
                        }
                    ],
                    "text": "None seen"
                },
                "interpretation": [
                    {
                        "coding": [
                            {
                                "code": "N",
                                "display": "Normal",
                                "system": "http://terminology.hl7.org/CodeSystem/v3-ObservationInterpretation"
                            }
                        ]
                    }
                ],
                "status": "final",
                "effectiveDateTime": "2011-01-03T22:34:28.000Z",
                "component": [
                    {
                        "code": {
                            "coding": [
                                {
                                    "code": "30424-6",
                                    "display": "Macrocytes [Presence] in Blood",
                                    "system": "LN"
                                }
                            ],
                            "text": "Macrocytes [Presence] in Blood"
                        },
                        "interpretation": [
                            {
                                "coding": [
                                    {
                                        "code": "N",
                                        "display": "Normal",
                                        "system": "http://terminology.hl7.org/CodeSystem/v3-ObservationInterpretation"
                                    }
                                ]
                            }
                        ]
                    }
                ],
                "subject": {
                    "reference": "Patient/eb76f96f-dde1-31cd-8815-7c2546dabe7e"
                }
            },
            "request": {
                "method": "PUT",
                "url": "Observation/536cf6c6-5206-39c5-8285-4a6c0367d015"
            }
        },
        {
            "fullUrl": "urn:uuid:ed775f76-178e-34c9-b21e-2772b99df2b3",
            "resource": {
                "resourceType": "Observation",
                "id": "ed775f76-178e-34c9-b21e-2772b99df2b3",
                "code": {
                    "coding": [
                        {
                            "code": "30434-5",
                            "display": "Microcytes [Presence] in Blood",
                            "system": "LN"
                        }
                    ],
                    "text": "Microcytes [Presence] in Blood"
                },
                "valueCodeableConcept": {
                    "coding": [
                        {
                            "code": "260415000",
                            "display": "not detected",
                            "system": "SCT"
                        }
                    ],
                    "text": "None seen"
                },
                "interpretation": [
                    {
                        "coding": [
                            {
                                "code": "N",
                                "display": "Normal",
                                "system": "http://terminology.hl7.org/CodeSystem/v3-ObservationInterpretation"
                            }
                        ]
                    }
                ],
                "status": "final",
                "effectiveDateTime": "2011-01-03T22:34:28.000Z",
                "component": [
                    {
                        "code": {
                            "coding": [
                                {
                                    "code": "30434-5",
                                    "display": "Microcytes [Presence] in Blood",
                                    "system": "LN"
                                }
                            ],
                            "text": "Microcytes [Presence] in Blood"
                        },
                        "interpretation": [
                            {
                                "coding": [
                                    {
                                        "code": "N",
                                        "display": "Normal",
                                        "system": "http://terminology.hl7.org/CodeSystem/v3-ObservationInterpretation"
                                    }
                                ]
                            }
                        ]
                    }
                ],
                "subject": {
                    "reference": "Patient/eb76f96f-dde1-31cd-8815-7c2546dabe7e"
                }
            },
            "request": {
                "method": "PUT",
                "url": "Observation/ed775f76-178e-34c9-b21e-2772b99df2b3"
            }
        },
        {
            "fullUrl": "urn:uuid:99e6cb72-3b6d-38d1-8972-1adc646c7b95",
            "resource": {
                "resourceType": "Observation",
                "id": "99e6cb72-3b6d-38d1-8972-1adc646c7b95",
                "code": {
                    "coding": [
                        {
                            "code": "779-9",
                            "display": "Poikilocytosis [Presence] in Blood by Light microscopy",
                            "system": "LN"
                        }
                    ],
                    "text": "Poikilocytosis [Presence] in Blood by Light microscopy"
                },
                "valueCodeableConcept": {
                    "coding": [
                        {
                            "code": "260415000",
                            "display": "not detected",
                            "system": "SCT"
                        }
                    ],
                    "text": "None seen"
                },
                "interpretation": [
                    {
                        "coding": [
                            {
                                "code": "N",
                                "display": "Normal",
                                "system": "http://terminology.hl7.org/CodeSystem/v3-ObservationInterpretation"
                            }
                        ]
                    }
                ],
                "status": "final",
                "effectiveDateTime": "2011-01-03T22:34:28.000Z",
                "component": [
                    {
                        "code": {
                            "coding": [
                                {
                                    "code": "779-9",
                                    "display": "Poikilocytosis [Presence] in Blood by Light microscopy",
                                    "system": "LN"
                                }
                            ],
                            "text": "Poikilocytosis [Presence] in Blood by Light microscopy"
                        },
                        "interpretation": [
                            {
                                "coding": [
                                    {
                                        "code": "N",
                                        "display": "Normal",
                                        "system": "http://terminology.hl7.org/CodeSystem/v3-ObservationInterpretation"
                                    }
                                ]
                            }
                        ]
                    }
                ],
                "subject": {
                    "reference": "Patient/eb76f96f-dde1-31cd-8815-7c2546dabe7e"
                }
            },
            "request": {
                "method": "PUT",
                "url": "Observation/99e6cb72-3b6d-38d1-8972-1adc646c7b95"
            }
        },
        {
            "fullUrl": "urn:uuid:a67b007b-75dd-3acb-b331-cea8609fe944",
            "resource": {
                "resourceType": "Observation",
                "id": "a67b007b-75dd-3acb-b331-cea8609fe944",
                "code": {
                    "coding": [
                        {
                            "code": "10378-8",
                            "display": "Polychromasia [Presence] in Blood by Light microscopy",
                            "system": "LN"
                        }
                    ],
                    "text": "Polychromasia [Presence] in Blood by Light microscopy"
                },
                "valueCodeableConcept": {
                    "coding": [
                        {
                            "code": "260415000",
                            "display": "not detected",
                            "system": "SCT"
                        }
                    ],
                    "text": "None seen"
                },
                "interpretation": [
                    {
                        "coding": [
                            {
                                "code": "N",
                                "display": "Normal",
                                "system": "http://terminology.hl7.org/CodeSystem/v3-ObservationInterpretation"
                            }
                        ]
                    }
                ],
                "status": "final",
                "effectiveDateTime": "2011-01-03T22:34:28.000Z",
                "component": [
                    {
                        "code": {
                            "coding": [
                                {
                                    "code": "10378-8",
                                    "display": "Polychromasia [Presence] in Blood by Light microscopy",
                                    "system": "LN"
                                }
                            ],
                            "text": "Polychromasia [Presence] in Blood by Light microscopy"
                        },
                        "interpretation": [
                            {
                                "coding": [
                                    {
                                        "code": "N",
                                        "display": "Normal",
                                        "system": "http://terminology.hl7.org/CodeSystem/v3-ObservationInterpretation"
                                    }
                                ]
                            }
                        ]
                    }
                ],
                "subject": {
                    "reference": "Patient/eb76f96f-dde1-31cd-8815-7c2546dabe7e"
                }
            },
            "request": {
                "method": "PUT",
                "url": "Observation/a67b007b-75dd-3acb-b331-cea8609fe944"
            }
        },
        {
            "fullUrl": "urn:uuid:c4767164-cf0d-316e-bd1f-1324e9464d5e",
            "resource": {
                "resourceType": "Observation",
                "id": "c4767164-cf0d-316e-bd1f-1324e9464d5e",
                "code": {
                    "coding": [
                        {
                            "code": "6742-1",
                            "display": "Erythrocyte morphology finding [Identifier] in Blood",
                            "system": "LN"
                        }
                    ],
                    "text": "Erythrocyte morphology finding [Identifier] in Blood"
                },
                "valueString": "Many spherocytes present.",
                "interpretation": [
                    {
                        "coding": [
                            {
                                "code": "A",
                                "display": "Abnormal",
                                "system": "http://terminology.hl7.org/CodeSystem/v3-ObservationInterpretation"
                            }
                        ]
                    }
                ],
                "status": "final",
                "effectiveDateTime": "2011-01-03T22:34:28.000Z",
                "component": [
                    {
                        "code": {
                            "coding": [
                                {
                                    "code": "6742-1",
                                    "display": "Erythrocyte morphology finding [Identifier] in Blood",
                                    "system": "LN"
                                }
                            ],
                            "text": "Erythrocyte morphology finding [Identifier] in Blood"
                        },
                        "valueString": "Many spherocytes present.",
                        "interpretation": [
                            {
                                "coding": [
                                    {
                                        "code": "A",
                                        "display": "Abnormal",
                                        "system": "http://terminology.hl7.org/CodeSystem/v3-ObservationInterpretation"
                                    }
                                ]
                            }
                        ]
                    }
                ],
                "subject": {
                    "reference": "Patient/eb76f96f-dde1-31cd-8815-7c2546dabe7e"
                }
            },
            "request": {
                "method": "PUT",
                "url": "Observation/c4767164-cf0d-316e-bd1f-1324e9464d5e"
            }
        },
        {
            "fullUrl": "urn:uuid:78a3465f-94ae-3d10-a38a-86a801a9c8bb",
            "resource": {
                "resourceType": "Observation",
                "id": "78a3465f-94ae-3d10-a38a-86a801a9c8bb",
                "code": {
                    "coding": [
                        {
                            "code": "11156-7",
                            "display": "Leukocyte morphology finding [Identifier] in Blood",
                            "system": "LN"
                        }
                    ],
                    "text": "Leukocyte morphology finding [Identifier] in Blood"
                },
                "valueString": "Reactive morphology in lymphoid cells.",
                "interpretation": [
                    {
                        "coding": [
                            {
                                "code": "A",
                                "display": "Abnormal",
                                "system": "http://terminology.hl7.org/CodeSystem/v3-ObservationInterpretation"
                            }
                        ]
                    }
                ],
                "status": "final",
                "effectiveDateTime": "2011-01-03T22:34:28.000Z",
                "component": [
                    {
                        "code": {
                            "coding": [
                                {
                                    "code": "11156-7",
                                    "display": "Leukocyte morphology finding [Identifier] in Blood",
                                    "system": "LN"
                                }
                            ],
                            "text": "Leukocyte morphology finding [Identifier] in Blood"
                        },
                        "valueString": "Reactive morphology in lymphoid cells.",
                        "interpretation": [
                            {
                                "coding": [
                                    {
                                        "code": "A",
                                        "display": "Abnormal",
                                        "system": "http://terminology.hl7.org/CodeSystem/v3-ObservationInterpretation"
                                    }
                                ]
                            }
                        ]
                    }
                ],
                "subject": {
                    "reference": "Patient/eb76f96f-dde1-31cd-8815-7c2546dabe7e"
                }
            },
            "request": {
                "method": "PUT",
                "url": "Observation/78a3465f-94ae-3d10-a38a-86a801a9c8bb"
            }
        },
        {
            "fullUrl": "urn:uuid:334cc077-7671-33a2-b39c-72210a504344",
            "resource": {
                "resourceType": "Observation",
                "id": "334cc077-7671-33a2-b39c-72210a504344",
                "code": {
                    "coding": [
                        {
                            "code": "11125-2",
                            "display": "Platelet morphology finding [Identifier] in Blood",
                            "system": "LN"
                        }
                    ],
                    "text": "Platelet morphology finding [Identifier] in Blood"
                },
                "valueString": "Platelets show defective granulation.",
                "interpretation": [
                    {
                        "coding": [
                            {
                                "code": "A",
                                "display": "Abnormal",
                                "system": "http://terminology.hl7.org/CodeSystem/v3-ObservationInterpretation"
                            }
                        ]
                    }
                ],
                "status": "final",
                "effectiveDateTime": "2011-01-03T22:34:28.000Z",
                "component": [
                    {
                        "code": {
                            "coding": [
                                {
                                    "code": "11125-2",
                                    "display": "Platelet morphology finding [Identifier] in Blood",
                                    "system": "LN"
                                }
                            ],
                            "text": "Platelet morphology finding [Identifier] in Blood"
                        },
                        "valueString": "Platelets show defective granulation.",
                        "interpretation": [
                            {
                                "coding": [
                                    {
                                        "code": "A",
                                        "display": "Abnormal",
                                        "system": "http://terminology.hl7.org/CodeSystem/v3-ObservationInterpretation"
                                    }
                                ]
                            }
                        ]
                    }
                ],
                "subject": {
                    "reference": "Patient/eb76f96f-dde1-31cd-8815-7c2546dabe7e"
                }
            },
            "request": {
                "method": "PUT",
                "url": "Observation/334cc077-7671-33a2-b39c-72210a504344"
            }
        },
        {
            "fullUrl": "urn:uuid:bc39ef4c-9be6-3688-90c1-4d38582f327b",
            "resource": {
                "resourceType": "Specimen",
                "id": "bc39ef4c-9be6-3688-90c1-4d38582f327b",
                "type": {
                    "coding": [
                        {
                            "code": "119297000",
                            "display": "BLD",
                            "system": "SCT"
                        }
                    ],
                    "text": "Blood"
                },
                "collection": {
                    "collectedDateTime": "2011-01-03T22:34:28.000Z"
                }
            },
            "request": {
                "method": "PUT",
                "url": "Specimen/bc39ef4c-9be6-3688-90c1-4d38582f327b"
            }
        }
    ]
}