{
    "resourceType": "Bundle",
    "type": "transaction",
    "entry": [
        {
            "fullUrl": "urn:uuid:0e47b8f3-3dba-3840-9cfd-a928125ac5ba",
            "resource": {
                "resourceType": "Patient",
                "id": "0e47b8f3-3dba-3840-9cfd-a928125ac5ba",
                "identifier": [
                    {
                        "value": "555-44-4444"
                    }
                ],
                "name": [
                    {
                        "family": "EVERYWOMAN",
                        "given": [
                            "EVE",
                            "E"
                        ],
                        "use": "official"
                    }
                ],
                "birthDate": "1962-03-20",
                "gender": "female",
                "address": [
                    {
                        "line": [
                            "153 FERNWOOD DR."
                        ]
                    }
                ]
            },
            "request": {
                "method": "PUT",
                "url": "Patient/0e47b8f3-3dba-3840-9cfd-a928125ac5ba"
            }
        },
        {
            "fullUrl": "urn:uuid:15c8296a-7ee6-35b3-ac8f-656604bb2612",
            "resource": {
                "resourceType": "DiagnosticReport",
                "id": "15c8296a-7ee6-35b3-ac8f-656604bb2612",
                "identifier": [
                    {
                        "type": {
                            "coding": [
                                {
                                    "code": "FILL",
                                    "system": "http://terminology.hl7.org/CodeSystem/v2-0203"
                                }
                            ]
                        }
                    },
                    {
                        "value": "845439"
                    },
                    {
                        "value": "1045813"
                    }
                ],
                "effectiveDateTime": "2002-02-15T07:30:00.000Z",
                "code": {
                    "coding": [
                        {
                            "code": "15545",
                            "display": "GLUCOSE"
                        }
                    ]
                },
                "result": [
                    {
                        "reference": "Observation/4f8b8fe0-a89f-3067-9c11-d64f842262e5"
                    }
                ]
            },
            "request": {
                "method": "PUT",
                "url": "DiagnosticReport/15c8296a-7ee6-35b3-ac8f-656604bb2612"
            }
        },
        {
            "fullUrl": "urn:uuid:4f8b8fe0-a89f-3067-9c11-d64f842262e5",
            "resource": {
                "resourceType": "Observation",
                "id": "4f8b8fe0-a89f-3067-9c11-d64f842262e5",
                "code": {
                    "coding": [
                        {
                            "code": "1554-5",
                            "display": "GLUCOSE",
                            "system": "POST 12H CFST:MCNC:PT:SER/PLAS:QN"
                        }
                    ]
                },
                "valueQuantity": {
                    "code": "mg/dl"
                },
                "valueRange": {
                    "low": {
                        "value": "182"
                    }
                },
                "interpretation": [
                    {
                        "coding": [
                            {
                                "code": "H",
                                "display": "High",
                                "system": "http://terminology.hl7.org/CodeSystem/v3-ObservationInterpretation"
                            }
                        ]
                    }
                ],
                "component": [
                    {
                        "code": {
                            "coding": [
                                {
                                    "code": "1554-5",
                                    "display": "GLUCOSE",
                                    "system": "POST 12H CFST:MCNC:PT:SER/PLAS:QN"
                                }
                            ]
                        },
                        "valueQuantity": {
                            "code": "mg/dl"
                        },
                        "valueRange": {
                            "low": {
                                "value": "182"
                            }
                        },
                        "referenceRange": [
                            {
                                "text": "70_105"
                            }
                        ],
                        "interpretation": [
                            {
                                "coding": [
                                    {
                                        "code": "H",
                                        "display": "High",
                                        "system": "http://terminology.hl7.org/CodeSystem/v3-ObservationInterpretation"
                                    }
                                ]
                            }
                        ]
                    }
                ],
                "subject": {
                    "reference": "Patient/0e47b8f3-3dba-3840-9cfd-a928125ac5ba"
                }
            },
            "request": {
                "method": "PUT",
                "url": "Observation/4f8b8fe0-a89f-3067-9c11-d64f842262e5"
            }
        }
    ]
}