{
    "resourceType": "Bundle",
    "type": "transaction",
    "entry": [
        {
            "fullUrl": "urn:uuid:64bac34e-e611-3549-848b-89416176aa0b",
            "resource": {
                "resourceType": "Patient",
                "id": "64bac34e-e611-3549-848b-89416176aa0b",
                "identifier": [
                    {
                        "value": "10006579",
                        "type": {
                            "coding": [
                                {
                                    "code": "MR",
                                    "system": "http://terminology.hl7.org/CodeSystem/v2-0203"
                                }
                            ]
                        }
                    },
                    {
                        "type": {
                            "coding": [
                                {
                                    "system": "http://terminology.hl7.org/CodeSystem/v2-0203",
                                    "code": "SS"
                                }
                            ]
                        },
                        "system": "http://hl7.org/fhir/sid/us-ssn",
                        "value": "123121234"
                    }
                ],
                "name": [
                    {
                        "family": "DUCK",
                        "given": [
                            "DONALD",
                            "D"
                        ]
                    }
                ],
                "birthDate": "1924-10-10",
                "gender": "male",
                "address": [
                    {
                        "line": [
                            "111 DUCK ST"
                        ],
                        "city": "FOWL",
                        "state": "CA",
                        "postalCode": "999990000",
                        "type": "postal"
                    },
                    {
                        "district": "1"
                    }
                ],
                "telecom": [
                    {
                        "value": "8885551212",
                        "use": "home"
                    },
                    {
                        "value": "8885551212",
                        "use": "work"
                    }
                ],
                "communication": [
                    {
                        "preferred": true
                    }
                ]
            },
            "request": {
                "method": "PUT",
                "url": "Patient/64bac34e-e611-3549-848b-89416176aa0b"
            }
        },
        {
            "fullUrl": "urn:uuid:243d2e3e-1d5f-3b2c-bea9-43234ec7d1d4",
            "resource": {
                "resourceType": "DiagnosticReport",
                "id": "243d2e3e-1d5f-3b2c-bea9-43234ec7d1d4",
                "identifier": [
                    {
                        "type": {
                            "coding": [
                                {
                                    "code": "FILL",
                                    "system": "http://terminology.hl7.org/CodeSystem/v2-0203"
                                }
                            ]
                        }
                    },
                    {
                        "value": "88502218"
                    },
                    {
                        "value": "82503246"
                    }
                ],
                "code": {
                    "coding": [
                        {
                            "code": "24317-0",
                            "display": "Hemogram and platelet count, automated",
                            "system": "LN"
                        }
                    ]
                },
                "status": "final",
                "result": [
                    {
                        "reference": "Observation/9723b15e-a597-30d6-9baa-e6ce8e1d5519"
                    },
                    {
                        "reference": "Observation/c7b3ab4c-6911-3ef0-8ea6-ee055eebad4f"
                    },
                    {
                        "reference": "Observation/574cdd7c-3ac5-3ff8-ade8-0b7c8a34643f"
                    },
                    {
                        "reference": "Observation/975106d3-428b-38f8-9c50-ba843a4f1d97"
                    },
                    {
                        "reference": "Observation/f56d59e9-42c1-3387-9ebf-2b0b52a22e71"
                    }
                ],
                "specimen": [
                    {
                        "reference": "Specimen/355b9fa7-2e56-3f87-8b06-f71afebdc985"
                    }
                ]
            },
            "request": {
                "method": "PUT",
                "url": "DiagnosticReport/243d2e3e-1d5f-3b2c-bea9-43234ec7d1d4"
            }
        },
        {
            "fullUrl": "urn:uuid:9723b15e-a597-30d6-9baa-e6ce8e1d5519",
            "resource": {
                "resourceType": "Observation",
                "id": "9723b15e-a597-30d6-9baa-e6ce8e1d5519",
                "code": {
                    "coding": [
                        {
                            "code": "11156-7",
                            "display": "LEUKOCYTES",
                            "system": "LN"
                        }
                    ]
                },
                "component": [
                    {
                        "code": {
                            "coding": [
                                {
                                    "code": "11156-7",
                                    "display": "LEUKOCYTES",
                                    "system": "LN"
                                }
                            ]
                        }
                    }
                ],
                "subject": {
                    "reference": "Patient/64bac34e-e611-3549-848b-89416176aa0b"
                }
            },
            "request": {
                "method": "PUT",
                "url": "Observation/9723b15e-a597-30d6-9baa-e6ce8e1d5519"
            }
        },
        {
            "fullUrl": "urn:uuid:c7b3ab4c-6911-3ef0-8ea6-ee055eebad4f",
            "resource": {
                "resourceType": "Observation",
                "id": "c7b3ab4c-6911-3ef0-8ea6-ee055eebad4f",
                "code": {
                    "coding": [
                        {
                            "code": "11273-0",
                            "display": "ERYTHROCYTES",
                            "system": "LN"
                        }
                    ]
                },
                "valueQuantity": {
                    "value": "4.06",
                    "code": "tera.l-1"
                },
                "interpretation": [
                    {
                        "coding": [
                            {
                                "code": "N",
                                "display": "Normal",
                                "system": "http://terminology.hl7.org/CodeSystem/v3-ObservationInterpretation"
                            }
                        ]
                    }
                ],
                "status": "preliminary",
                "effectiveDateTime": "2014-10-06T06:27:00.000Z",
                "component": [
                    {
                        "code": {
                            "coding": [
                                {
                                    "code": "11273-0",
                                    "display": "ERYTHROCYTES",
                                    "system": "LN"
                                }
                            ]
                        },
                        "valueQuantity": {
                            "value": "4.06",
                            "code": "tera.l-1"
                        },
                        "interpretation": [
                            {
                                "coding": [
                                    {
                                        "code": "N",
                                        "display": "Normal",
                                        "system": "http://terminology.hl7.org/CodeSystem/v3-ObservationInterpretation"
                                    }
                                ]
                            }
                        ]
                    }
                ],
                "subject": {
                    "reference": "Patient/64bac34e-e611-3549-848b-89416176aa0b"
                }
            },
            "request": {
                "method": "PUT",
                "url": "Observation/c7b3ab4c-6911-3ef0-8ea6-ee055eebad4f"
            }
        },
        {
            "fullUrl": "urn:uuid:574cdd7c-3ac5-3ff8-ade8-0b7c8a34643f",
            "resource": {
                "resourceType": "Observation",
                "id": "574cdd7c-3ac5-3ff8-ade8-0b7c8a34643f",
                "code": {
                    "coding": [
                        {
                            "code": "20509-6",
                            "display": "HEMOGLOBIN",
                            "system": "LN"
                        }
                    ]
                },
                "component": [
                    {
                        "code": {
                            "coding": [
                                {
                                    "code": "20509-6",
                                    "display": "HEMOGLOBIN",
                                    "system": "LN"
                                }
                            ]
                        }
                    }
                ],
                "subject": {
                    "reference": "Patient/64bac34e-e611-3549-848b-89416176aa0b"
                }
            },
            "request": {
                "method": "PUT",
                "url": "Observation/574cdd7c-3ac5-3ff8-ade8-0b7c8a34643f"
            }
        },
        {
            "fullUrl": "urn:uuid:975106d3-428b-38f8-9c50-ba843a4f1d97",
            "resource": {
                "resourceType": "Observation",
                "id": "975106d3-428b-38f8-9c50-ba843a4f1d97",
                "code": {
                    "coding": [
                        {
                            "code": "20570-8",
                            "display": "HEMATOCRIT",
                            "system": "LN"
                        }
                    ]
                },
                "valueQuantity": {
                    "value": "40.1",
                    "code": "%"
                },
                "interpretation": [
                    {
                        "coding": [
                            {
                                "code": "N",
                                "display": "Normal",
                                "system": "http://terminology.hl7.org/CodeSystem/v3-ObservationInterpretation"
                            }
                        ]
                    }
                ],
                "status": "preliminary",
                "effectiveDateTime": "2014-10-06T08:30:00.000Z",
                "component": [
                    {
                        "code": {
                            "coding": [
                                {
                                    "code": "20570-8",
                                    "display": "HEMATOCRIT",
                                    "system": "LN"
                                }
                            ]
                        },
                        "valueQuantity": {
                            "value": "40.1",
                            "code": "%"
                        },
                        "interpretation": [
                            {
                                "coding": [
                                    {
                                        "code": "N",
                                        "display": "Normal",
                                        "system": "http://terminology.hl7.org/CodeSystem/v3-ObservationInterpretation"
                                    }
                                ]
                            }
                        ]
                    }
                ],
                "subject": {
                    "reference": "Patient/64bac34e-e611-3549-848b-89416176aa0b"
                }
            },
            "request": {
                "method": "PUT",
                "url": "Observation/975106d3-428b-38f8-9c50-ba843a4f1d97"
            }
        },
        {
            "fullUrl": "urn:uuid:f56d59e9-42c1-3387-9ebf-2b0b52a22e71",
            "resource": {
                "resourceType": "Observation",
                "id": "f56d59e9-42c1-3387-9ebf-2b0b52a22e71",
                "code": {
                    "coding": [
                        {
                            "code": "11125-2",
                            "display": "PLATELETS",
                            "system": "LN"
                        }
                    ]
                },
                "valueQuantity": {
                    "value": "221",
                    "code": "giga.l-1"
                },
                "interpretation": [
                    {
                        "coding": [
                            {
                                "code": "N",
                                "display": "Normal",
                                "system": "http://terminology.hl7.org/CodeSystem/v3-ObservationInterpretation"
                            }
                        ]
                    }
                ],
                "status": "final",
                "effectiveDateTime": "2014-10-06T08:30:00.000Z",
                "component": [
                    {
                        "code": {
                            "coding": [
                                {
                                    "code": "11125-2",
                                    "display": "PLATELETS",
                                    "system": "LN"
                                }
                            ]
                        },
                        "valueQuantity": {
                            "value": "221",
                            "code": "giga.l-1"
                        },
                        "interpretation": [
                            {
                                "coding": [
                                    {
                                        "code": "N",
                                        "display": "Normal",
                                        "system": "http://terminology.hl7.org/CodeSystem/v3-ObservationInterpretation"
                                    }
                                ]
                            }
                        ]
                    }
                ],
                "subject": {
                    "reference": "Patient/64bac34e-e611-3549-848b-89416176aa0b"
                }
            },
            "request": {
                "method": "PUT",
                "url": "Observation/f56d59e9-42c1-3387-9ebf-2b0b52a22e71"
            }
        },
        {
            "fullUrl": "urn:uuid:355b9fa7-2e56-3f87-8b06-f71afebdc985",
            "resource": {
                "resourceType": "Specimen",
                "id": "355b9fa7-2e56-3f87-8b06-f71afebdc985",
                "receivedTime": "2014-10-06T08:21:00.000Z",
                "identifier": [
                    {
                        "value": "SpecimenID",
                        "type": {
                            "coding": [
                                {
                                    "code": "PLAC",
                                    "system": "http://terminology.hl7.org/CodeSystem/v2-0203"
                                }
                            ]
                        }
                    }
                ],
                "type": {
                    "coding": [
                        {
                            "code": "BLD"
                        }
                    ]
                },
                "collection": {
                    "collectedDateTime": "2014-10-06T05:35:00.000Z"
                },
                "status": "available"
            },
            "request": {
                "method": "PUT",
                "url": "Specimen/355b9fa7-2e56-3f87-8b06-f71afebdc985"
            }
        },
        {
            "fullUrl": "urn:uuid:2b7ef4d5-cc9f-3f2c-b6c6-cbe6cdf69443",
            "resource": {
                "resourceType": "DiagnosticReport",
                "id": "2b7ef4d5-cc9f-3f2c-b6c6-cbe6cdf69443",
                "identifier": [
                    {
                        "type": {
                            "coding": [
                                {
                                    "code": "FILL",
                                    "system": "http://terminology.hl7.org/CodeSystem/v2-0203"
                                }
                            ]
                        }
                    },
                    {
                        "value": "855238581"
                    },
                    {
                        "value": "890775544"
                    }
                ],
                "code": {
                    "coding": [
                        {
                            "code": "26464-8",
                            "display": "Differential WBC Count, buffy coat",
                            "system": "LN"
                        }
                    ]
                },
                "result": [
                    {
                        "reference": "Observation/feb332cb-4409-3bfc-984c-56afca70513c"
                    },
                    {
                        "reference": "Observation/b081d94c-7f72-3982-ad75-789f8b752b5e"
                    },
                    {
                        "reference": "Observation/bc547cb4-7431-3226-ba74-bb8a877ba191"
                    },
                    {
                        "reference": "Observation/b866737c-e09f-304f-bddf-4328ff7beb1b"
                    },
                    {
                        "reference": "Observation/240d08b4-92c4-3322-b697-3f32c95ee7fd"
                    }
                ],
                "specimen": [
                    {
                        "reference": "Specimen/355b9fa7-2e56-3f87-8b06-f71afebdc985"
                    }
                ]
            },
            "request": {
                "method": "PUT",
                "url": "DiagnosticReport/2b7ef4d5-cc9f-3f2c-b6c6-cbe6cdf69443"
            }
        },
        {
            "fullUrl": "urn:uuid:feb332cb-4409-3bfc-984c-56afca70513c",
            "resource": {
                "resourceType": "Observation",
                "id": "feb332cb-4409-3bfc-984c-56afca70513c",
                "code": {
                    "coding": [
                        {
                            "code": "23761-0",
                            "display": "NEUTROPHILS/100 LEUKOCYTES",
                            "system": "LN"
                        }
                    ]
                },
                "valueQuantity": {
                    "value": "72",
                    "code": "%"
                },
                "interpretation": [
                    {
                        "coding": [
                            {
                                "code": "N",
                                "display": "Normal",
                                "system": "http://terminology.hl7.org/CodeSystem/v3-ObservationInterpretation"
                            }
                        ]
                    }
                ],
                "status": "preliminary",
                "effectiveDateTime": "2014-10-06T06:27:00.000Z",
                "component": [
                    {
                        "code": {
                            "coding": [
                                {
                                    "code": "23761-0",
                                    "display": "NEUTROPHILS/100 LEUKOCYTES",
                                    "system": "LN"
                                }
                            ]
                        },
                        "valueQuantity": {
                            "value": "72",
                            "code": "%"
                        },
                        "interpretation": [
                            {
                                "coding": [
                                    {
                                        "code": "N",
                                        "display": "Normal",
                                        "system": "http://terminology.hl7.org/CodeSystem/v3-ObservationInterpretation"
                                    }
                                ]
                            }
                        ]
                    }
                ],
                "subject": {
                    "reference": "Patient/64bac34e-e611-3549-848b-89416176aa0b"
                }
            },
            "request": {
                "method": "PUT",
                "url": "Observation/feb332cb-4409-3bfc-984c-56afca70513c"
            }
        },
        {
            "fullUrl": "urn:uuid:b081d94c-7f72-3982-ad75-789f8b752b5e",
            "resource": {
                "resourceType": "Observation",
                "id": "b081d94c-7f72-3982-ad75-789f8b752b5e",
                "code": {
                    "coding": [
                        {
                            "code": "26450-7",
                            "display": "EOSINOPHILS/100 LEUKOCYTES",
                            "system": "LN"
                        }
                    ]
                },
                "valueQuantity": {
                    "value": "2",
                    "code": "%"
                },
                "interpretation": [
                    {
                        "coding": [
                            {
                                "code": "N",
                                "display": "Normal",
                                "system": "http://terminology.hl7.org/CodeSystem/v3-ObservationInterpretation"
                            }
                        ]
                    }
                ],
                "status": "preliminary",
                "effectiveDateTime": "2014-10-06T06:27:00.000Z",
                "component": [
                    {
                        "code": {
                            "coding": [
                                {
                                    "code": "26450-7",
                                    "display": "EOSINOPHILS/100 LEUKOCYTES",
                                    "system": "LN"
                                }
                            ]
                        },
                        "valueQuantity": {
                            "value": "2",
                            "code": "%"
                        },
                        "interpretation": [
                            {
                                "coding": [
                                    {
                                        "code": "N",
                                        "display": "Normal",
                                        "system": "http://terminology.hl7.org/CodeSystem/v3-ObservationInterpretation"
                                    }
                                ]
                            }
                        ]
                    }
                ],
                "subject": {
                    "reference": "Patient/64bac34e-e611-3549-848b-89416176aa0b"
                }
            },
            "request": {
                "method": "PUT",
                "url": "Observation/b081d94c-7f72-3982-ad75-789f8b752b5e"
            }
        },
        {
            "fullUrl": "urn:uuid:bc547cb4-7431-3226-ba74-bb8a877ba191",
            "resource": {
                "resourceType": "Observation",
                "id": "bc547cb4-7431-3226-ba74-bb8a877ba191",
                "code": {
                    "coding": [
                        {
                            "code": "26478-8",
                            "display": "LYMPHOCYTES/100 LEUKOCYTES",
                            "system": "LN"
                        }
                    ]
                },
                "valueQuantity": {
                    "value": "20",
                    "code": "%"
                },
                "interpretation": [
                    {
                        "coding": [
                            {
                                "code": "N",
                                "display": "Normal",
                                "system": "http://terminology.hl7.org/CodeSystem/v3-ObservationInterpretation"
                            }
                        ]
                    }
                ],
                "status": "preliminary",
                "effectiveDateTime": "2014-10-06T06:27:00.000Z",
                "component": [
                    {
                        "code": {
                            "coding": [
                                {
                                    "code": "26478-8",
                                    "display": "LYMPHOCYTES/100 LEUKOCYTES",
                                    "system": "LN"
                                }
                            ]
                        },
                        "valueQuantity": {
                            "value": "20",
                            "code": "%"
                        },
                        "interpretation": [
                            {
                                "coding": [
                                    {
                                        "code": "N",
                                        "display": "Normal",
                                        "system": "http://terminology.hl7.org/CodeSystem/v3-ObservationInterpretation"
                                    }
                                ]
                            }
                        ]
                    }
                ],
                "subject": {
                    "reference": "Patient/64bac34e-e611-3549-848b-89416176aa0b"
                }
            },
            "request": {
                "method": "PUT",
                "url": "Observation/bc547cb4-7431-3226-ba74-bb8a877ba191"
            }
        },
        {
            "fullUrl": "urn:uuid:b866737c-e09f-304f-bddf-4328ff7beb1b",
            "resource": {
                "resourceType": "Observation",
                "id": "b866737c-e09f-304f-bddf-4328ff7beb1b",
                "code": {
                    "coding": [
                        {
                            "code": "26485-3",
                            "display": "MONOCYTES/100 LEUKOCYTES",
                            "system": "LN"
                        }
                    ]
                },
                "valueQuantity": {
                    "value": "6",
                    "code": "%"
                },
                "interpretation": [
                    {
                        "coding": [
                            {
                                "code": "N",
                                "display": "Normal",
                                "system": "http://terminology.hl7.org/CodeSystem/v3-ObservationInterpretation"
                            }
                        ]
                    }
                ],
                "status": "preliminary",
                "effectiveDateTime": "2014-10-06T06:27:00.000Z",
                "component": [
                    {
                        "code": {
                            "coding": [
                                {
                                    "code": "26485-3",
                                    "display": "MONOCYTES/100 LEUKOCYTES",
                                    "system": "LN"
                                }
                            ]
                        },
                        "valueQuantity": {
                            "value": "6",
                            "code": "%"
                        },
                        "interpretation": [
                            {
                                "coding": [
                                    {
                                        "code": "N",
                                        "display": "Normal",
                                        "system": "http://terminology.hl7.org/CodeSystem/v3-ObservationInterpretation"
                                    }
                                ]
                            }
                        ]
                    }
                ],
                "subject": {
                    "reference": "Patient/64bac34e-e611-3549-848b-89416176aa0b"
                }
            },
            "request": {
                "method": "PUT",
                "url": "Observation/b866737c-e09f-304f-bddf-4328ff7beb1b"
            }
        },
        {
            "fullUrl": "urn:uuid:240d08b4-92c4-3322-b697-3f32c95ee7fd",
            "resource": {
                "resourceType": "Observation",
                "id": "240d08b4-92c4-3322-b697-3f32c95ee7fd",
                "code": {
                    "coding": [
                        {
                            "code": "30180-4",
                            "display": "BASOPHILS/100 LEUKOCYTES",
                            "system": "LN"
                        }
                    ]
                },
                "valueQuantity": {
                    "value": "0",
                    "code": "%"
                },
                "interpretation": [
                    {
                        "coding": [
                            {
                                "code": "N",
                                "display": "Normal",
                                "system": "http://terminology.hl7.org/CodeSystem/v3-ObservationInterpretation"
                            }
                        ]
                    }
                ],
                "status": "preliminary",
                "effectiveDateTime": "2014-10-06T06:27:00.000Z",
                "component": [
                    {
                        "code": {
                            "coding": [
                                {
                                    "code": "30180-4",
                                    "display": "BASOPHILS/100 LEUKOCYTES",
                                    "system": "LN"
                                }
                            ]
                        },
                        "valueQuantity": {
                            "value": "0",
                            "code": "%"
                        },
                        "interpretation": [
                            {
                                "coding": [
                                    {
                                        "code": "N",
                                        "display": "Normal",
                                        "system": "http://terminology.hl7.org/CodeSystem/v3-ObservationInterpretation"
                                    }
                                ]
                            }
                        ]
                    }
                ],
                "subject": {
                    "reference": "Patient/64bac34e-e611-3549-848b-89416176aa0b"
                }
            },
            "request": {
                "method": "PUT",
                "url": "Observation/240d08b4-92c4-3322-b697-3f32c95ee7fd"
            }
        }
    ]
}