{
  "result": {
    "resourceType": "Bundle",
    "type": "batch",
    "timestamp": "2020-05-08T13:10:15Z",
    "identifier": {
      "value": "517"
    },
    "id": "7dcb7d92-7a75-3d65-42f9-0f790afac4db",
    "entry": [
      {
        "fullUrl": "urn:uuid:aa521dd9-b613-0210-a661-82ce17e38fb3",
        "resource": {
          "resourceType": "MessageHeader",
          "id": "aa521dd9-b613-0210-a661-82ce17e38fb3",
          "source": {
            "name": "SIMHOSP",
            "_endpoint": {
              "extension": [
                {
                  "url": "http://hl7.org/fhir/StructureDefinition/data-absent-reason",
                  "valueCode": "unknown"
                }
              ]
            }
          },
          "destination": [
            {
              "name": "RAPP",
              "_endpoint": {
                "extension": [
                  {
                    "url": "http://hl7.org/fhir/StructureDefinition/data-absent-reason",
                    "valueCode": "unknown"
                  }
                ]
              },
              "receiver": {
                "reference": "Organization/ab0676d9-fa24-ffd3-327d-f5b4c26ae628"
              }
            }
          ],
          "meta": {
            "tag": [
              {
                "code": "T",
                "system": "http://terminology.hl7.org/CodeSystem/v2-0103"
              }
            ]
          },
          "eventCoding": {
            "code": "A01",
            "system": "http://terminology.hl7.org/CodeSystem/v2-0003",
            "display": "ADT^A01"
          },
          "sender": {
            "reference": "Organization/33e23f3e-47b2-9c1b-c1f0-f964c2d28946"
          }
        },
        "request": {
          "method": "PUT",
          "url": "MessageHeader/aa521dd9-b613-0210-a661-82ce17e38fb3"
        }
      },
      {
        "fullUrl": "urn:uuid:428efe87-9b32-2610-d2d2-0edfdc356ebe",
        "resource": {
          "resourceType": "Provenance",
          "id": "428efe87-9b32-2610-d2d2-0edfdc356ebe",
          "occurredDateTime": "2020-05-08T13:10:15Z",
          "recorded": "2020-05-08T13:10:15Z",
          "agent": [
            {
              "type": {
                "coding": [
                  {
                    "code": "author",
                    "system": "http://terminology.hl7.org/CodeSystem/provenance-participant-type"
                  }
                ]
              },
              "who": {
                "reference": "Organization/33e23f3e-47b2-9c1b-c1f0-f964c2d28946"
              }
            }
          ],
          "activity": {
            "coding": [
              {
                "display": "ADT^A01^"
              }
            ]
          },
          "target": [
            {
              "reference": "Bundle/7dcb7d92-7a75-3d65-42f9-0f790afac4db"
            }
          ]
        },
        "request": {
          "method": "PUT",
          "url": "Provenance/428efe87-9b32-2610-d2d2-0edfdc356ebe"
        }
      },
      {
        "fullUrl": "urn:uuid:33e23f3e-47b2-9c1b-c1f0-f964c2d28946",
        "resource": {
          "resourceType": "Organization",
          "id": "33e23f3e-47b2-9c1b-c1f0-f964c2d28946",
          "identifier": [
            {
              "value": "SFAC",
              "system": "http://example.com/v2-to-fhir-converter/Identifier/SFAC"
            }
          ],
          "address": [
            {
              "country": "44"
            }
          ]
        },
        "request": {
          "method": "PUT",
          "url": "Organization/33e23f3e-47b2-9c1b-c1f0-f964c2d28946"
        }
      },
      {
        "fullUrl": "urn:uuid:ab0676d9-fa24-ffd3-327d-f5b4c26ae628",
        "resource": {
          "resourceType": "Organization",
          "id": "ab0676d9-fa24-ffd3-327d-f5b4c26ae628",
          "identifier": [
            {
              "value": "RFAC",
              "system": "http://example.com/v2-to-fhir-converter/Identifier/RFAC"
            }
          ],
          "address": [
            {
              "country": "44"
            }
          ]
        },
        "request": {
          "method": "PUT",
          "url": "Organization/ab0676d9-fa24-ffd3-327d-f5b4c26ae628"
        }
      },
      {
        "fullUrl": "urn:uuid:9d697ec3-48c3-3e17-db6a-29a1765e22c6",
        "resource": {
          "resourceType": "Patient",
          "id": "9d697ec3-48c3-3e17-db6a-29a1765e22c6",
          "identifier": [
            {
              "value": "3735064194",
              "type": {
                "coding": [
                  {
                    "code": "MRN",
                    "display": "MRN"
                  }
                ]
              },
              "system": "http://example.com/v2-to-fhir-converter/Identifier/SIMULATOR-MRN"
            },
            {
              "value": "3735064194",
              "type": {
                "coding": [
                  {
                    "code": "MRN",
                    "display": "MRN"
                  }
                ]
              },
              "system": "http://example.com/v2-to-fhir-converter/Identifier/SIMULATOR-MRN"
            },
            {
              "value": "2021051528",
              "type": {
                "coding": [
                  {
                    "code": "NHSNMBR",
                    "display": "NHSNMBR"
                  }
                ]
              },
              "system": "http://example.com/v2-to-fhir-converter/Identifier/NHSNBR"
            }
          ]
        },
        "request": {
          "method": "PUT",
          "url": "Patient/9d697ec3-48c3-3e17-db6a-29a1765e22c6"
        }
      },
      {
        "fullUrl": "urn:uuid:4f1394cd-4fdc-2671-f985-0ef923c48c5c",
        "resource": {
          "resourceType": "Provenance",
          "id": "4f1394cd-4fdc-2671-f985-0ef923c48c5c",
          "recorded": "2020-05-08T13:10:15Z",
          "agent": [
            {
              "who": {
                "reference": "Practitioner/07cb183d-bae8-cbc9-56cc-764ecfa02850"
              }
            }
          ],
          "activity": {
            "text": "ADT^A01"
          },
          "target": [
            {
              "reference": "Bundle/7dcb7d92-7a75-3d65-42f9-0f790afac4db"
            }
          ]
        },
        "request": {
          "method": "PUT",
          "url": "Provenance/4f1394cd-4fdc-2671-f985-0ef923c48c5c"
        }
      },
      {
        "fullUrl": "urn:uuid:07cb183d-bae8-cbc9-56cc-764ecfa02850",
        "resource": {
          "resourceType": "Practitioner",
          "id": "07cb183d-bae8-cbc9-56cc-764ecfa02850",
          "identifier": [
            {
              "value": "C005",
              "system": "http://example.com/v2-to-fhir-converter/Identifier/DRNBR",
              "type": {
                "coding": [
                  {
                    "code": "ORGDR",
                    "display": "ORGDR"
                  }
                ]
              }
            }
          ],
          "name": [
            {
              "family": "Whittingham",
              "given": [
                "Sylvia"
              ],
              "prefix": [
                "Dr"
              ],
              "use": "PRSNL"
            }
          ]
        },
        "request": {
          "method": "PUT",
          "url": "Practitioner/07cb183d-bae8-cbc9-56cc-764ecfa02850"
        }
      }
    ]
  }
}
