{
    "resourceType": "Bundle",
    "type": "batch",
    "timestamp": "1989-08-18T14:41:00+05:30",
    "identifier": {
        "value": "MSG00001"
    },
    "id": "513a3d06-5e87-6fbc-ad1b-170ab430499f",
    "entry": [
        {
            "fullUrl": "urn:uuid:b4ca189b-51ae-33df-cbe2-559b4423a321",
            "resource": {
                "resourceType": "MessageHeader",
                "id": "b4ca189b-51ae-33df-cbe2-559b4423a321",
                "source": {
                    "name": "24GHH",
                    "endpoint": "urn:oid:2.16.840.1.114884.10.20",
                    "version": "2.4.3.52854",
                    "software": "Rhapsody"
                },
                "destination": [
                    {
                        "name": "25GHH",
                        "endpoint": "urn:oid:2.16.840.1.114884.10.23",
                        "receiver": {
                            "reference": "Organization/527280c1-34d1-c639-e9ba-61986d28e266"
                        }
                    }
                ],
                "meta": {
                    "security": [
                        {
                            "display": "SECURITY"
                        }
                    ],
                    "tag": [
                        {
                            "code": "P",
                            "system": "http://terminology.hl7.org/CodeSystem/v2-0103"
                        }
                    ]
                },
                "eventCoding": {
                    "code": "P02",
                    "system": "http://terminology.hl7.org/CodeSystem/v2-0003",
                    "display": "BAR^P02^BAR_P02"
                },
                "language": "en-US",
                "sender": {
                    "reference": "Organization/4356fb81-6ecd-2d70-57b1-47812638e785"
                },
                "responsible": {
                    "reference": "Organization/33532a82-d220-4c0d-1abe-53e48951c201"
                }
            },
            "request": {
                "method": "PUT",
                "url": "MessageHeader/b4ca189b-51ae-33df-cbe2-559b4423a321"
            }
        },
        {
            "fullUrl": "urn:uuid:0a7545d7-202f-96e5-31e9-bb7d27ade3c2",
            "resource": {
                "resourceType": "Provenance",
                "id": "0a7545d7-202f-96e5-31e9-bb7d27ade3c2",
                "text": {
                    "status": "generated",
                    "div": "<div xmlns=\"http://www.w3.org/1999/xhtml\"><p><span>Resource bundle generated on 2022-03-23T10:23:26.781Z using Microsoft FHIR Converter.</span><span>Template Version: TEMPLATE_VERSION_PLACEHOLDER.</span><span>Template URL: https://github.com/microsoft/FHIR-Converter/releases/download/vTEMPLATE_VERSION_PLACEHOLDER/Hl7v2DefaultTemplates.tar.gz.</span><span>Root template: BAR_P02.</span></p></div>"
                },
                "occurredDateTime": "1989-08-18T14:41:00+05:30",
                "recorded": "1989-08-18T14:41:00+05:30",
                "agent": [
                    {
                        "type": {
                            "coding": [
                                {
                                    "code": "author",
                                    "system": "http://terminology.hl7.org/CodeSystem/provenance-participant-type"
                                }
                            ]
                        },
                        "who": {
                            "reference": "Organization/33532a82-d220-4c0d-1abe-53e48951c201"
                        }
                    }
                ],
                "activity": {
                    "coding": [
                        {
                            "display": "BAR^P02^BAR_P02"
                        }
                    ]
                },
                "entity": [
                    {
                        "role": "source",
                        "what": {
                            "reference": "Device/503eb873-22fb-8199-ae28-3604ad59fe13"
                        }
                    }
                ],
                "target": [
                    {
                        "reference": "Bundle/513a3d06-5e87-6fbc-ad1b-170ab430499f"
                    }
                ]
            },
            "request": {
                "method": "PUT",
                "url": "Provenance/0a7545d7-202f-96e5-31e9-bb7d27ade3c2"
            }
        },
        {
            "fullUrl": "urn:uuid:4356fb81-6ecd-2d70-57b1-47812638e785",
            "resource": {
                "resourceType": "Organization",
                "id": "4356fb81-6ecd-2d70-57b1-47812638e785",
                "identifier": [
                    {
                        "value": "GHHSFacility",
                        "system": "http://example.com/v2-to-fhir-converter/Identifier/GHHSFacility"
                    },
                    {
                        "value": "urn:oid:2.16.840.1.122848.1.30",
                        "system": "urn:ietf:rfc:3986",
                        "type": {
                            "coding": [
                                {
                                    "code": "ISO",
                                    "display": "An International Standards Organization Object Identifier (OID), in accordance with ISO/IEC 8824. Formatted as decimal digits separated by periods; recommended limit of 64 characters",
                                    "system": "http://terminology.hl7.org/CodeSystem/v2-0301"
                                }
                            ]
                        }
                    }
                ],
                "partOf": {
                    "reference": "Organization/33532a82-d220-4c0d-1abe-53e48951c201"
                },
                "address": [
                    {
                        "country": "USA"
                    }
                ]
            },
            "request": {
                "method": "PUT",
                "url": "Organization/4356fb81-6ecd-2d70-57b1-47812638e785"
            }
        },
        {
            "fullUrl": "urn:uuid:62781ad6-3896-cb63-0178-ead0c4a432b5",
            "resource": {
                "resourceType": "Organization",
                "id": "62781ad6-3896-cb63-0178-ead0c4a432b5",
                "identifier": [
                    {
                        "value": "GHHRFacility",
                        "system": "http://example.com/v2-to-fhir-converter/Identifier/GHHRFacility"
                    },
                    {
                        "value": "urn:oid:2.16.840.1.1122848.1.32",
                        "system": "urn:ietf:rfc:3986",
                        "type": {
                            "coding": [
                                {
                                    "code": "ISO",
                                    "display": "An International Standards Organization Object Identifier (OID), in accordance with ISO/IEC 8824. Formatted as decimal digits separated by periods; recommended limit of 64 characters",
                                    "system": "http://terminology.hl7.org/CodeSystem/v2-0301"
                                }
                            ]
                        }
                    }
                ],
                "partOf": {
                    "reference": "Organization/527280c1-34d1-c639-e9ba-61986d28e266"
                },
                "address": [
                    {
                        "country": "USA"
                    }
                ]
            },
            "request": {
                "method": "PUT",
                "url": "Organization/62781ad6-3896-cb63-0178-ead0c4a432b5"
            }
        },
        {
            "fullUrl": "urn:uuid:33532a82-d220-4c0d-1abe-53e48951c201",
            "resource": {
                "resourceType": "Organization",
                "id": "33532a82-d220-4c0d-1abe-53e48951c201",
                "name": "22 GHH Inc."
            },
            "request": {
                "method": "PUT",
                "url": "Organization/33532a82-d220-4c0d-1abe-53e48951c201"
            }
        },
        {
            "fullUrl": "urn:uuid:527280c1-34d1-c639-e9ba-61986d28e266",
            "resource": {
                "resourceType": "Organization",
                "id": "527280c1-34d1-c639-e9ba-61986d28e266",
                "name": "23 GHH Inc."
            },
            "request": {
                "method": "PUT",
                "url": "Organization/527280c1-34d1-c639-e9ba-61986d28e266"
            }
        },
        {
            "fullUrl": "urn:uuid:503eb873-22fb-8199-ae28-3604ad59fe13",
            "resource": {
                "resourceType": "Device",
                "id": "503eb873-22fb-8199-ae28-3604ad59fe13",
                "identifier": [
                    {
                        "value": "ADTApp"
                    }
                ]
            },
            "request": {
                "method": "PUT",
                "url": "Device/503eb873-22fb-8199-ae28-3604ad59fe13"
            }
        },
        {
            "fullUrl": "urn:uuid:4b549918-a84d-cdaf-e150-c773a5d306e5",
            "resource": {
                "resourceType": "Device",
                "id": "4b549918-a84d-cdaf-e150-c773a5d306e5",
                "manufacturer": "Orion",
                "deviceName": [
                    {
                        "name": "Rhapsody",
                        "type": "manufacturer-name"
                    }
                ],
                "version": [
                    {
                        "value": "2.4.3.52854"
                    }
                ],
                "modelNumber": "2.4.3",
                "note": [
                    {
                        "text": "Testactivity"
                    }
                ]
            },
            "request": {
                "method": "PUT",
                "url": "Device/4b549918-a84d-cdaf-e150-c773a5d306e5"
            }
        },
        {
            "fullUrl": "urn:uuid:0d294d4d-3c8c-be35-4813-e61ba6e34968",
            "resource": {
                "resourceType": "Provenance",
                "id": "0d294d4d-3c8c-be35-4813-e61ba6e34968",
                "occurredDateTime": "2021-08-17T18:49:43.4+05:30",
                "recorded": "2029-08-01T11:21:24+05:30",
                "reason": [
                    {
                        "coding": [
                            {
                                "code": "PATRQT",
                                "display": "patient requested",
                                "system": "http://terminology.hl7.org/CodeSystem/v3-ActReason"
                            }
                        ]
                    }
                ],
                "agent": [
                    {
                        "who": {
                            "reference": "Practitioner/96931008-2247-6199-b3c0-0ee12e528d72"
                        }
                    }
                ],
                "activity": {
                    "text": "BAR^P02^BAR_P02"
                },
                "location": {
                    "reference": "Location/59d5e519-0108-5dd8-adfa-1eef5658009e"
                },
                "target": [
                    {
                        "reference": "Bundle/513a3d06-5e87-6fbc-ad1b-170ab430499f"
                    }
                ]
            },
            "request": {
                "method": "PUT",
                "url": "Provenance/0d294d4d-3c8c-be35-4813-e61ba6e34968"
            }
        },
        {
            "fullUrl": "urn:uuid:3cd92576-75fd-2465-a15f-b469be921588",
            "resource": {
                "resourceType": "Organization",
                "id": "3cd92576-75fd-2465-a15f-b469be921588",
                "identifier": [
                    {
                        "value": "DRNBR",
                        "system": "http://example.com/v2-to-fhir-converter/Identifier/DRNBR"
                    },
                    {
                        "value": "urn:oid:1.3.6.1.4.1.44750.1.2.2",
                        "system": "urn:ietf:rfc:3986",
                        "type": {
                            "coding": [
                                {
                                    "code": "ISO",
                                    "display": "An International Standards Organization Object Identifier (OID), in accordance with ISO/IEC 8824. Formatted as decimal digits separated by periods; recommended limit of 64 characters",
                                    "system": "http://terminology.hl7.org/CodeSystem/v2-0301"
                                }
                            ]
                        }
                    }
                ]
            },
            "request": {
                "method": "PUT",
                "url": "Organization/3cd92576-75fd-2465-a15f-b469be921588"
            }
        },
        {
            "fullUrl": "urn:uuid:96931008-2247-6199-b3c0-0ee12e528d72",
            "resource": {
                "resourceType": "Practitioner",
                "id": "96931008-2247-6199-b3c0-0ee12e528d72",
                "identifier": [
                    {
                        "value": "C08",
                        "system": "urn:oid:1.3.6.1.4.1.44750.1.2.2",
                        "assigner": {
                            "reference": "Organization/3cd92576-75fd-2465-a15f-b469be921588"
                        },
                        "type": {
                            "coding": [
                                {
                                    "code": "ANON",
                                    "display": "Anonymous identifier",
                                    "system": "http://terminology.hl7.org/CodeSystem/v2-0203"
                                }
                            ]
                        }
                    }
                ],
                "name": [
                    {
                        "family": "Woolfson",
                        "given": [
                            "Kathleen",
                            "2ndname"
                        ],
                        "suffix": [
                            "Jr",
                            "MD"
                        ],
                        "prefix": [
                            "Dr"
                        ],
                        "use": "official"
                    }
                ]
            },
            "request": {
                "method": "PUT",
                "url": "Practitioner/96931008-2247-6199-b3c0-0ee12e528d72"
            }
        },
        {
            "fullUrl": "urn:uuid:59d5e519-0108-5dd8-adfa-1eef5658009e",
            "resource": {
                "resourceType": "Location",
                "id": "59d5e519-0108-5dd8-adfa-1eef5658009e",
                "name": "Cona_Health",
                "identifier": [
                    {
                        "value": "urn:oid:1.3.6.1.4.1.44750.1.4",
                        "system": "urn:ietf:rfc:3986"
                    }
                ],
                "physicalType": {
                    "coding": [
                        {
                            "code": "si",
                            "display": "site",
                            "system": "http://terminology.hl7.org/CodeSystem/location-physical-type"
                        }
                    ]
                }
            },
            "request": {
                "method": "PUT",
                "url": "Location/59d5e519-0108-5dd8-adfa-1eef5658009e"
            }
        },
        {
            "fullUrl": "urn:uuid:9e909e52-61a1-be50-1878-a12ef8c36346",
            "resource": {
                "resourceType": "Patient",
                "id": "9e909e52-61a1-be50-1878-a12ef8c36346",
                "identifier": [
                    {
                        "value": "PATID1234",
                        "type": {
                            "coding": [
                                {
                                    "code": "MR",
                                    "system": "http://terminology.hl7.org/CodeSystem/v2-0203",
                                    "display": "Medical record number"
                                }
                            ]
                        },
                        "system": "http://example.com/v2-to-fhir-converter/Identifier/HCD",
                        "assigner": {
                            "reference": "Organization/b3ad3a9f-d4f6-4638-0a09-2da771733488"
                        }
                    },
                    {
                        "value": "123456789",
                        "type": {
                            "coding": [
                                {
                                    "code": "SS",
                                    "system": "http://terminology.hl7.org/CodeSystem/v2-0203",
                                    "display": "Social Security number"
                                }
                            ]
                        },
                        "system": "http://example.com/v2-to-fhir-converter/Identifier/USSSA"
                    },
                    {
                        "value": "PSSN123121234",
                        "type": {
                            "coding": [
                                {
                                    "code": "SB",
                                    "system": "http://terminology.hl7.org/CodeSystem/v2-0203"
                                }
                            ]
                        },
                        "system": "http://hl7.org/fhir/sid/us-ssn"
                    },
                    {
                        "value": "DB123",
                        "type": {
                            "coding": [
                                {
                                    "code": "MR",
                                    "system": "http://terminology.hl7.org/CodeSystem/v2-0203",
                                    "display": "Medical record number"
                                }
                            ]
                        },
                        "system": "urn:oid:1.3.6.1.4.1.44750.1.2.2",
                        "assigner": {
                            "reference": "Organization/56b76cc9-d7d8-1923-0350-6b4e1a73ed2a"
                        },
                        "period": {
                            "start": "1924-10-11",
                            "end": "1924-10-12"
                        }
                    }
                ],
                "name": [
                    {
                        "family": "EVERYMAN",
                        "given": [
                            "ADAM",
                            "A",
                            "Addsm"
                        ],
                        "suffix": [
                            "III",
                            "MD",
                            "PF"
                        ],
                        "prefix": [
                            "Dr."
                        ],
                        "use": "usual",
                        "period": {
                            "start": "1924-10-12"
                        }
                    },
                    {
                        "family": "Josh",
                        "given": [
                            "stanley"
                        ],
                        "use": "official",
                        "period": {
                            "start": "1924-10-10",
                            "end": "1924-10-15"
                        }
                    }
                ],
                "birthDate": "1988-08-18",
                "_birthDate": {
                    "extension": [
                        {
                            "url": "http://hl7.org/fhir/StructureDefinition/patient-birthTime",
                            "valueDateTime": "1988-08-18T14:41:00+05:30"
                        }
                    ]
                },
                "gender": "male",
                "address": [
                    {
                        "line": [
                            "1000",
                            "Hospital Lane",
                            "Ste. 123"
                        ],
                        "city": "Ann Arbor ",
                        "state": "MI",
                        "postalCode": "99999",
                        "country": "USA",
                        "type": "postal",
                        "district": "W"
                    }
                ],
                "telecom": [
                    {
                        "value": "2222",
                        "system": "phone",
                        "period": {
                            "start": "2001-01-10",
                            "end": "2002-01-10"
                        },
                        "rank": 18,
                        "use": "home"
                    },
                    {
                        "value": "12121212",
                        "system": "phone",
                        "use": "home"
                    },
                    {
                        "value": "7777",
                        "system": "phone",
                        "use": "work"
                    },
                    {
                        "value": "1111",
                        "system": "other",
                        "use": "work"
                    },
                    {
                        "value": "89898989",
                        "use": "work",
                        "system": "email"
                    }
                ],
                "communication": [
                    {
                        "language": {
                            "coding": [
                                {
                                    "code": "ar",
                                    "display": "Arabic",
                                    "system": "urn:ietf:bcp:47",
                                    "version": "v2"
                                },
                                {
                                    "code": "en",
                                    "display": "English",
                                    "system": "urn:ietf:bcp:47",
                                    "version": "v2.1"
                                }
                            ],
                            "text": "TextInEnglish"
                        },
                        "preferred": true
                    }
                ],
                "maritalStatus": {
                    "coding": [
                        {
                            "code": "M",
                            "display": "Married",
                            "system": "http://terminology.hl7.org/CodeSystem/v3-MaritalStatus"
                        }
                    ]
                },
                "multipleBirthInteger": 2,
                "deceasedDateTime": "2008-08-25T15:31:30+05:30",
                "meta": {
                    "lastUpdated": "2005-01-10T04:05:14+05:30"
                },
                "generalPractitioner": [
                    {
                        "reference": "Organization/719266ca-c272-9569-a797-c0b3fe3b2c91"
                    }
                ],
                "extension": [
                    {
                        "url": "http://hl7.org/fhir/us/core/StructureDefinition/us-core-race",
                        "extension": [
                            {
                                "url": "ombCategory",
                                "valueCoding": {
                                    "code": "2106-3",
                                    "display": "White",
                                    "system": "urn:oid:2.16.840.1.113883.6.238"
                                }
                            },
                            {
                                "url": "ombCategory",
                                "valueCoding": {
                                    "code": "2028-9",
                                    "display": "Asian",
                                    "system": "urn:oid:2.16.840.1.113883.6.238"
                                }
                            },
                            {
                                "url": "text",
                                "valueString": "White+Asian"
                            }
                        ]
                    },
                    {
                        "url": "http://hl7.org/fhir/StructureDefinition/patient-mothersMaidenName",
                        "valueString": "SMITH--Angela--L"
                    },
                    {
                        "url": "http://hl7.org/fhir/StructureDefinition/patient-birthPlace",
                        "valueAddress": {
                            "text": "St. Francis Community Hospital of Lower South Side"
                        }
                    },
                    {
                        "url": "http://hl7.org/fhir/StructureDefinition/patient-religion",
                        "valueCodeableConcept": {
                            "coding": [
                                {
                                    "code": "1002",
                                    "display": "African Religions",
                                    "system": "http://terminology.hl7.org/CodeSystem/v3-ReligiousAffiliation"
                                }
                            ]
                        }
                    },
                    {
                        "url": "http://hl7.org/fhir/us/core/StructureDefinition/us-core-ethnicity",
                        "extension": [
                            {
                                "url": "ombCategory",
                                "valueCoding": {
                                    "code": "2186-5",
                                    "display": "Non Hispanic or Latino",
                                    "system": "urn:oid:2.16.840.1.113883.6.238"
                                }
                            },
                            {
                                "url": "text",
                                "valueString": "Non Hispanic or Latino"
                            }
                        ]
                    },
                    {
                        "url": "http://example.com/v2-to-fhir-converter/StructureDefinition/VeteranMilitaryStatus",
                        "valueCodeableConcept": {
                            "coding": [
                                {
                                    "code": "Vet123",
                                    "display": "retired",
                                    "system": "http://example.com/v2-to-fhir-converter/CodeSystem/ART"
                                }
                            ],
                            "text": "retired"
                        }
                    },
                    {
                        "url": "http://hl7.org/fhir/StructureDefinition/patient-animal",
                        "extension": [
                            {
                                "url": "species",
                                "valueCodeableConcept": {
                                    "coding": [
                                        {
                                            "code": "125097000",
                                            "display": "Goat",
                                            "system": "http://snomed.info/sct"
                                        }
                                    ],
                                    "text": "Goat"
                                }
                            },
                            {
                                "url": "breed",
                                "valueCodeableConcept": {
                                    "coding": [
                                        {
                                            "code": "4880003",
                                            "display": "Beagle",
                                            "system": "http://snomed.info/sct"
                                        }
                                    ],
                                    "text": "Beagle"
                                }
                            }
                        ]
                    },
                    {
                        "url": "http://hl7.org/fhir/StructureDefinition/patient-citizenship",
                        "extension": [
                            {
                                "url": "code",
                                "valueCodeableConcept": {
                                    "coding": [
                                        {
                                            "code": "US",
                                            "display": "United States of America",
                                            "system": "urn:iso:std:iso:3166"
                                        }
                                    ],
                                    "text": "United States of America"
                                }
                            }
                        ]
                    },
                    {
                        "url": "http://hl7.org/fhir/StructureDefinition/patient-citizenship",
                        "extension": [
                            {
                                "url": "code",
                                "valueCodeableConcept": {
                                    "coding": [
                                        {
                                            "code": "CA",
                                            "display": "Canada",
                                            "system": "urn:iso:std:iso:3166"
                                        }
                                    ],
                                    "text": "Canada"
                                }
                            }
                        ]
                    },
                    {
                        "url": "http://hl7.org/fhir/StructureDefinition/patient-congregation",
                        "valueString": "Methodist Church"
                    },
                    {
                        "url": "http://hl7.org/fhir/StructureDefinition/patient-importance",
                        "valueCodeableConcept": {
                            "coding": [
                                {
                                    "code": "VIP",
                                    "display": "Very Important Person",
                                    "system": "http://example.com/v2-to-fhir-converter/CodeSystem/L",
                                    "version": "v1.1"
                                },
                                {
                                    "code": "IMP",
                                    "system": "http://example.com/v2-to-fhir-converter/CodeSystem/DCM",
                                    "version": "v1.2"
                                }
                            ],
                            "text": "Inportant Person"
                        }
                    },
                    {
                        "url": "http://example.com/v2-to-fhir-converter/StructureDefinition/patient-disabilityIndicator",
                        "valueBoolean": true
                    },
                    {
                        "url": "http://example.com/v2-to-fhir-converter/StructureDefinition/DisabilityPeriod",
                        "valuePeriod": {
                            "start": "2021-08-30",
                            "end": "2021-09-30"
                        }
                    }
                ]
            },
            "request": {
                "method": "PUT",
                "url": "Patient/9e909e52-61a1-be50-1878-a12ef8c36346"
            }
        },
        {
            "fullUrl": "urn:uuid:4ad7c7d0-b69a-0653-9ea9-0979b8a66b39",
            "resource": {
                "resourceType": "Account",
                "id": "4ad7c7d0-b69a-0653-9ea9-0979b8a66b39",
                "identifier": [
                    {
                        "value": "4000776",
                        "type": {
                            "coding": [
                                {
                                    "code": "VN",
                                    "system": "http://terminology.hl7.org/CodeSystem/v2-0203",
                                    "display": "Visit number"
                                }
                            ]
                        },
                        "system": "urn:oid:1.3.6.1.4.1.44750.1.2.2",
                        "assigner": {
                            "reference": "Organization/816e4ec3-f5a6-5969-08c8-a71ef576263e"
                        },
                        "period": {
                            "start": "1924-10-11",
                            "end": "1924-10-12"
                        }
                    }
                ],
                "status": "entered-in-error",
                "subject": [
                    {
                        "reference": "Patient/9e909e52-61a1-be50-1878-a12ef8c36346"
                    }
                ]
            },
            "request": {
                "method": "PUT",
                "url": "Account/4ad7c7d0-b69a-0653-9ea9-0979b8a66b39"
            }
        },
        {
            "fullUrl": "urn:uuid:816e4ec3-f5a6-5969-08c8-a71ef576263e",
            "resource": {
                "resourceType": "Organization",
                "id": "816e4ec3-f5a6-5969-08c8-a71ef576263e",
                "identifier": [
                    {
                        "value": "AccMgr",
                        "system": "http://example.com/v2-to-fhir-converter/Identifier/AccMgr"
                    },
                    {
                        "value": "urn:oid:1.3.6.1.4.1.44750.1.2.2",
                        "system": "urn:ietf:rfc:3986",
                        "type": {
                            "coding": [
                                {
                                    "code": "ISO",
                                    "display": "An International Standards Organization Object Identifier (OID), in accordance with ISO/IEC 8824. Formatted as decimal digits separated by periods; recommended limit of 64 characters",
                                    "system": "http://terminology.hl7.org/CodeSystem/v2-0301"
                                }
                            ]
                        }
                    }
                ]
            },
            "request": {
                "method": "PUT",
                "url": "Organization/816e4ec3-f5a6-5969-08c8-a71ef576263e"
            }
        },
        {
            "fullUrl": "urn:uuid:b3ad3a9f-d4f6-4638-0a09-2da771733488",
            "resource": {
                "resourceType": "Organization",
                "id": "b3ad3a9f-d4f6-4638-0a09-2da771733488",
                "identifier": [
                    {
                        "value": "test1",
                        "system": "http://example.com/v2-to-fhir-converter/Identifier/test1"
                    },
                    {
                        "value": "2.16.1",
                        "system": "http://example.com/v2-to-fhir-converter/Identifier/HCD",
                        "type": {
                            "coding": [
                                {
                                    "code": "HCD",
                                    "display": "The CEN Healthcare Coding Scheme Designator",
                                    "system": "http://terminology.hl7.org/CodeSystem/v2-0301"
                                }
                            ]
                        }
                    }
                ]
            },
            "request": {
                "method": "PUT",
                "url": "Organization/b3ad3a9f-d4f6-4638-0a09-2da771733488"
            }
        },
        {
            "fullUrl": "urn:uuid:f3954ae4-dec6-f114-1b9e-3a8a85d93f99",
            "resource": {
                "resourceType": "Organization",
                "id": "f3954ae4-dec6-f114-1b9e-3a8a85d93f99",
                "identifier": [
                    {
                        "value": "NTH",
                        "system": "http://example.com/v2-to-fhir-converter/Identifier/NTH"
                    },
                    {
                        "value": "rt23",
                        "system": "http://example.com/v2-to-fhir-converter/Identifier/HCD",
                        "type": {
                            "coding": [
                                {
                                    "code": "HCD",
                                    "display": "The CEN Healthcare Coding Scheme Designator",
                                    "system": "http://terminology.hl7.org/CodeSystem/v2-0301"
                                }
                            ]
                        }
                    }
                ]
            },
            "request": {
                "method": "PUT",
                "url": "Organization/f3954ae4-dec6-f114-1b9e-3a8a85d93f99"
            }
        },
        {
            "fullUrl": "urn:uuid:62b2e1ee-a272-4ffe-692e-a1fbfd49af6a",
            "resource": {
                "resourceType": "RelatedPerson",
                "id": "62b2e1ee-a272-4ffe-692e-a1fbfd49af6a",
                "identifier": [
                    {
                        "value": "1212121",
                        "type": {
                            "coding": [
                                {
                                    "code": "AND",
                                    "system": "http://terminology.hl7.org/CodeSystem/v2-0203",
                                    "display": "Account number debitor"
                                }
                            ]
                        },
                        "system": "http://example.com/v2-to-fhir-converter/Identifier/HCD",
                        "assigner": {
                            "reference": "Organization/f3954ae4-dec6-f114-1b9e-3a8a85d93f99"
                        },
                        "period": {
                            "start": "1924-10-11",
                            "end": "1924-10-12"
                        }
                    }
                ],
                "relationship": [
                    {
                        "coding": [
                            {
                                "code": "MTH",
                                "system": "http://terminology.hl7.org/CodeSystem/v3-RoleCode"
                            }
                        ]
                    }
                ],
                "patient": {
                    "reference": "Patient/9e909e52-61a1-be50-1878-a12ef8c36346"
                }
            },
            "request": {
                "method": "PUT",
                "url": "RelatedPerson/62b2e1ee-a272-4ffe-692e-a1fbfd49af6a"
            }
        },
        {
            "fullUrl": "urn:uuid:719266ca-c272-9569-a797-c0b3fe3b2c91",
            "resource": {
                "resourceType": "Organization",
                "id": "719266ca-c272-9569-a797-c0b3fe3b2c91",
                "name": "LINDAS TEST ORGANIZATION",
                "identifier": [
                    {
                        "value": "SIISCLIENT818"
                    }
                ]
            },
            "request": {
                "method": "PUT",
                "url": "Organization/719266ca-c272-9569-a797-c0b3fe3b2c91"
            }
        },
        {
            "fullUrl": "urn:uuid:11967e28-8dd4-a112-0fdc-377866bf12a0",
            "resource": {
                "resourceType": "Organization",
                "id": "11967e28-8dd4-a112-0fdc-377866bf12a0",
                "identifier": [
                    {
                        "value": "t",
                        "system": "http://example.com/v2-to-fhir-converter/Identifier/t"
                    },
                    {
                        "value": "2.16.840.1.113883.19",
                        "system": "http://example.com/v2-to-fhir-converter/Identifier/HCD",
                        "type": {
                            "coding": [
                                {
                                    "code": "HCD",
                                    "display": "The CEN Healthcare Coding Scheme Designator",
                                    "system": "http://terminology.hl7.org/CodeSystem/v2-0301"
                                }
                            ]
                        }
                    }
                ]
            },
            "request": {
                "method": "PUT",
                "url": "Organization/11967e28-8dd4-a112-0fdc-377866bf12a0"
            }
        },
        {
            "fullUrl": "urn:uuid:7452d91f-ae92-d8ce-5b4a-148be5b6538e",
            "resource": {
                "resourceType": "Organization",
                "id": "7452d91f-ae92-d8ce-5b4a-148be5b6538e",
                "identifier": [
                    {
                        "value": "AccMng",
                        "system": "http://example.com/v2-to-fhir-converter/Identifier/AccMng"
                    },
                    {
                        "value": "1.2",
                        "system": "http://example.com/v2-to-fhir-converter/Identifier/HCD",
                        "type": {
                            "coding": [
                                {
                                    "code": "HCD",
                                    "display": "The CEN Healthcare Coding Scheme Designator",
                                    "system": "http://terminology.hl7.org/CodeSystem/v2-0301"
                                }
                            ]
                        }
                    }
                ]
            },
            "request": {
                "method": "PUT",
                "url": "Organization/7452d91f-ae92-d8ce-5b4a-148be5b6538e"
            }
        },
        {
            "fullUrl": "urn:uuid:0ccb76ca-b97e-1c86-4617-912a6d65c1f9",
            "resource": {
                "resourceType": "Organization",
                "id": "0ccb76ca-b97e-1c86-4617-912a6d65c1f9",
                "identifier": [
                    {
                        "value": "PERSONNELt",
                        "system": "http://example.com/v2-to-fhir-converter/Identifier/PERSONNELt"
                    },
                    {
                        "value": "1.23",
                        "system": "http://example.com/v2-to-fhir-converter/Identifier/HCD",
                        "type": {
                            "coding": [
                                {
                                    "code": "HCD",
                                    "display": "The CEN Healthcare Coding Scheme Designator",
                                    "system": "http://terminology.hl7.org/CodeSystem/v2-0301"
                                }
                            ]
                        }
                    }
                ]
            },
            "request": {
                "method": "PUT",
                "url": "Organization/0ccb76ca-b97e-1c86-4617-912a6d65c1f9"
            }
        },
        {
            "fullUrl": "urn:uuid:f6775f99-5279-be04-bf81-0906c81f7443",
            "resource": {
                "resourceType": "Practitioner",
                "id": "f6775f99-5279-be04-bf81-0906c81f7443",
                "identifier": [
                    {
                        "value": "1122334",
                        "system": "http://example.com/v2-to-fhir-converter/Identifier/HCD",
                        "assigner": {
                            "reference": "Organization/0ccb76ca-b97e-1c86-4617-912a6d65c1f9"
                        },
                        "type": {
                            "coding": [
                                {
                                    "code": "BR",
                                    "display": "Birth registry number",
                                    "system": "http://terminology.hl7.org/CodeSystem/v2-0203"
                                }
                            ]
                        }
                    }
                ],
                "name": [
                    {
                        "family": "Alaz",
                        "given": [
                            "Mohammed",
                            "Mahi"
                        ],
                        "suffix": [
                            "JR",
                            "MD",
                            "Al"
                        ],
                        "prefix": [
                            "Dr."
                        ],
                        "period": {
                            "start": "1924-10-10",
                            "end": "1924-10-15"
                        }
                    }
                ]
            },
            "request": {
                "method": "PUT",
                "url": "Practitioner/f6775f99-5279-be04-bf81-0906c81f7443"
            }
        },
        {
            "fullUrl": "urn:uuid:c613d7b2-525f-8c08-a7ac-b2b91486e257",
            "resource": {
                "resourceType": "Organization",
                "id": "c613d7b2-525f-8c08-a7ac-b2b91486e257",
                "identifier": [
                    {
                        "value": "TEST",
                        "system": "http://example.com/v2-to-fhir-converter/Identifier/TEST"
                    },
                    {
                        "value": "23.2",
                        "system": "http://example.com/v2-to-fhir-converter/Identifier/HCD",
                        "type": {
                            "coding": [
                                {
                                    "code": "HCD",
                                    "display": "The CEN Healthcare Coding Scheme Designator",
                                    "system": "http://terminology.hl7.org/CodeSystem/v2-0301"
                                }
                            ]
                        }
                    }
                ]
            },
            "request": {
                "method": "PUT",
                "url": "Organization/c613d7b2-525f-8c08-a7ac-b2b91486e257"
            }
        },
        {
            "fullUrl": "urn:uuid:04f8cfc8-62ca-12df-63ce-6304ef577d44",
            "resource": {
                "resourceType": "Practitioner",
                "id": "04f8cfc8-62ca-12df-63ce-6304ef577d44",
                "identifier": [
                    {
                        "value": "C006",
                        "system": "http://example.com/v2-to-fhir-converter/Identifier/HCD",
                        "assigner": {
                            "reference": "Organization/c613d7b2-525f-8c08-a7ac-b2b91486e257"
                        },
                        "type": {
                            "coding": [
                                {
                                    "code": "BA",
                                    "display": "Bank Account Number",
                                    "system": "http://terminology.hl7.org/CodeSystem/v2-0203"
                                }
                            ]
                        }
                    }
                ],
                "name": [
                    {
                        "family": "Woolfson",
                        "given": [
                            "Kathleen"
                        ],
                        "prefix": [
                            "Dr"
                        ],
                        "use": "anonymous"
                    }
                ]
            },
            "request": {
                "method": "PUT",
                "url": "Practitioner/04f8cfc8-62ca-12df-63ce-6304ef577d44"
            }
        },
        {
            "fullUrl": "urn:uuid:94d0558e-593c-7585-5525-68541f8b1064",
            "resource": {
                "resourceType": "Practitioner",
                "id": "94d0558e-593c-7585-5525-68541f8b1064",
                "identifier": [
                    {
                        "value": "C008",
                        "system": "urn:oid:1.3.6.1.4.1.44750.1.2.2",
                        "type": {
                            "coding": [
                                {
                                    "code": "BR",
                                    "display": "Birth registry number",
                                    "system": "http://terminology.hl7.org/CodeSystem/v2-0203"
                                }
                            ]
                        }
                    }
                ],
                "name": [
                    {
                        "family": "Condoc",
                        "given": [
                            "leen"
                        ],
                        "prefix": [
                            "Dr"
                        ],
                        "use": "temp"
                    }
                ]
            },
            "request": {
                "method": "PUT",
                "url": "Practitioner/94d0558e-593c-7585-5525-68541f8b1064"
            }
        },
        {
            "fullUrl": "urn:uuid:b065b233-8738-f1ec-1314-d61e4aac2c9e",
            "resource": {
                "resourceType": "Practitioner",
                "id": "b065b233-8738-f1ec-1314-d61e4aac2c9e",
                "identifier": [
                    {
                        "value": "37",
                        "system": "http://example.com/v2-to-fhir-converter/Identifier/AccMgr",
                        "type": {
                            "coding": [
                                {
                                    "code": "ANC",
                                    "display": "Account number Creditor",
                                    "system": "http://terminology.hl7.org/CodeSystem/v2-0203"
                                }
                            ]
                        }
                    }
                ],
                "name": [
                    {
                        "family": "DISNEY",
                        "given": [
                            "WALT"
                        ]
                    }
                ]
            },
            "request": {
                "method": "PUT",
                "url": "Practitioner/b065b233-8738-f1ec-1314-d61e4aac2c9e"
            }
        },
        {
            "fullUrl": "urn:uuid:a6c4db5e-d3be-c9a5-8f86-a1d3341211b6",
            "resource": {
                "resourceType": "Organization",
                "id": "a6c4db5e-d3be-c9a5-8f86-a1d3341211b6",
                "identifier": [
                    {
                        "value": "T123",
                        "system": "http://example.com/v2-to-fhir-converter/Identifier/T123"
                    },
                    {
                        "value": "urn:oid:1.3.6.1.4.1.44750.1.2.2",
                        "system": "urn:ietf:rfc:3986",
                        "type": {
                            "coding": [
                                {
                                    "code": "ISO",
                                    "display": "An International Standards Organization Object Identifier (OID), in accordance with ISO/IEC 8824. Formatted as decimal digits separated by periods; recommended limit of 64 characters",
                                    "system": "http://terminology.hl7.org/CodeSystem/v2-0301"
                                }
                            ]
                        }
                    }
                ]
            },
            "request": {
                "method": "PUT",
                "url": "Organization/a6c4db5e-d3be-c9a5-8f86-a1d3341211b6"
            }
        },
        {
            "fullUrl": "urn:uuid:7e8c8f5b-e366-6646-d2c0-e943bd9d1145",
            "resource": {
                "resourceType": "Location",
                "id": "7e8c8f5b-e366-6646-d2c0-e943bd9d1145",
                "partOf": {
                    "reference": "Location/ff93044f-a48c-31c6-e7bd-f400aff947e3"
                },
                "name": "HUH AE OMU",
                "identifier": [
                    {
                        "value": "urn:oid:9.8",
                        "system": "urn:ietf:rfc:3986"
                    }
                ],
                "mode": "instance",
                "description": "HUH AE OMU--9.8--ISO--OMU B--Bed 03--HOMERTON UNIVER--C--Homerton UH--Floor5",
                "physicalType": {
                    "coding": [
                        {
                            "system": "http://terminology.hl7.org/CodeSystem/location-physical-type",
                            "code": "lvl"
                        }
                    ]
                }
            },
            "request": {
                "method": "PUT",
                "url": "Location/7e8c8f5b-e366-6646-d2c0-e943bd9d1145"
            }
        },
        {
            "fullUrl": "urn:uuid:21db7463-3dcf-df06-09f7-657d2a3149da",
            "resource": {
                "resourceType": "Location",
                "id": "21db7463-3dcf-df06-09f7-657d2a3149da",
                "partOf": {
                    "reference": "Location/7e8c8f5b-e366-6646-d2c0-e943bd9d1145"
                },
                "name": "OMU B",
                "mode": "instance",
                "description": "HUH AE OMU--9.8--ISO--OMU B--Bed 03--HOMERTON UNIVER--C--Homerton UH--Floor5",
                "physicalType": {
                    "coding": [
                        {
                            "system": "http://terminology.hl7.org/CodeSystem/location-physical-type",
                            "code": "ro"
                        }
                    ]
                }
            },
            "request": {
                "method": "PUT",
                "url": "Location/21db7463-3dcf-df06-09f7-657d2a3149da"
            }
        },
        {
            "fullUrl": "urn:uuid:8c9f471c-25cf-4f9d-a67a-da6dccc64c88",
            "resource": {
                "resourceType": "Location",
                "id": "8c9f471c-25cf-4f9d-a67a-da6dccc64c88",
                "partOf": {
                    "reference": "Location/21db7463-3dcf-df06-09f7-657d2a3149da"
                },
                "name": "Bed 03",
                "mode": "instance",
                "description": "HUH AE OMU--9.8--ISO--OMU B--Bed 03--HOMERTON UNIVER--C--Homerton UH--Floor5",
                "physicalType": {
                    "coding": [
                        {
                            "system": "http://terminology.hl7.org/CodeSystem/location-physical-type",
                            "code": "bd"
                        }
                    ]
                }
            },
            "request": {
                "method": "PUT",
                "url": "Location/8c9f471c-25cf-4f9d-a67a-da6dccc64c88"
            }
        },
        {
            "fullUrl": "urn:uuid:35c140b2-668e-8d32-7516-6ec7d7edecc7",
            "resource": {
                "resourceType": "Location",
                "id": "35c140b2-668e-8d32-7516-6ec7d7edecc7",
                "name": "HOMERTON UNIVER",
                "mode": "instance",
                "description": "HUH AE OMU--9.8--ISO--OMU B--Bed 03--HOMERTON UNIVER--C--Homerton UH--Floor5",
                "physicalType": {
                    "coding": [
                        {
                            "system": "http://terminology.hl7.org/CodeSystem/location-physical-type",
                            "code": "si"
                        }
                    ]
                }
            },
            "request": {
                "method": "PUT",
                "url": "Location/35c140b2-668e-8d32-7516-6ec7d7edecc7"
            }
        },
        {
            "fullUrl": "urn:uuid:7fce0afa-27f7-3408-86ef-838840491ff0",
            "resource": {
                "resourceType": "Location",
                "id": "7fce0afa-27f7-3408-86ef-838840491ff0",
                "partOf": {
                    "reference": "Location/35c140b2-668e-8d32-7516-6ec7d7edecc7"
                },
                "name": "Homerton UH",
                "mode": "instance",
                "description": "HUH AE OMU--9.8--ISO--OMU B--Bed 03--HOMERTON UNIVER--C--Homerton UH--Floor5",
                "physicalType": {
                    "coding": [
                        {
                            "system": "http://terminology.hl7.org/CodeSystem/location-physical-type",
                            "code": "bu"
                        }
                    ]
                }
            },
            "request": {
                "method": "PUT",
                "url": "Location/7fce0afa-27f7-3408-86ef-838840491ff0"
            }
        },
        {
            "fullUrl": "urn:uuid:ff93044f-a48c-31c6-e7bd-f400aff947e3",
            "resource": {
                "resourceType": "Location",
                "id": "ff93044f-a48c-31c6-e7bd-f400aff947e3",
                "partOf": {
                    "reference": "Location/7fce0afa-27f7-3408-86ef-838840491ff0"
                },
                "name": "Floor5",
                "mode": "instance",
                "description": "HUH AE OMU--9.8--ISO--OMU B--Bed 03--HOMERTON UNIVER--C--Homerton UH--Floor5",
                "physicalType": {
                    "coding": [
                        {
                            "system": "http://terminology.hl7.org/CodeSystem/location-physical-type",
                            "code": "lvl"
                        }
                    ]
                }
            },
            "request": {
                "method": "PUT",
                "url": "Location/ff93044f-a48c-31c6-e7bd-f400aff947e3"
            }
        },
        {
            "fullUrl": "urn:uuid:76bb5678-ca71-a235-147f-5385b651dcd3",
            "resource": {
                "resourceType": "Location",
                "id": "76bb5678-ca71-a235-147f-5385b651dcd3",
                "name": "4 East, room 136, bed B 4E",
                "mode": "instance",
                "description": "4 East, room 136, bed B 4E--136--B--CommunityHospital--N",
                "physicalType": {
                    "coding": [
                        {
                            "system": "http://terminology.hl7.org/CodeSystem/location-physical-type",
                            "code": "lvl"
                        }
                    ]
                }
            },
            "request": {
                "method": "PUT",
                "url": "Location/76bb5678-ca71-a235-147f-5385b651dcd3"
            }
        },
        {
            "fullUrl": "urn:uuid:a81cf64e-818a-d05c-e288-6eca8ec91ab4",
            "resource": {
                "resourceType": "Location",
                "id": "a81cf64e-818a-d05c-e288-6eca8ec91ab4",
                "partOf": {
                    "reference": "Location/76bb5678-ca71-a235-147f-5385b651dcd3"
                },
                "name": "136",
                "mode": "instance",
                "description": "4 East, room 136, bed B 4E--136--B--CommunityHospital--N",
                "physicalType": {
                    "coding": [
                        {
                            "system": "http://terminology.hl7.org/CodeSystem/location-physical-type",
                            "code": "ro"
                        }
                    ]
                }
            },
            "request": {
                "method": "PUT",
                "url": "Location/a81cf64e-818a-d05c-e288-6eca8ec91ab4"
            }
        },
        {
            "fullUrl": "urn:uuid:7b9cc9f8-b3c0-b0c4-b1eb-d52b6c0ccab0",
            "resource": {
                "resourceType": "Location",
                "id": "7b9cc9f8-b3c0-b0c4-b1eb-d52b6c0ccab0",
                "partOf": {
                    "reference": "Location/a81cf64e-818a-d05c-e288-6eca8ec91ab4"
                },
                "name": "B",
                "mode": "instance",
                "description": "4 East, room 136, bed B 4E--136--B--CommunityHospital--N",
                "physicalType": {
                    "coding": [
                        {
                            "system": "http://terminology.hl7.org/CodeSystem/location-physical-type",
                            "code": "bd"
                        }
                    ]
                }
            },
            "request": {
                "method": "PUT",
                "url": "Location/7b9cc9f8-b3c0-b0c4-b1eb-d52b6c0ccab0"
            }
        },
        {
            "fullUrl": "urn:uuid:3cb09fa6-cc83-83f0-a8e4-2e09ec138b20",
            "resource": {
                "resourceType": "Location",
                "id": "3cb09fa6-cc83-83f0-a8e4-2e09ec138b20",
                "name": "CommunityHospital",
                "mode": "instance",
                "description": "4 East, room 136, bed B 4E--136--B--CommunityHospital--N",
                "physicalType": {
                    "coding": [
                        {
                            "system": "http://terminology.hl7.org/CodeSystem/location-physical-type",
                            "code": "si"
                        }
                    ]
                }
            },
            "request": {
                "method": "PUT",
                "url": "Location/3cb09fa6-cc83-83f0-a8e4-2e09ec138b20"
            }
        },
        {
            "fullUrl": "urn:uuid:42b81572-ebb4-3f14-7a91-e1f9a9c70460",
            "resource": {
                "resourceType": "Location",
                "id": "42b81572-ebb4-3f14-7a91-e1f9a9c70460",
                "name": "Homes",
                "identifier": [
                    {
                        "value": "22",
                        "system": "http://example.com/v2-to-fhir-converter/Identifier/FDK"
                    }
                ],
                "physicalType": {
                    "coding": [
                        {
                            "code": "si",
                            "system": "http://terminology.hl7.org/CodeSystem/location-physical-type"
                        }
                    ]
                }
            },
            "request": {
                "method": "PUT",
                "url": "Location/42b81572-ebb4-3f14-7a91-e1f9a9c70460"
            }
        },
        {
            "fullUrl": "urn:uuid:9be961d3-d02a-b454-1991-fa701628c823",
            "resource": {
                "resourceType": "Location",
                "id": "9be961d3-d02a-b454-1991-fa701628c823",
                "name": "POC",
                "mode": "instance",
                "description": "POC--Room-2--Bed-103--C--Greenland",
                "physicalType": {
                    "coding": [
                        {
                            "system": "http://terminology.hl7.org/CodeSystem/location-physical-type",
                            "code": "lvl"
                        }
                    ]
                }
            },
            "request": {
                "method": "PUT",
                "url": "Location/9be961d3-d02a-b454-1991-fa701628c823"
            }
        },
        {
            "fullUrl": "urn:uuid:1399b4cb-a4d1-3331-1d1a-6936cec4347a",
            "resource": {
                "resourceType": "Location",
                "id": "1399b4cb-a4d1-3331-1d1a-6936cec4347a",
                "partOf": {
                    "reference": "Location/9be961d3-d02a-b454-1991-fa701628c823"
                },
                "name": "Room-2",
                "mode": "instance",
                "description": "POC--Room-2--Bed-103--C--Greenland",
                "physicalType": {
                    "coding": [
                        {
                            "system": "http://terminology.hl7.org/CodeSystem/location-physical-type",
                            "code": "ro"
                        }
                    ]
                }
            },
            "request": {
                "method": "PUT",
                "url": "Location/1399b4cb-a4d1-3331-1d1a-6936cec4347a"
            }
        },
        {
            "fullUrl": "urn:uuid:8d9d8b7c-8443-1b9c-6317-3837aef34f9f",
            "resource": {
                "resourceType": "Location",
                "id": "8d9d8b7c-8443-1b9c-6317-3837aef34f9f",
                "partOf": {
                    "reference": "Location/1399b4cb-a4d1-3331-1d1a-6936cec4347a"
                },
                "name": "Bed-103",
                "mode": "instance",
                "description": "POC--Room-2--Bed-103--C--Greenland",
                "physicalType": {
                    "coding": [
                        {
                            "system": "http://terminology.hl7.org/CodeSystem/location-physical-type",
                            "code": "bd"
                        }
                    ]
                }
            },
            "request": {
                "method": "PUT",
                "url": "Location/8d9d8b7c-8443-1b9c-6317-3837aef34f9f"
            }
        },
        {
            "fullUrl": "urn:uuid:ec64ffd3-99e4-b7b0-d99d-78e3fc39e5b4",
            "resource": {
                "resourceType": "Location",
                "id": "ec64ffd3-99e4-b7b0-d99d-78e3fc39e5b4",
                "name": "Greenland",
                "mode": "instance",
                "description": "POC--Room-2--Bed-103--C--Greenland",
                "physicalType": {
                    "coding": [
                        {
                            "system": "http://terminology.hl7.org/CodeSystem/location-physical-type",
                            "code": "bu"
                        }
                    ]
                }
            },
            "request": {
                "method": "PUT",
                "url": "Location/ec64ffd3-99e4-b7b0-d99d-78e3fc39e5b4"
            }
        },
        {
            "fullUrl": "urn:uuid:91ba2e87-a4f9-aa57-068a-4f18e2b520a3",
            "resource": {
                "resourceType": "Location",
                "id": "91ba2e87-a4f9-aa57-068a-4f18e2b520a3",
                "name": "Nursing home",
                "mode": "instance",
                "description": "Nursing home--Rosewood",
                "physicalType": {
                    "coding": [
                        {
                            "system": "http://terminology.hl7.org/CodeSystem/location-physical-type",
                            "code": "lvl"
                        }
                    ]
                }
            },
            "request": {
                "method": "PUT",
                "url": "Location/91ba2e87-a4f9-aa57-068a-4f18e2b520a3"
            }
        },
        {
            "fullUrl": "urn:uuid:033948d7-f808-69f7-e150-e34433d7e74e",
            "resource": {
                "resourceType": "Location",
                "id": "033948d7-f808-69f7-e150-e34433d7e74e",
                "name": "Rosewood",
                "mode": "instance",
                "description": "Nursing home--Rosewood",
                "physicalType": {
                    "coding": [
                        {
                            "system": "http://terminology.hl7.org/CodeSystem/location-physical-type",
                            "code": "bu"
                        }
                    ]
                }
            },
            "request": {
                "method": "PUT",
                "url": "Location/033948d7-f808-69f7-e150-e34433d7e74e"
            }
        },
        {
            "fullUrl": "urn:uuid:08314073-410a-3dc7-512c-0f2d206fb59d",
            "resource": {
                "resourceType": "Organization",
                "id": "08314073-410a-3dc7-512c-0f2d206fb59d",
                "identifier": [
                    {
                        "value": "Etest",
                        "system": "http://example.com/v2-to-fhir-converter/Identifier/Etest"
                    },
                    {
                        "value": "2.16.1",
                        "system": "http://example.com/v2-to-fhir-converter/Identifier/HCD",
                        "type": {
                            "coding": [
                                {
                                    "code": "HCD",
                                    "display": "The CEN Healthcare Coding Scheme Designator",
                                    "system": "http://terminology.hl7.org/CodeSystem/v2-0301"
                                }
                            ]
                        }
                    }
                ]
            },
            "request": {
                "method": "PUT",
                "url": "Organization/08314073-410a-3dc7-512c-0f2d206fb59d"
            }
        },
        {
            "fullUrl": "urn:uuid:919a86bd-c9a1-86a7-2c9d-e34ae2559ffb",
            "resource": {
                "resourceType": "EpisodeOfCare",
                "id": "919a86bd-c9a1-86a7-2c9d-e34ae2559ffb",
                "status": "active",
                "identifier": [
                    {
                        "value": "EOC124",
                        "type": {
                            "coding": [
                                {
                                    "code": "MR",
                                    "system": "http://terminology.hl7.org/CodeSystem/v2-0203",
                                    "display": "Medical record number"
                                }
                            ]
                        },
                        "system": "http://example.com/v2-to-fhir-converter/Identifier/HCD",
                        "assigner": {
                            "reference": "Organization/08314073-410a-3dc7-512c-0f2d206fb59d"
                        }
                    }
                ],
                "patient": {
                    "reference": "Patient/9e909e52-61a1-be50-1878-a12ef8c36346"
                }
            },
            "request": {
                "method": "PUT",
                "url": "EpisodeOfCare/919a86bd-c9a1-86a7-2c9d-e34ae2559ffb"
            }
        },
        {
            "fullUrl": "urn:uuid:4b192760-03d2-aec4-b0a6-fde323912e1e",
            "resource": {
                "resourceType": "Encounter",
                "id": "4b192760-03d2-aec4-b0a6-fde323912e1e",
                "class": {
                    "code": "PRENC",
                    "display": "pre-admission",
                    "system": "http://terminology.hl7.org/CodeSystem/v3-ActCode"
                },
                "status": "planned",
                "location": [
                    {
                        "status": "planned",
                        "location": {
                            "reference": "Location/7e8c8f5b-e366-6646-d2c0-e943bd9d1145"
                        }
                    },
                    {
                        "status": "completed",
                        "location": {
                            "reference": "Location/76bb5678-ca71-a235-147f-5385b651dcd3"
                        }
                    },
                    {
                        "status": "planned",
                        "location": {
                            "reference": "Location/9be961d3-d02a-b454-1991-fa701628c823"
                        }
                    },
                    {
                        "status": "completed",
                        "location": {
                            "reference": "Location/91ba2e87-a4f9-aa57-068a-4f18e2b520a3"
                        },
                        "extension": [
                            {
                                "url": "http://hl7.org/fhir/uv/v2mappings/StructureDefinition/temporary-location",
                                "valueBoolean": true
                            }
                        ]
                    }
                ],
                "type": [
                    {
                        "coding": [
                            {
                                "code": "E",
                                "display": "Emergency",
                                "system": "http://terminology.hl7.org/CodeSystem/v2-0007"
                            }
                        ]
                    }
                ],
                "hospitalization": {
                    "preAdmissionIdentifier": {
                        "value": "1234567",
                        "type": {
                            "coding": [
                                {
                                    "code": "ANON",
                                    "system": "http://terminology.hl7.org/CodeSystem/v2-0203",
                                    "display": "Anonymous identifier"
                                }
                            ]
                        },
                        "system": "http://example.com/v2-to-fhir-converter/Identifier/HCD",
                        "assigner": {
                            "reference": "Organization/11967e28-8dd4-a112-0fdc-377866bf12a0"
                        },
                        "period": {
                            "start": "1924-10-11",
                            "end": "1924-10-12"
                        }
                    },
                    "reAdmission": {
                        "coding": [
                            {
                                "code": "R",
                                "display": "Re-admission",
                                "system": "http://terminology.hl7.org/CodeSystem/v2-0092"
                            }
                        ]
                    },
                    "admitSource": {
                        "coding": [
                            {
                                "code": "NHS Provider-General (inc.A&E-this Hosp)"
                            }
                        ]
                    },
                    "dischargeDisposition": {
                        "coding": [
                            {
                                "code": "Admitted as Inpatient",
                                "display": "Sample",
                                "system": "http://example.com/v2-to-fhir-converter/CodeSystem/ACR"
                            }
                        ]
                    },
                    "dietPreference": [
                        {
                            "coding": [
                                {
                                    "code": "Vegan",
                                    "display": "Vegetarian"
                                }
                            ]
                        }
                    ],
                    "destination": {
                        "reference": "Location/42b81572-ebb4-3f14-7a91-e1f9a9c70460"
                    }
                },
                "episodeOfCare": [
                    {
                        "reference": "EpisodeOfCare/919a86bd-c9a1-86a7-2c9d-e34ae2559ffb"
                    }
                ],
                "participant": [
                    {
                        "type": [
                            {
                                "coding": [
                                    {
                                        "code": "ATND",
                                        "system": "http://terminology.hl7.org/CodeSystem/v3-ParticipationType",
                                        "display": "attender"
                                    }
                                ]
                            }
                        ],
                        "individual": {
                            "reference": "Practitioner/f6775f99-5279-be04-bf81-0906c81f7443"
                        }
                    },
                    {
                        "type": [
                            {
                                "coding": [
                                    {
                                        "code": "REF",
                                        "system": "http://terminology.hl7.org/CodeSystem/v3-ParticipationType"
                                    }
                                ],
                                "text": "referrer"
                            }
                        ],
                        "individual": {
                            "reference": "Practitioner/04f8cfc8-62ca-12df-63ce-6304ef577d44"
                        }
                    },
                    {
                        "type": [
                            {
                                "coding": [
                                    {
                                        "code": "CON",
                                        "system": "http://terminology.hl7.org/CodeSystem/v3-ParticipationType"
                                    }
                                ],
                                "text": "consultant"
                            }
                        ],
                        "individual": {
                            "reference": "Practitioner/94d0558e-593c-7585-5525-68541f8b1064"
                        }
                    },
                    {
                        "type": [
                            {
                                "coding": [
                                    {
                                        "code": "ADM",
                                        "system": "http://terminology.hl7.org/CodeSystem/v3-ParticipationType"
                                    }
                                ],
                                "text": "admitter"
                            }
                        ],
                        "individual": {
                            "reference": "Practitioner/b065b233-8738-f1ec-1314-d61e4aac2c9e"
                        }
                    }
                ],
                "serviceType": {
                    "coding": [
                        {
                            "code": "SUR"
                        }
                    ]
                },
                "identifier": [
                    {
                        "value": "40007716",
                        "system": "http://example.com/v2-to-fhir-converter/Identifier/HCD",
                        "assigner": {
                            "reference": "Organization/7452d91f-ae92-d8ce-5b4a-148be5b6538e"
                        },
                        "type": {
                            "coding": [
                                {
                                    "code": "VN",
                                    "system": "http://terminology.hl7.org/CodeSystem/v2-0203"
                                }
                            ],
                            "text": "visit number"
                        }
                    },
                    {
                        "value": "50",
                        "type": {
                            "coding": [
                                {
                                    "code": "MR",
                                    "system": "http://terminology.hl7.org/CodeSystem/v2-0203",
                                    "display": "Medical record number"
                                }
                            ]
                        },
                        "system": "urn:oid:1.3.6.1.4.1.44750.1.2.2",
                        "assigner": {
                            "reference": "Organization/a6c4db5e-d3be-c9a5-8f86-a1d3341211b6"
                        }
                    }
                ],
                "period": {
                    "start": "2015-02-08T15:54:19+05:30"
                },
                "text": {
                    "status": "generated",
                    "div": "<div xmlns=\"http://www.w3.org/1999/xhtml\"><p><span>Visit Description: </span></p></div>"
                },
                "account": [
                    {
                        "reference": "Account/4ad7c7d0-b69a-0653-9ea9-0979b8a66b39"
                    }
                ],
                "subject": {
                    "reference": "Patient/9e909e52-61a1-be50-1878-a12ef8c36346"
                }
            },
            "request": {
                "method": "PUT",
                "url": "Encounter/4b192760-03d2-aec4-b0a6-fde323912e1e"
            }
        },
        {
            "fullUrl": "urn:uuid:56b76cc9-d7d8-1923-0350-6b4e1a73ed2a",
            "resource": {
                "resourceType": "Organization",
                "id": "56b76cc9-d7d8-1923-0350-6b4e1a73ed2a",
                "identifier": [
                    {
                        "value": "t",
                        "system": "http://example.com/v2-to-fhir-converter/Identifier/t"
                    },
                    {
                        "value": "urn:oid:1.3.6.1.4.1.44750.1.2.2",
                        "system": "urn:ietf:rfc:3986",
                        "type": {
                            "coding": [
                                {
                                    "code": "ISO",
                                    "display": "An International Standards Organization Object Identifier (OID), in accordance with ISO/IEC 8824. Formatted as decimal digits separated by periods; recommended limit of 64 characters",
                                    "system": "http://terminology.hl7.org/CodeSystem/v2-0301"
                                }
                            ]
                        }
                    }
                ]
            },
            "request": {
                "method": "PUT",
                "url": "Organization/56b76cc9-d7d8-1923-0350-6b4e1a73ed2a"
            }
        },
        {
            "fullUrl": "urn:uuid:c1930384-4018-a75c-1bd9-d31eb400b536",
            "resource": {
                "resourceType": "Patient",
                "id": "c1930384-4018-a75c-1bd9-d31eb400b536",
                "identifier": [
                    {
                        "value": "PAT234",
                        "type": {
                            "coding": [
                                {
                                    "code": "MR",
                                    "system": "http://terminology.hl7.org/CodeSystem/v2-0203",
                                    "display": "Medical record number"
                                }
                            ]
                        },
                        "system": "http://example.com/v2-to-fhir-converter/Identifier/HCD",
                        "assigner": {
                            "reference": "Organization/b3ad3a9f-d4f6-4638-0a09-2da771733488"
                        }
                    },
                    {
                        "value": "123456789",
                        "type": {
                            "coding": [
                                {
                                    "code": "SS",
                                    "system": "http://terminology.hl7.org/CodeSystem/v2-0203",
                                    "display": "Social Security number"
                                }
                            ]
                        },
                        "system": "http://example.com/v2-to-fhir-converter/Identifier/USSSA"
                    },
                    {
                        "value": "PSSN123121234",
                        "type": {
                            "coding": [
                                {
                                    "code": "SB",
                                    "system": "http://terminology.hl7.org/CodeSystem/v2-0203"
                                }
                            ]
                        },
                        "system": "http://hl7.org/fhir/sid/us-ssn"
                    }
                ],
                "name": [
                    {
                        "family": "EVERYMAN",
                        "given": [
                            "ADAM",
                            "A",
                            "Addsm"
                        ],
                        "suffix": [
                            "III",
                            "MD",
                            "PF"
                        ],
                        "prefix": [
                            "Dr."
                        ],
                        "use": "usual",
                        "period": {
                            "start": "1924-10-12"
                        }
                    },
                    {
                        "family": "Josh",
                        "given": [
                            "stanley"
                        ],
                        "use": "official",
                        "period": {
                            "start": "1924-10-10",
                            "end": "1924-10-15"
                        }
                    }
                ],
                "birthDate": "1988-08-18",
                "_birthDate": {
                    "extension": [
                        {
                            "url": "http://hl7.org/fhir/StructureDefinition/patient-birthTime",
                            "valueDateTime": "1988-08-18T14:41:00+05:30"
                        }
                    ]
                },
                "gender": "male",
                "address": [
                    {
                        "line": [
                            "1000",
                            "Hospital Lane",
                            "Ste. 123"
                        ],
                        "city": "Ann Arbor ",
                        "state": "MI",
                        "postalCode": "99999",
                        "country": "USA",
                        "type": "postal",
                        "district": "W"
                    }
                ],
                "telecom": [
                    {
                        "value": "2222",
                        "system": "phone",
                        "period": {
                            "start": "2001-01-10",
                            "end": "2002-01-10"
                        },
                        "rank": 18,
                        "use": "home"
                    },
                    {
                        "value": "12121212",
                        "system": "phone",
                        "use": "home"
                    },
                    {
                        "value": "7777",
                        "system": "phone",
                        "use": "work"
                    },
                    {
                        "value": "1111",
                        "system": "other",
                        "use": "work"
                    },
                    {
                        "value": "89898989",
                        "use": "work",
                        "system": "email"
                    }
                ],
                "communication": [
                    {
                        "language": {
                            "coding": [
                                {
                                    "code": "ar",
                                    "display": "Arabic",
                                    "system": "urn:ietf:bcp:47",
                                    "version": "v2"
                                },
                                {
                                    "code": "en",
                                    "display": "English",
                                    "system": "urn:ietf:bcp:47",
                                    "version": "v2.1"
                                }
                            ],
                            "text": "TextInEnglish"
                        },
                        "preferred": true
                    }
                ],
                "maritalStatus": {
                    "coding": [
                        {
                            "code": "M",
                            "display": "Married",
                            "system": "http://terminology.hl7.org/CodeSystem/v3-MaritalStatus"
                        }
                    ]
                },
                "multipleBirthInteger": 2,
                "deceasedDateTime": "2008-08-25T15:31:30+05:30",
                "meta": {
                    "lastUpdated": "2005-01-10T04:05:14+05:30"
                },
                "generalPractitioner": [
                    {
                        "reference": "Organization/719266ca-c272-9569-a797-c0b3fe3b2c91"
                    }
                ],
                "extension": [
                    {
                        "url": "http://hl7.org/fhir/us/core/StructureDefinition/us-core-race",
                        "extension": [
                            {
                                "url": "ombCategory",
                                "valueCoding": {
                                    "code": "2106-3",
                                    "display": "White",
                                    "system": "urn:oid:2.16.840.1.113883.6.238"
                                }
                            },
                            {
                                "url": "ombCategory",
                                "valueCoding": {
                                    "code": "2028-9",
                                    "display": "Asian",
                                    "system": "urn:oid:2.16.840.1.113883.6.238"
                                }
                            },
                            {
                                "url": "text",
                                "valueString": "White+Asian"
                            }
                        ]
                    },
                    {
                        "url": "http://hl7.org/fhir/StructureDefinition/patient-mothersMaidenName",
                        "valueString": "SMITH--Angela--L"
                    },
                    {
                        "url": "http://hl7.org/fhir/StructureDefinition/patient-birthPlace",
                        "valueAddress": {
                            "text": "St. Francis Community Hospital of Lower South Side"
                        }
                    },
                    {
                        "url": "http://hl7.org/fhir/StructureDefinition/patient-religion",
                        "valueCodeableConcept": {
                            "coding": [
                                {
                                    "code": "1002",
                                    "display": "African Religions",
                                    "system": "http://terminology.hl7.org/CodeSystem/v3-ReligiousAffiliation"
                                }
                            ]
                        }
                    },
                    {
                        "url": "http://hl7.org/fhir/us/core/StructureDefinition/us-core-ethnicity",
                        "extension": [
                            {
                                "url": "ombCategory",
                                "valueCoding": {
                                    "code": "2186-5",
                                    "display": "Non Hispanic or Latino",
                                    "system": "urn:oid:2.16.840.1.113883.6.238"
                                }
                            },
                            {
                                "url": "text",
                                "valueString": "Non Hispanic or Latino"
                            }
                        ]
                    },
                    {
                        "url": "http://example.com/v2-to-fhir-converter/StructureDefinition/VeteranMilitaryStatus",
                        "valueCodeableConcept": {
                            "coding": [
                                {
                                    "code": "Vet123",
                                    "display": "retired",
                                    "system": "http://example.com/v2-to-fhir-converter/CodeSystem/ART"
                                }
                            ],
                            "text": "retired"
                        }
                    },
                    {
                        "url": "http://hl7.org/fhir/StructureDefinition/patient-animal",
                        "extension": [
                            {
                                "url": "species",
                                "valueCodeableConcept": {
                                    "coding": [
                                        {
                                            "code": "125097000",
                                            "display": "Goat",
                                            "system": "http://snomed.info/sct"
                                        }
                                    ],
                                    "text": "Goat"
                                }
                            },
                            {
                                "url": "breed",
                                "valueCodeableConcept": {
                                    "coding": [
                                        {
                                            "code": "4880003",
                                            "display": "Beagle",
                                            "system": "http://snomed.info/sct"
                                        }
                                    ],
                                    "text": "Beagle"
                                }
                            }
                        ]
                    },
                    {
                        "url": "http://hl7.org/fhir/StructureDefinition/patient-citizenship",
                        "extension": [
                            {
                                "url": "code",
                                "valueCodeableConcept": {
                                    "coding": [
                                        {
                                            "code": "US",
                                            "display": "United States of America",
                                            "system": "urn:iso:std:iso:3166"
                                        }
                                    ],
                                    "text": "United States of America"
                                }
                            }
                        ]
                    },
                    {
                        "url": "http://hl7.org/fhir/StructureDefinition/patient-citizenship",
                        "extension": [
                            {
                                "url": "code",
                                "valueCodeableConcept": {
                                    "coding": [
                                        {
                                            "code": "CA",
                                            "display": "Canada",
                                            "system": "urn:iso:std:iso:3166"
                                        }
                                    ],
                                    "text": "Canada"
                                }
                            }
                        ]
                    },
                    {
                        "url": "http://hl7.org/fhir/StructureDefinition/patient-congregation",
                        "valueString": "Methodist Church"
                    }
                ]
            },
            "request": {
                "method": "PUT",
                "url": "Patient/c1930384-4018-a75c-1bd9-d31eb400b536"
            }
        },
        {
            "fullUrl": "urn:uuid:c5f308ed-14b4-f76e-edf2-aec648ee7e43",
            "resource": {
                "resourceType": "Account",
                "id": "c5f308ed-14b4-f76e-edf2-aec648ee7e43",
                "identifier": [
                    {
                        "value": "4000776",
                        "type": {
                            "coding": [
                                {
                                    "code": "VN",
                                    "system": "http://terminology.hl7.org/CodeSystem/v2-0203",
                                    "display": "Visit number"
                                }
                            ]
                        },
                        "system": "urn:oid:1.3.6.1.4.1.44750.1.2.2",
                        "assigner": {
                            "reference": "Organization/816e4ec3-f5a6-5969-08c8-a71ef576263e"
                        },
                        "period": {
                            "start": "1924-10-11",
                            "end": "1924-10-12"
                        }
                    }
                ],
                "status": "entered-in-error",
                "subject": [
                    {
                        "reference": "Patient/c1930384-4018-a75c-1bd9-d31eb400b536"
                    }
                ]
            },
            "request": {
                "method": "PUT",
                "url": "Account/c5f308ed-14b4-f76e-edf2-aec648ee7e43"
            }
        },
        {
            "fullUrl": "urn:uuid:86044f29-6556-e736-a29e-1beb75a3b0ad",
            "resource": {
                "resourceType": "RelatedPerson",
                "id": "86044f29-6556-e736-a29e-1beb75a3b0ad",
                "identifier": [
                    {
                        "value": "1212121",
                        "type": {
                            "coding": [
                                {
                                    "code": "AND",
                                    "system": "http://terminology.hl7.org/CodeSystem/v2-0203",
                                    "display": "Account number debitor"
                                }
                            ]
                        },
                        "system": "http://example.com/v2-to-fhir-converter/Identifier/HCD",
                        "assigner": {
                            "reference": "Organization/f3954ae4-dec6-f114-1b9e-3a8a85d93f99"
                        },
                        "period": {
                            "start": "1924-10-11",
                            "end": "1924-10-12"
                        }
                    }
                ],
                "relationship": [
                    {
                        "coding": [
                            {
                                "code": "MTH",
                                "system": "http://terminology.hl7.org/CodeSystem/v3-RoleCode"
                            }
                        ]
                    }
                ],
                "patient": {
                    "reference": "Patient/c1930384-4018-a75c-1bd9-d31eb400b536"
                }
            },
            "request": {
                "method": "PUT",
                "url": "RelatedPerson/86044f29-6556-e736-a29e-1beb75a3b0ad"
            }
        }
    ]
}