{
    "resourceType": "Bundle",
    "type": "batch",
    "entry": [
        {
            "fullUrl": "urn:uuid:b16a925c-1df5-20f4-759b-3f4b3452b5cb",
            "resource": {
                "resourceType": "Composition",
                "id": "b16a925c-1df5-20f4-759b-3f4b3452b5cb",
                "identifier": {
                    "use": "official",
                    "value": "2.16.840.1.113883.19.5.99999.1"
                },
                "status": "final",
                "type": {
                    "coding": [
                        {
                            "code": "34117-2",
                            "display": "History and Physical Note",
                            "system": "http://loinc.org"
                        }
                    ]
                },
                "date": "2012-09-16T19:05:00-04:00",
                "title": "Community Health and Hospitals: History & Physical",
                "confidentiality": "N",
                "attester": [
                    {
                        "mode": "legal",
                        "time": "2009-02-27T13:00:00-05:00",
                        "party": {
                            "reference": "Practitioner/151bd63c-93e9-9838-dd94-f74d3b63be52"
                        }
                    }
                ],
                "section": [
                    {
                        "title": "ALLERGIES, ADVERSE REACTIONS, ALERTS",
                        "text": {
                            "status": "generated",
                            "div": "<div xmlns=\"http://www.w3.org/1999/xhtml\">ALLERGIES, ADVERSE REACTIONS, ALERTS</div>"
                        },
                        "code": {
                            "coding": [
                                {
                                    "code": "48765-2",
                                    "system": "http://loinc.org"
                                }
                            ]
                        },
                        "mode": "snapshot"
                    },
                    {
                        "title": "ASSESSMENT",
                        "text": {
                            "status": "generated",
                            "div": "<div xmlns=\"http://www.w3.org/1999/xhtml\">ASSESSMENT</div>"
                        },
                        "code": {
                            "coding": [
                                {
                                    "code": "51848-0",
                                    "display": "ASSESSMENT",
                                    "system": "http://loinc.org"
                                }
                            ]
                        },
                        "mode": "snapshot"
                    },
                    {
                        "title": "REASON FOR VISIT/CHIEF COMPLAINT",
                        "text": {
                            "status": "generated",
                            "div": "<div xmlns=\"http://www.w3.org/1999/xhtml\">REASON FOR VISIT/CHIEF COMPLAINT</div>"
                        },
                        "code": {
                            "coding": [
                                {
                                    "code": "46239-0",
                                    "display": "REASON FOR VISIT + CHIEF COMPLAINT",
                                    "system": "http://loinc.org"
                                }
                            ]
                        },
                        "mode": "snapshot"
                    },
                    {
                        "title": "FAMILY HISTORY",
                        "text": {
                            "status": "generated",
                            "div": "<div xmlns=\"http://www.w3.org/1999/xhtml\">FAMILY HISTORY</div>"
                        },
                        "code": {
                            "coding": [
                                {
                                    "code": "10157-6",
                                    "system": "http://loinc.org"
                                }
                            ]
                        },
                        "mode": "snapshot"
                    },
                    {
                        "title": "GENERAL STATUS",
                        "text": {
                            "status": "generated",
                            "div": "<div xmlns=\"http://www.w3.org/1999/xhtml\">GENERAL STATUS</div>"
                        },
                        "code": {
                            "coding": [
                                {
                                    "code": "10210-3",
                                    "display": "GENERAL STATUS",
                                    "system": "http://loinc.org"
                                }
                            ]
                        },
                        "mode": "snapshot"
                    },
                    {
                        "title": "PAST MEDICAL HISTORY",
                        "text": {
                            "status": "generated",
                            "div": "<div xmlns=\"http://www.w3.org/1999/xhtml\">PAST MEDICAL HISTORY</div>"
                        },
                        "code": {
                            "coding": [
                                {
                                    "code": "11348-0",
                                    "display": "HISTORY OF PAST ILLNESS",
                                    "system": "http://loinc.org"
                                }
                            ]
                        },
                        "mode": "snapshot"
                    },
                    {
                        "title": "HISTORY OF PRESENT ILLNESS",
                        "text": {
                            "status": "generated",
                            "div": "<div xmlns=\"http://www.w3.org/1999/xhtml\">HISTORY OF PRESENT ILLNESS</div>"
                        },
                        "code": {
                            "coding": [
                                {
                                    "code": "10164-2",
                                    "display": "HISTORY OF PRESENT ILLNESS",
                                    "system": "http://loinc.org"
                                }
                            ]
                        },
                        "mode": "snapshot"
                    },
                    {
                        "title": "IMMUNIZATIONS",
                        "text": {
                            "status": "generated",
                            "div": "<div xmlns=\"http://www.w3.org/1999/xhtml\">IMMUNIZATIONS</div>"
                        },
                        "code": {
                            "coding": [
                                {
                                    "code": "11369-6",
                                    "display": "History of immunizations",
                                    "system": "http://loinc.org"
                                }
                            ]
                        },
                        "mode": "snapshot"
                    },
                    {
                        "title": "MEDICATIONS",
                        "text": {
                            "status": "generated",
                            "div": "<div xmlns=\"http://www.w3.org/1999/xhtml\">MEDICATIONS</div>"
                        },
                        "code": {
                            "coding": [
                                {
                                    "code": "10160-0",
                                    "display": "HISTORY OF MEDICATION USE",
                                    "system": "http://loinc.org"
                                }
                            ]
                        },
                        "mode": "snapshot"
                    },
                    {
                        "title": "PHYSICAL EXAMINATION",
                        "text": {
                            "status": "generated",
                            "div": "<div xmlns=\"http://www.w3.org/1999/xhtml\">PHYSICAL EXAMINATION</div>"
                        },
                        "code": {
                            "coding": [
                                {
                                    "code": "29545-1",
                                    "display": "PHYSICAL FINDINGS",
                                    "system": "http://loinc.org"
                                }
                            ]
                        },
                        "mode": "snapshot"
                    },
                    {
                        "title": "PLAN OF CARE",
                        "text": {
                            "status": "generated",
                            "div": "<div xmlns=\"http://www.w3.org/1999/xhtml\">PLAN OF CARE</div>"
                        },
                        "code": {
                            "coding": [
                                {
                                    "code": "18776-5",
                                    "display": "Treatment plan",
                                    "system": "http://loinc.org"
                                }
                            ]
                        },
                        "mode": "snapshot"
                    },
                    {
                        "title": "PROBLEMS",
                        "text": {
                            "status": "generated",
                            "div": "<div xmlns=\"http://www.w3.org/1999/xhtml\">PROBLEMS</div>"
                        },
                        "code": {
                            "coding": [
                                {
                                    "code": "11450-4",
                                    "display": "PROBLEM LIST",
                                    "system": "http://loinc.org"
                                }
                            ]
                        },
                        "mode": "snapshot"
                    },
                    {
                        "title": "PROCEDURES",
                        "text": {
                            "status": "generated",
                            "div": "<div xmlns=\"http://www.w3.org/1999/xhtml\">PROCEDURES</div>"
                        },
                        "code": {
                            "coding": [
                                {
                                    "code": "47519-4",
                                    "display": "HISTORY OF PROCEDURES",
                                    "system": "http://loinc.org"
                                }
                            ]
                        },
                        "mode": "snapshot"
                    },
                    {
                        "title": "RESULTS",
                        "text": {
                            "status": "generated",
                            "div": "<div xmlns=\"http://www.w3.org/1999/xhtml\">RESULTS</div>"
                        },
                        "code": {
                            "coding": [
                                {
                                    "code": "30954-2",
                                    "display": "RESULTS",
                                    "system": "http://loinc.org"
                                }
                            ]
                        },
                        "mode": "snapshot"
                    },
                    {
                        "title": "REVIEW OF SYSTEMS",
                        "text": {
                            "status": "generated",
                            "div": "<div xmlns=\"http://www.w3.org/1999/xhtml\">REVIEW OF SYSTEMS</div>"
                        },
                        "code": {
                            "coding": [
                                {
                                    "code": "10187-3",
                                    "display": "REVIEW OF SYSTEMS",
                                    "system": "http://loinc.org"
                                }
                            ]
                        },
                        "mode": "snapshot"
                    },
                    {
                        "title": "SOCIAL HISTORY",
                        "text": {
                            "status": "generated",
                            "div": "<div xmlns=\"http://www.w3.org/1999/xhtml\">SOCIAL HISTORY</div>"
                        },
                        "code": {
                            "coding": [
                                {
                                    "code": "29762-2",
                                    "display": "Social History",
                                    "system": "http://loinc.org"
                                }
                            ]
                        },
                        "mode": "snapshot"
                    },
                    {
                        "title": "VITAL SIGNS",
                        "text": {
                            "status": "generated",
                            "div": "<div xmlns=\"http://www.w3.org/1999/xhtml\">VITAL SIGNS</div>"
                        },
                        "code": {
                            "coding": [
                                {
                                    "code": "8716-3",
                                    "display": "VITAL SIGNS",
                                    "system": "http://loinc.org"
                                }
                            ]
                        },
                        "mode": "snapshot"
                    }
                ],
                "subject": {
                    "reference": "Patient/5510eaa6-2ad2-b82b-248b-aba749e28fa1"
                },
                "encounter": {
                    "reference": "Encounter/786d8ce8-8ab9-f2f3-9418-aa9de43e7f79"
                },
                "custodian": {
                    "reference": "Organization/ccf335f7-e962-e711-c0ac-aca0f1f41b74"
                },
                "author": [
                    {
                        "reference": "Practitioner/b818f780-0177-affe-d9d2-2aefb7adeee2"
                    }
                ]
            },
            "request": {
                "method": "PUT",
                "url": "Composition/b16a925c-1df5-20f4-759b-3f4b3452b5cb"
            }
        },
        {
            "fullUrl": "urn:uuid:151bd63c-93e9-9838-dd94-f74d3b63be52",
            "resource": {
                "resourceType": "Practitioner",
                "id": "151bd63c-93e9-9838-dd94-f74d3b63be52",
                "meta": {
                    "profile": [
                        "http://hl7.org/fhir/us/core/StructureDefinition/us-core-practitioner"
                    ]
                },
                "identifier": [
                    {
                        "system": "http://hl7.org/fhir/sid/us-npi",
                        "value": "999999999"
                    }
                ],
                "name": [
                    {
                        "family": "Seven",
                        "given": [
                            "Henry"
                        ]
                    }
                ],
                "address": [
                    {
                        "line": [
                            "1001 Village Avenue"
                        ],
                        "city": "Portland",
                        "state": "OR",
                        "country": "US",
                        "postalCode": "99123"
                    }
                ],
                "telecom": [
                    {
                        "system": "phone",
                        "value": "555-555-1002",
                        "use": "work"
                    }
                ]
            },
            "request": {
                "method": "PUT",
                "url": "Practitioner/151bd63c-93e9-9838-dd94-f74d3b63be52"
            }
        },
        {
            "fullUrl": "urn:uuid:786d8ce8-8ab9-f2f3-9418-aa9de43e7f79",
            "resource": {
                "resourceType": "Encounter",
                "id": "786d8ce8-8ab9-f2f3-9418-aa9de43e7f79",
                "status": "unknown",
                "class": {
                    "code": "99213",
                    "display": "Evaluation and Management",
                    "system": "http://www.ama-assn.org/go/cpt"
                },
                "identifier": [
                    {
                        "system": "urn:oid:2.16.840.1.113883.19",
                        "value": "9937012"
                    }
                ],
                "period": {
                    "start": "2009-02-27T13:00:00-05:00",
                    "end": "2009-02-27T13:00:00-05:00"
                },
                "location": [
                    {
                        "location": {
                            "reference": "Location/6dfdc7c6-e225-71eb-cec1-75870e529061"
                        }
                    }
                ]
            },
            "request": {
                "method": "PUT",
                "url": "Encounter/786d8ce8-8ab9-f2f3-9418-aa9de43e7f79"
            }
        },
        {
            "fullUrl": "urn:uuid:6dfdc7c6-e225-71eb-cec1-75870e529061",
            "resource": {
                "resourceType": "Location",
                "id": "6dfdc7c6-e225-71eb-cec1-75870e529061"
            },
            "request": {
                "method": "PUT",
                "url": "Location/6dfdc7c6-e225-71eb-cec1-75870e529061"
            }
        },
        {
            "fullUrl": "urn:uuid:ccf335f7-e962-e711-c0ac-aca0f1f41b74",
            "resource": {
                "resourceType": "Organization",
                "id": "ccf335f7-e962-e711-c0ac-aca0f1f41b74",
                "identifier": [
                    {
                        "system": "http://hl7.org/fhir/sid/us-npi",
                        "value": "99999999"
                    }
                ],
                "name": "Community Health and Hospitals",
                "address": [
                    {
                        "use": "work",
                        "line": [
                            "1002 Healthcare Drive "
                        ],
                        "city": "Portland",
                        "state": "OR",
                        "country": "US",
                        "postalCode": "99123"
                    }
                ],
                "telecom": [
                    {
                        "system": "phone",
                        "value": "555-555-1002",
                        "use": "work"
                    }
                ]
            },
            "request": {
                "method": "PUT",
                "url": "Organization/ccf335f7-e962-e711-c0ac-aca0f1f41b74"
            }
        },
        {
            "fullUrl": "urn:uuid:b818f780-0177-affe-d9d2-2aefb7adeee2",
            "resource": {
                "resourceType": "Practitioner",
                "id": "b818f780-0177-affe-d9d2-2aefb7adeee2",
                "meta": {
                    "profile": [
                        "http://hl7.org/fhir/us/core/StructureDefinition/us-core-practitioner"
                    ]
                },
                "identifier": [
                    {
                        "system": "http://hl7.org/fhir/sid/us-npi",
                        "value": "99999999"
                    }
                ],
                "name": [
                    {
                        "family": "Seven",
                        "given": [
                            "Henry"
                        ]
                    }
                ],
                "address": [
                    {
                        "line": [
                            "1002 Healthcare Drive "
                        ],
                        "city": "Portland",
                        "state": "OR",
                        "country": "US",
                        "postalCode": "99123"
                    }
                ],
                "telecom": [
                    {
                        "system": "phone",
                        "value": "555-555-1002",
                        "use": "work"
                    }
                ],
                "qualification": [
                    {
                        "code": {
                            "coding": [
                                {
                                    "code": "200000000X",
                                    "display": "Allopathic & Osteopathic Physicians",
                                    "system": "http://nucc.org/provider-taxonomy"
                                }
                            ]
                        }
                    }
                ]
            },
            "request": {
                "method": "PUT",
                "url": "Practitioner/b818f780-0177-affe-d9d2-2aefb7adeee2"
            }
        },
        {
            "fullUrl": "urn:uuid:5510eaa6-2ad2-b82b-248b-aba749e28fa1",
            "resource": {
                "resourceType": "Patient",
                "id": "5510eaa6-2ad2-b82b-248b-aba749e28fa1",
                "meta": {
                    "profile": [
                        "http://hl7.org/fhir/us/core/StructureDefinition/us-core-patient"
                    ]
                },
                "identifier": [
                    {
                        "system": "urn:oid:2.16.840.1.113883.19.5.99999.2",
                        "value": "998991"
                    },
                    {
                        "system": "http://hl7.org/fhir/sid/us-ssn",
                        "value": "111-00-2330"
                    }
                ],
                "name": [
                    {
                        "use": "usual",
                        "family": "Jones",
                        "given": [
                            "Isabella",
                            "Isa"
                        ]
                    }
                ],
                "birthDate": "2005-05-01",
                "gender": "female",
                "extension": [
                    {
                        "url": "http://hl7.org/fhir/us/core/StructureDefinition/us-core-race",
                        "extension": [
                            {
                                "url": "detailed",
                                "valueCoding": {
                                    "code": "1966-1",
                                    "display": "Aleut"
                                }
                            },
                            {
                                "url": "text",
                                "valueString": "Aleut"
                            }
                        ]
                    },
                    {
                        "url": "http://hl7.org/fhir/us/core/StructureDefinition/us-core-ethnicity",
                        "extension": [
                            {
                                "url": "ombCategory",
                                "valueCoding": {
                                    "code": "2186-5",
                                    "display": "Not Hispanic or Latino"
                                }
                            },
                            {
                                "url": "text",
                                "valueString": "Not Hispanic or Latino"
                            }
                        ]
                    }
                ],
                "address": [
                    {
                        "use": "home",
                        "line": [
                            "1357 Amber Drive"
                        ],
                        "city": "Beaverton",
                        "state": "OR",
                        "country": "US",
                        "postalCode": "97867"
                    }
                ],
                "telecom": [
                    {
                        "system": "phone",
                        "value": "(816)276-6909",
                        "use": "home"
                    }
                ],
                "communication": [
                    {
                        "language": {
                            "coding": [
                                {
                                    "system": "urn:ietf:bcp:47",
                                    "code": "en",
                                    "display": "English"
                                }
                            ]
                        },
                        "preferred": true
                    }
                ]
            },
            "request": {
                "method": "PUT",
                "url": "Patient/5510eaa6-2ad2-b82b-248b-aba749e28fa1"
            }
        },
        {
            "fullUrl": "urn:uuid:ee674bd9-634f-7bfb-de2e-510f1248a374",
            "resource": {
                "resourceType": "RelatedPerson",
                "id": "ee674bd9-634f-7bfb-de2e-510f1248a374",
                "relationship": [
                    {
                        "coding": [
                            {
                                "code": "GRPRN",
                                "display": "Grandparent",
                                "system": "urn:oid:2.16.840.1.113883.5.111"
                            }
                        ]
                    }
                ],
                "name": [
                    {
                        "family": "Jones",
                        "given": [
                            "Ralph"
                        ]
                    }
                ],
                "telecom": [
                    {
                        "system": "phone",
                        "value": "(816)276-6909",
                        "use": "home"
                    }
                ],
                "address": [
                    {
                        "use": "home",
                        "line": [
                            "1357 Amber Drive"
                        ],
                        "city": "Beaverton",
                        "state": "OR",
                        "country": "US",
                        "postalCode": "97867"
                    }
                ],
                "patient": {
                    "reference": "Patient/5510eaa6-2ad2-b82b-248b-aba749e28fa1"
                }
            },
            "request": {
                "method": "PUT",
                "url": "RelatedPerson/ee674bd9-634f-7bfb-de2e-510f1248a374"
            }
        },
        {
            "fullUrl": "urn:uuid:50ccb6ac-dfb5-e450-492d-59897da92127",
            "resource": {
                "resourceType": "FamilyMemberHistory",
                "id": "50ccb6ac-dfb5-e450-492d-59897da92127",
                "identifier": [
                    {
                        "system": "urn:ietf:rfc:3986",
                        "value": "urn:uuid:9123aedf-5315-4c3a-aeef-1e98319cc6b5"
                    }
                ],
                "status": "completed",
                "relationship": {
                    "coding": [
                        {
                            "code": "9947008",
                            "display": "Biological father",
                            "system": "http://snomed.info/sct"
                        }
                    ]
                },
                "sex": {
                    "coding": [
                        {
                            "code": "M",
                            "display": "Male",
                            "system": "urn:oid:2.16.840.1.113883.5.1"
                        }
                    ]
                },
                "bornString": "1910",
                "condition": [
                    {
                        "code": {
                            "coding": [
                                {
                                    "code": "22298006",
                                    "display": "Myocardial infarction",
                                    "system": "http://snomed.info/sct"
                                }
                            ]
                        },
                        "contributedToDeath": true,
                        "onsetAge": {
                            "value": 57,
                            "system": "http://unitsofmeasure.org",
                            "code": "a"
                        }
                    },
                    {
                        "code": {
                            "coding": [
                                {
                                    "code": "46635009",
                                    "display": "Diabetes mellitus type 1",
                                    "system": "http://snomed.info/sct"
                                }
                            ]
                        },
                        "contributedToDeath": true,
                        "onsetAge": {
                            "value": 40,
                            "system": "http://unitsofmeasure.org",
                            "code": "a"
                        }
                    }
                ],
                "patient": {
                    "reference": "Patient/5510eaa6-2ad2-b82b-248b-aba749e28fa1"
                }
            },
            "request": {
                "method": "PUT",
                "url": "FamilyMemberHistory/50ccb6ac-dfb5-e450-492d-59897da92127"
            }
        },
        {
            "fullUrl": "urn:uuid:7fb981b6-d4b7-2688-c7a7-4bb629844a3a",
            "resource": {
                "resourceType": "MedicationStatement",
                "id": "7fb981b6-d4b7-2688-c7a7-4bb629844a3a",
                "identifier": [
                    {
                        "system": "urn:ietf:rfc:3986",
                        "value": "urn:uuid:cdbd33f0-6cde-11db-9fe1-0800200c9a66"
                    }
                ],
                "dosage": [
                    {
                        "doseAndRate": [
                            {
                                "doseQuantity": {
                                    "value": 1,
                                    "unit": "mg/actuat"
                                }
                            }
                        ]
                    }
                ],
                "subject": {
                    "reference": "Patient/5510eaa6-2ad2-b82b-248b-aba749e28fa1"
                },
                "medicationReference": {
                    "reference": "Medication/917b88e2-d186-dfbd-12c1-0e096f2f105d"
                }
            },
            "request": {
                "method": "PUT",
                "url": "MedicationStatement/7fb981b6-d4b7-2688-c7a7-4bb629844a3a"
            }
        },
        {
            "fullUrl": "urn:uuid:917b88e2-d186-dfbd-12c1-0e096f2f105d",
            "resource": {
                "resourceType": "Medication",
                "id": "917b88e2-d186-dfbd-12c1-0e096f2f105d",
                "code": {
                    "coding": [
                        {
                            "code": "573621",
                            "display": "Proventil 0.09 MG/ACTUAT inhalant solution",
                            "system": "http://www.nlm.nih.gov/research/umls/rxnorm"
                        }
                    ]
                }
            },
            "request": {
                "method": "PUT",
                "url": "Medication/917b88e2-d186-dfbd-12c1-0e096f2f105d"
            }
        },
        {
            "fullUrl": "urn:uuid:be809b86-cc24-5e4d-be31-4ccaec2b2b31",
            "resource": {
                "resourceType": "MedicationRequest",
                "id": "be809b86-cc24-5e4d-be31-4ccaec2b2b31",
                "intent": "order",
                "status": "completed",
                "subject": {
                    "reference": "Patient/5510eaa6-2ad2-b82b-248b-aba749e28fa1"
                },
                "medicationReference": {
                    "reference": "Medication/917b88e2-d186-dfbd-12c1-0e096f2f105d"
                },
                "requester": {
                    "reference": "Practitioner/029fabd5-fdc5-c9c6-fbf1-0ede210c2410"
                }
            },
            "request": {
                "method": "PUT",
                "url": "MedicationRequest/be809b86-cc24-5e4d-be31-4ccaec2b2b31"
            }
        },
        {
            "fullUrl": "urn:uuid:029fabd5-fdc5-c9c6-fbf1-0ede210c2410",
            "resource": {
                "resourceType": "Practitioner",
                "id": "029fabd5-fdc5-c9c6-fbf1-0ede210c2410",
                "meta": {
                    "profile": [
                        "http://hl7.org/fhir/us/core/StructureDefinition/us-core-practitioner"
                    ]
                },
                "identifier": [
                    {
                        "system": "urn:ietf:rfc:3986",
                        "value": "urn:uuid:2a620155-9d11-439e-92b3-5d9815fe4de8"
                    }
                ],
                "name": [
                    {
                        "family": "Seven",
                        "given": [
                            "Henry"
                        ],
                        "prefix": [
                            "Dr."
                        ]
                    }
                ]
            },
            "request": {
                "method": "PUT",
                "url": "Practitioner/029fabd5-fdc5-c9c6-fbf1-0ede210c2410"
            }
        },
        {
            "fullUrl": "urn:uuid:cca5f885-584d-d6e2-8a2b-5cea177bf04d",
            "resource": {
                "resourceType": "MedicationRequest",
                "id": "cca5f885-584d-d6e2-8a2b-5cea177bf04d",
                "identifier": [
                    {
                        "system": "urn:oid:1.2.3.4.56789.1",
                        "value": "cb734647-fc99-424c-a864-7e3cda82e704"
                    }
                ],
                "intent": "order",
                "status": "completed",
                "subject": {
                    "reference": "Patient/5510eaa6-2ad2-b82b-248b-aba749e28fa1"
                },
                "medicationReference": {
                    "reference": "Medication/917b88e2-d186-dfbd-12c1-0e096f2f105d"
                }
            },
            "request": {
                "method": "PUT",
                "url": "MedicationRequest/cca5f885-584d-d6e2-8a2b-5cea177bf04d"
            }
        },
        {
            "fullUrl": "urn:uuid:b5dc3327-d0b0-cf0c-13a3-27bae542448a",
            "resource": {
                "resourceType": "DiagnosticReport",
                "id": "b5dc3327-d0b0-cf0c-13a3-27bae542448a",
                "identifier": [
                    {
                        "system": "urn:ietf:rfc:3986",
                        "value": "urn:uuid:7d5a02b0-67a4-11db-bd13-0800200c9a66"
                    }
                ],
                "status": "final",
                "code": {
                    "coding": [
                        {
                            "code": "43789009",
                            "display": "CBC WO DIFFERENTIAL",
                            "system": "http://snomed.info/sct"
                        }
                    ]
                },
                "subject": {
                    "reference": "Patient/5510eaa6-2ad2-b82b-248b-aba749e28fa1"
                },
                "result": [
                    {
                        "reference": "Observation/628c88e9-b821-4ba9-6ff8-f872e5485b83"
                    },
                    {
                        "reference": "Observation/3795fd3b-410a-950e-0f29-c94f9aef7f86"
                    },
                    {
                        "reference": "Observation/4f7a2f4c-c628-f7e5-fb5a-4f8c1ba3d1a7"
                    }
                ]
            },
            "request": {
                "method": "PUT",
                "url": "DiagnosticReport/b5dc3327-d0b0-cf0c-13a3-27bae542448a"
            }
        },
        {
            "fullUrl": "urn:uuid:628c88e9-b821-4ba9-6ff8-f872e5485b83",
            "resource": {
                "resourceType": "Observation",
                "id": "628c88e9-b821-4ba9-6ff8-f872e5485b83",
                "meta": {
                    "profile": [
                        "http://hl7.org/fhir/us/core/StructureDefinition/us-core-observationresults"
                    ]
                },
                "identifier": [
                    {
                        "system": "urn:ietf:rfc:3986",
                        "value": "urn:uuid:107c2dc0-67a5-11db-bd13-0800200c9a66"
                    }
                ],
                "category": [
                    {
                        "coding": [
                            {
                                "system": "http://terminology.hl7.org/CodeSystem/observation-category",
                                "code": "laboratory"
                            }
                        ]
                    }
                ],
                "status": "final",
                "code": {
                    "coding": [
                        {
                            "code": "30313-1",
                            "display": "HGB",
                            "system": "http://loinc.org"
                        }
                    ]
                },
                "effectiveDateTime": "2000-03-23T14:30:00-05:00",
                "valueQuantity": {
                    "value": 13.2,
                    "unit": "g/dl"
                },
                "referenceRange": [
                    {
                        "low": {
                            "value": 12.0,
                            "unit": "g/dl"
                        },
                        "high": {
                            "value": 15.5,
                            "unit": "g/dl"
                        }
                    }
                ],
                "interpretation": [
                    {
                        "coding": [
                            {
                                "code": "N",
                                "system": "http://terminology.hl7.org/CodeSystem/v3-ObservationInterpretation"
                            }
                        ]
                    }
                ],
                "subject": {
                    "reference": "Patient/5510eaa6-2ad2-b82b-248b-aba749e28fa1"
                },
                "performer": [
                    {
                        "reference": "Practitioner/d369ddaf-25f4-4cf0-811d-f3b27e5c7d47"
                    }
                ]
            },
            "request": {
                "method": "PUT",
                "url": "Observation/628c88e9-b821-4ba9-6ff8-f872e5485b83"
            }
        },
        {
            "fullUrl": "urn:uuid:d369ddaf-25f4-4cf0-811d-f3b27e5c7d47",
            "resource": {
                "resourceType": "Practitioner",
                "id": "d369ddaf-25f4-4cf0-811d-f3b27e5c7d47",
                "meta": {
                    "profile": [
                        "http://hl7.org/fhir/us/core/StructureDefinition/us-core-practitioner"
                    ]
                },
                "identifier": [
                    {
                        "system": "urn:ietf:rfc:3986",
                        "value": "urn:uuid:2a620155-9d11-439e-92b3-5d9816ff4de8"
                    }
                ]
            },
            "request": {
                "method": "PUT",
                "url": "Practitioner/d369ddaf-25f4-4cf0-811d-f3b27e5c7d47"
            }
        },
        {
            "fullUrl": "urn:uuid:3795fd3b-410a-950e-0f29-c94f9aef7f86",
            "resource": {
                "resourceType": "Observation",
                "id": "3795fd3b-410a-950e-0f29-c94f9aef7f86",
                "meta": {
                    "profile": [
                        "http://hl7.org/fhir/us/core/StructureDefinition/us-core-observationresults"
                    ]
                },
                "identifier": [
                    {
                        "system": "urn:ietf:rfc:3986",
                        "value": "urn:uuid:107c2dc0-67a5-11db-bd13-0800200c9a66"
                    }
                ],
                "category": [
                    {
                        "coding": [
                            {
                                "system": "http://terminology.hl7.org/CodeSystem/observation-category",
                                "code": "laboratory"
                            }
                        ]
                    }
                ],
                "status": "final",
                "code": {
                    "coding": [
                        {
                            "code": "33765-9",
                            "display": "WBC",
                            "system": "http://loinc.org"
                        }
                    ]
                },
                "effectiveDateTime": "2000-03-23T14:30:00-05:00",
                "valueQuantity": {
                    "value": 6.7,
                    "unit": "10+3/ul"
                },
                "referenceRange": [
                    {
                        "low": {
                            "value": 4.3,
                            "unit": "10+3/ul"
                        },
                        "high": {
                            "value": 10.8,
                            "unit": "10+3/ul"
                        }
                    }
                ],
                "interpretation": [
                    {
                        "coding": [
                            {
                                "code": "N",
                                "system": "http://terminology.hl7.org/CodeSystem/v3-ObservationInterpretation"
                            }
                        ]
                    }
                ],
                "subject": {
                    "reference": "Patient/5510eaa6-2ad2-b82b-248b-aba749e28fa1"
                },
                "performer": [
                    {
                        "reference": "Practitioner/3aa24f02-894c-60d9-b26e-d22b084abe55"
                    }
                ]
            },
            "request": {
                "method": "PUT",
                "url": "Observation/3795fd3b-410a-950e-0f29-c94f9aef7f86"
            }
        },
        {
            "fullUrl": "urn:uuid:3aa24f02-894c-60d9-b26e-d22b084abe55",
            "resource": {
                "resourceType": "Practitioner",
                "id": "3aa24f02-894c-60d9-b26e-d22b084abe55",
                "meta": {
                    "profile": [
                        "http://hl7.org/fhir/us/core/StructureDefinition/us-core-practitioner"
                    ]
                },
                "identifier": [
                    {
                        "system": "urn:ietf:rfc:3986",
                        "value": "urn:uuid:2a620154-9d11-439e-92b3-5d9815ff4de8"
                    }
                ]
            },
            "request": {
                "method": "PUT",
                "url": "Practitioner/3aa24f02-894c-60d9-b26e-d22b084abe55"
            }
        },
        {
            "fullUrl": "urn:uuid:4f7a2f4c-c628-f7e5-fb5a-4f8c1ba3d1a7",
            "resource": {
                "resourceType": "Observation",
                "id": "4f7a2f4c-c628-f7e5-fb5a-4f8c1ba3d1a7",
                "meta": {
                    "profile": [
                        "http://hl7.org/fhir/us/core/StructureDefinition/us-core-observationresults"
                    ]
                },
                "identifier": [
                    {
                        "system": "urn:ietf:rfc:3986",
                        "value": "urn:uuid:107c2dc0-67a5-11db-bd13-0800200c9a66"
                    }
                ],
                "category": [
                    {
                        "coding": [
                            {
                                "system": "http://terminology.hl7.org/CodeSystem/observation-category",
                                "code": "laboratory"
                            }
                        ]
                    }
                ],
                "status": "final",
                "code": {
                    "coding": [
                        {
                            "code": "26515-7",
                            "display": "PLT",
                            "system": "http://loinc.org"
                        }
                    ]
                },
                "effectiveDateTime": "2000-03-23T14:30:00-05:00",
                "valueQuantity": {
                    "value": 123,
                    "unit": "10+3/ul"
                },
                "referenceRange": [
                    {
                        "low": {
                            "value": 150,
                            "unit": "10+3/ul"
                        },
                        "high": {
                            "value": 350,
                            "unit": "10+3/ul"
                        }
                    }
                ],
                "interpretation": [
                    {
                        "coding": [
                            {
                                "code": "L",
                                "system": "http://terminology.hl7.org/CodeSystem/v3-ObservationInterpretation"
                            }
                        ]
                    }
                ],
                "subject": {
                    "reference": "Patient/5510eaa6-2ad2-b82b-248b-aba749e28fa1"
                },
                "performer": [
                    {
                        "reference": "Practitioner/88770970-88b9-01ef-5e74-0eba777f4fef"
                    }
                ]
            },
            "request": {
                "method": "PUT",
                "url": "Observation/4f7a2f4c-c628-f7e5-fb5a-4f8c1ba3d1a7"
            }
        },
        {
            "fullUrl": "urn:uuid:88770970-88b9-01ef-5e74-0eba777f4fef",
            "resource": {
                "resourceType": "Practitioner",
                "id": "88770970-88b9-01ef-5e74-0eba777f4fef",
                "meta": {
                    "profile": [
                        "http://hl7.org/fhir/us/core/StructureDefinition/us-core-practitioner"
                    ]
                },
                "identifier": [
                    {
                        "system": "urn:ietf:rfc:3986",
                        "value": "urn:uuid:2a620155-9d11-439e-92b3-5d9815ff4de8"
                    }
                ]
            },
            "request": {
                "method": "PUT",
                "url": "Practitioner/88770970-88b9-01ef-5e74-0eba777f4fef"
            }
        },
        {
            "fullUrl": "urn:uuid:347929cc-6c18-a140-7974-e9d22b6e9001",
            "resource": {
                "resourceType": "Observation",
                "id": "347929cc-6c18-a140-7974-e9d22b6e9001",
                "meta": {
                    "profile": [
                        "http://hl7.org/fhir/us/core/StructureDefinition/us-core-observationresults"
                    ]
                },
                "identifier": [
                    {
                        "system": "urn:oid:2.16.840.1.113883.19",
                        "value": "123456789"
                    }
                ],
                "category": [
                    {
                        "coding": [
                            {
                                "system": "http://terminology.hl7.org/CodeSystem/observation-category",
                                "code": "social-history"
                            }
                        ]
                    }
                ],
                "status": "final",
                "code": {
                    "coding": [
                        {
                            "code": "72166-2",
                            "display": "Tobacco smoking status NHIS",
                            "system": "http://loinc.org"
                        }
                    ]
                },
                "effectiveDateTime": "2012-09-10",
                "valueCodeableConcept": {
                    "coding": [
                        {
                            "code": "8517006",
                            "display": "Former smoker",
                            "system": "http://snomed.info/sct"
                        }
                    ]
                },
                "subject": {
                    "reference": "Patient/5510eaa6-2ad2-b82b-248b-aba749e28fa1"
                }
            },
            "request": {
                "method": "PUT",
                "url": "Observation/347929cc-6c18-a140-7974-e9d22b6e9001"
            }
        },
        {
            "fullUrl": "urn:uuid:ec28957d-3dea-cfaf-036f-53d1c32407ed",
            "resource": {
                "resourceType": "Observation",
                "id": "ec28957d-3dea-cfaf-036f-53d1c32407ed",
                "meta": {
                    "profile": [
                        "http://hl7.org/fhir/us/core/StructureDefinition/us-core-observationresults"
                    ]
                },
                "identifier": [
                    {
                        "system": "urn:ietf:rfc:3986",
                        "value": "urn:uuid:9b56c25d-9104-45ee-9fa4-e0f3afaa01c1"
                    }
                ],
                "category": [
                    {
                        "coding": [
                            {
                                "system": "http://terminology.hl7.org/CodeSystem/observation-category",
                                "code": "social-history"
                            }
                        ]
                    }
                ],
                "status": "final",
                "code": {
                    "coding": [
                        {
                            "code": "10159-2",
                            "display": "History of industrial exposure",
                            "system": "http://loinc.org"
                        }
                    ]
                },
                "effectivePeriod": {
                    "start": "2005-05-01",
                    "end": "2010-04-30"
                },
                "valueString": "5 years of working with asbestos",
                "subject": {
                    "reference": "Patient/5510eaa6-2ad2-b82b-248b-aba749e28fa1"
                }
            },
            "request": {
                "method": "PUT",
                "url": "Observation/ec28957d-3dea-cfaf-036f-53d1c32407ed"
            }
        },
        {
            "fullUrl": "urn:uuid:1b3c27aa-d600-8c76-3098-b1c402b86b59",
            "resource": {
                "resourceType": "Observation",
                "id": "1b3c27aa-d600-8c76-3098-b1c402b86b59",
                "meta": {
                    "profile": [
                        "http://hl7.org/fhir/us/core/StructureDefinition/us-core-observationresults"
                    ]
                },
                "identifier": [
                    {
                        "system": "urn:ietf:rfc:3986",
                        "value": "urn:uuid:37f76c51-6411-4e1d-8a37-957fd49d2cef"
                    }
                ],
                "category": [
                    {
                        "coding": [
                            {
                                "system": "http://terminology.hl7.org/CodeSystem/observation-category",
                                "code": "social-history"
                            }
                        ]
                    }
                ],
                "status": "final",
                "code": {
                    "coding": [
                        {
                            "code": "74013-4",
                            "display": "Alcoholic drinks per day",
                            "system": "http://loinc.org"
                        }
                    ]
                },
                "effectivePeriod": {
                    "start": "2005-05-01"
                },
                "valueQuantity": {
                    "value": 0
                },
                "subject": {
                    "reference": "Patient/5510eaa6-2ad2-b82b-248b-aba749e28fa1"
                }
            },
            "request": {
                "method": "PUT",
                "url": "Observation/1b3c27aa-d600-8c76-3098-b1c402b86b59"
            }
        },
        {
            "fullUrl": "urn:uuid:3f5add5f-3034-3456-7cc8-fa9c5a03a5a7",
            "resource": {
                "resourceType": "Observation",
                "id": "3f5add5f-3034-3456-7cc8-fa9c5a03a5a7",
                "meta": {
                    "profile": [
                        "http://hl7.org/fhir/us/core/StructureDefinition/us-core-observationresults"
                    ]
                },
                "identifier": [
                    {
                        "system": "urn:ietf:rfc:3986",
                        "value": "urn:uuid:c6f88321-67ad-11db-bd13-0800200c9a66"
                    }
                ],
                "category": [
                    {
                        "coding": [
                            {
                                "system": "http://terminology.hl7.org/CodeSystem/observation-category",
                                "code": "vital-signs"
                            }
                        ]
                    }
                ],
                "status": "final",
                "code": {
                    "coding": [
                        {
                            "code": "8302-2",
                            "display": "Height",
                            "system": "http://loinc.org"
                        }
                    ]
                },
                "effectiveDateTime": "1999-11-14",
                "valueQuantity": {
                    "value": 177,
                    "unit": "cm"
                },
                "interpretation": [
                    {
                        "coding": [
                            {
                                "code": "N",
                                "system": "http://terminology.hl7.org/CodeSystem/v3-ObservationInterpretation"
                            }
                        ]
                    }
                ],
                "subject": {
                    "reference": "Patient/5510eaa6-2ad2-b82b-248b-aba749e28fa1"
                }
            },
            "request": {
                "method": "PUT",
                "url": "Observation/3f5add5f-3034-3456-7cc8-fa9c5a03a5a7"
            }
        },
        {
            "fullUrl": "urn:uuid:c7e85da9-7f6b-5844-99c3-a4c662ac3af1",
            "resource": {
                "resourceType": "Observation",
                "id": "c7e85da9-7f6b-5844-99c3-a4c662ac3af1",
                "meta": {
                    "profile": [
                        "http://hl7.org/fhir/us/core/StructureDefinition/us-core-observationresults"
                    ]
                },
                "identifier": [
                    {
                        "system": "urn:ietf:rfc:3986",
                        "value": "urn:uuid:c6f88321-67ad-11db-bd13-0800200c9a66"
                    }
                ],
                "category": [
                    {
                        "coding": [
                            {
                                "system": "http://terminology.hl7.org/CodeSystem/observation-category",
                                "code": "vital-signs"
                            }
                        ]
                    }
                ],
                "status": "final",
                "code": {
                    "coding": [
                        {
                            "code": "3141-9",
                            "display": "Patient Body Weight - Measured",
                            "system": "http://loinc.org"
                        }
                    ]
                },
                "effectiveDateTime": "1999-11-14",
                "valueQuantity": {
                    "value": 86,
                    "unit": "kg"
                },
                "interpretation": [
                    {
                        "coding": [
                            {
                                "code": "N",
                                "system": "http://terminology.hl7.org/CodeSystem/v3-ObservationInterpretation"
                            }
                        ]
                    }
                ],
                "subject": {
                    "reference": "Patient/5510eaa6-2ad2-b82b-248b-aba749e28fa1"
                }
            },
            "request": {
                "method": "PUT",
                "url": "Observation/c7e85da9-7f6b-5844-99c3-a4c662ac3af1"
            }
        },
        {
            "fullUrl": "urn:uuid:85b1a1ce-87a0-0a0c-deab-29026ab2a852",
            "resource": {
                "resourceType": "Observation",
                "id": "85b1a1ce-87a0-0a0c-deab-29026ab2a852",
                "meta": {
                    "profile": [
                        "http://hl7.org/fhir/us/core/StructureDefinition/us-core-observationresults"
                    ]
                },
                "identifier": [
                    {
                        "system": "urn:ietf:rfc:3986",
                        "value": "urn:uuid:c6f88321-67ad-11db-bd13-0800200c9a66"
                    }
                ],
                "category": [
                    {
                        "coding": [
                            {
                                "system": "http://terminology.hl7.org/CodeSystem/observation-category",
                                "code": "vital-signs"
                            }
                        ]
                    }
                ],
                "status": "final",
                "code": {
                    "coding": [
                        {
                            "code": "8480-6",
                            "display": "Intravascular Systolic",
                            "system": "http://loinc.org"
                        }
                    ]
                },
                "effectiveDateTime": "1999-11-14",
                "valueQuantity": {
                    "value": 132,
                    "unit": "mm[Hg]"
                },
                "interpretation": [
                    {
                        "coding": [
                            {
                                "code": "N",
                                "system": "http://terminology.hl7.org/CodeSystem/v3-ObservationInterpretation"
                            }
                        ]
                    }
                ],
                "subject": {
                    "reference": "Patient/5510eaa6-2ad2-b82b-248b-aba749e28fa1"
                }
            },
            "request": {
                "method": "PUT",
                "url": "Observation/85b1a1ce-87a0-0a0c-deab-29026ab2a852"
            }
        },
        {
            "fullUrl": "urn:uuid:1fe8a2f7-2057-362e-5f3c-785d5cf39300",
            "resource": {
                "resourceType": "Observation",
                "id": "1fe8a2f7-2057-362e-5f3c-785d5cf39300",
                "meta": {
                    "profile": [
                        "http://hl7.org/fhir/us/core/StructureDefinition/us-core-observationresults"
                    ]
                },
                "identifier": [
                    {
                        "system": "urn:ietf:rfc:3986",
                        "value": "urn:uuid:c6f88321-67ad-11db-bd13-0800200c9a66"
                    }
                ],
                "category": [
                    {
                        "coding": [
                            {
                                "system": "http://terminology.hl7.org/CodeSystem/observation-category",
                                "code": "vital-signs"
                            }
                        ]
                    }
                ],
                "status": "final",
                "code": {
                    "coding": [
                        {
                            "code": "8302-2",
                            "display": "Height",
                            "system": "http://loinc.org"
                        }
                    ]
                },
                "effectiveDateTime": "2000-04-07",
                "valueQuantity": {
                    "value": 177,
                    "unit": "cm"
                },
                "interpretation": [
                    {
                        "coding": [
                            {
                                "code": "N",
                                "system": "http://terminology.hl7.org/CodeSystem/v3-ObservationInterpretation"
                            }
                        ]
                    }
                ],
                "subject": {
                    "reference": "Patient/5510eaa6-2ad2-b82b-248b-aba749e28fa1"
                }
            },
            "request": {
                "method": "PUT",
                "url": "Observation/1fe8a2f7-2057-362e-5f3c-785d5cf39300"
            }
        },
        {
            "fullUrl": "urn:uuid:04cfe0e0-91a1-9c33-775c-13a0187bc884",
            "resource": {
                "resourceType": "Observation",
                "id": "04cfe0e0-91a1-9c33-775c-13a0187bc884",
                "meta": {
                    "profile": [
                        "http://hl7.org/fhir/us/core/StructureDefinition/us-core-observationresults"
                    ]
                },
                "identifier": [
                    {
                        "system": "urn:ietf:rfc:3986",
                        "value": "urn:uuid:c6f88321-67ad-11db-bd13-0800200c9a66"
                    }
                ],
                "category": [
                    {
                        "coding": [
                            {
                                "system": "http://terminology.hl7.org/CodeSystem/observation-category",
                                "code": "vital-signs"
                            }
                        ]
                    }
                ],
                "status": "final",
                "code": {
                    "coding": [
                        {
                            "code": "3141-9",
                            "display": "Patient Body Weight - Measured",
                            "system": "http://loinc.org"
                        }
                    ]
                },
                "effectiveDateTime": "2000-04-07",
                "valueQuantity": {
                    "value": 88,
                    "unit": "kg"
                },
                "interpretation": [
                    {
                        "coding": [
                            {
                                "code": "N",
                                "system": "http://terminology.hl7.org/CodeSystem/v3-ObservationInterpretation"
                            }
                        ]
                    }
                ],
                "subject": {
                    "reference": "Patient/5510eaa6-2ad2-b82b-248b-aba749e28fa1"
                }
            },
            "request": {
                "method": "PUT",
                "url": "Observation/04cfe0e0-91a1-9c33-775c-13a0187bc884"
            }
        },
        {
            "fullUrl": "urn:uuid:de0e62ec-48a6-67a4-2aad-d8e9825aaf64",
            "resource": {
                "resourceType": "Observation",
                "id": "de0e62ec-48a6-67a4-2aad-d8e9825aaf64",
                "meta": {
                    "profile": [
                        "http://hl7.org/fhir/us/core/StructureDefinition/us-core-observationresults"
                    ]
                },
                "identifier": [
                    {
                        "system": "urn:ietf:rfc:3986",
                        "value": "urn:uuid:c6f88321-67ad-11db-bd13-0800200c9a66"
                    }
                ],
                "category": [
                    {
                        "coding": [
                            {
                                "system": "http://terminology.hl7.org/CodeSystem/observation-category",
                                "code": "vital-signs"
                            }
                        ]
                    }
                ],
                "status": "final",
                "code": {
                    "coding": [
                        {
                            "code": "8480-6",
                            "display": "Intravascular Systolic",
                            "system": "http://loinc.org"
                        }
                    ]
                },
                "effectiveDateTime": "2000-04-07",
                "valueQuantity": {
                    "value": 145,
                    "unit": "mm[Hg]"
                },
                "interpretation": [
                    {
                        "coding": [
                            {
                                "code": "N",
                                "system": "http://terminology.hl7.org/CodeSystem/v3-ObservationInterpretation"
                            }
                        ]
                    }
                ],
                "subject": {
                    "reference": "Patient/5510eaa6-2ad2-b82b-248b-aba749e28fa1"
                }
            },
            "request": {
                "method": "PUT",
                "url": "Observation/de0e62ec-48a6-67a4-2aad-d8e9825aaf64"
            }
        },
        {
            "fullUrl": "urn:uuid:f4e5c26e-5cac-15c5-9f52-7ea5419ec3e5",
            "resource": {
                "resourceType": "Immunization",
                "id": "f4e5c26e-5cac-15c5-9f52-7ea5419ec3e5",
                "identifier": [
                    {
                        "system": "urn:ietf:rfc:3986",
                        "value": "urn:uuid:e6f1ba43-c0ed-4b9b-9f12-f435d8ad8f92"
                    }
                ],
                "occurrenceDateTime": "1999-11",
                "vaccineCode": {
                    "coding": [
                        {
                            "code": "111",
                            "display": "influenza, live, intranasal",
                            "system": "urn:oid:2.16.840.1.113883.12.292"
                        }
                    ]
                },
                "status": "completed",
                "route": {
                    "coding": [
                        {
                            "code": "C28161",
                            "display": "Intramuscular injection",
                            "system": "urn:oid:2.16.840.1.113883.3.26.1.1"
                        }
                    ]
                },
                "patient": {
                    "reference": "Patient/5510eaa6-2ad2-b82b-248b-aba749e28fa1"
                }
            },
            "request": {
                "method": "PUT",
                "url": "Immunization/f4e5c26e-5cac-15c5-9f52-7ea5419ec3e5"
            }
        },
        {
            "fullUrl": "urn:uuid:f700a092-ee1a-2c30-d48f-cf372d1fb888",
            "resource": {
                "resourceType": "Immunization",
                "id": "f700a092-ee1a-2c30-d48f-cf372d1fb888",
                "identifier": [
                    {
                        "system": "urn:ietf:rfc:3986",
                        "value": "urn:uuid:e6f1ba43-c0ed-4b9b-9f12-f435d8ad8f92"
                    }
                ],
                "occurrenceDateTime": "1998-12-15",
                "vaccineCode": {
                    "coding": [
                        {
                            "code": "111",
                            "display": "influenza, live, intranasal",
                            "system": "urn:oid:2.16.840.1.113883.12.292"
                        }
                    ]
                },
                "status": "completed",
                "route": {
                    "coding": [
                        {
                            "code": "C28161",
                            "display": "Intramuscular injection",
                            "system": "urn:oid:2.16.840.1.113883.3.26.1.1"
                        }
                    ]
                },
                "patient": {
                    "reference": "Patient/5510eaa6-2ad2-b82b-248b-aba749e28fa1"
                }
            },
            "request": {
                "method": "PUT",
                "url": "Immunization/f700a092-ee1a-2c30-d48f-cf372d1fb888"
            }
        },
        {
            "fullUrl": "urn:uuid:7503716e-e3da-74bd-c592-f128ea622eed",
            "resource": {
                "resourceType": "Immunization",
                "id": "7503716e-e3da-74bd-c592-f128ea622eed",
                "identifier": [
                    {
                        "system": "urn:ietf:rfc:3986",
                        "value": "urn:uuid:e6f1ba43-c0ed-4b9b-9f12-f435d8ad8f92"
                    }
                ],
                "occurrenceDateTime": "1998-12-15",
                "vaccineCode": {
                    "coding": [
                        {
                            "code": "109",
                            "display": "Pneumococcal NOS",
                            "system": "urn:oid:2.16.840.1.113883.12.292"
                        }
                    ]
                },
                "status": "completed",
                "route": {
                    "coding": [
                        {
                            "code": "C28161",
                            "display": "Intramuscular injection",
                            "system": "urn:oid:2.16.840.1.113883.3.26.1.1"
                        }
                    ]
                },
                "patient": {
                    "reference": "Patient/5510eaa6-2ad2-b82b-248b-aba749e28fa1"
                }
            },
            "request": {
                "method": "PUT",
                "url": "Immunization/7503716e-e3da-74bd-c592-f128ea622eed"
            }
        },
        {
            "fullUrl": "urn:uuid:f2d67ba2-76a9-c4cc-0423-22dd9c5900b2",
            "resource": {
                "resourceType": "Immunization",
                "id": "f2d67ba2-76a9-c4cc-0423-22dd9c5900b2",
                "identifier": [
                    {
                        "system": "urn:ietf:rfc:3986",
                        "value": "urn:uuid:e6f1ba43-c0ed-4b9b-9f12-f435d8ad8f92"
                    }
                ],
                "statusReason": {
                    "coding": [
                        {
                            "code": "PATOBJ",
                            "display": "Patient Objection",
                            "system": "urn:oid:2.16.840.1.113883.5.8"
                        }
                    ]
                },
                "occurrenceDateTime": "1998-12-15",
                "vaccineCode": {
                    "coding": [
                        {
                            "code": "09",
                            "display": "Tetanus and diphtheria toxoids - preservative free",
                            "system": "urn:oid:2.16.840.1.113883.12.292"
                        }
                    ]
                },
                "status": "completed",
                "route": {
                    "coding": [
                        {
                            "code": "C28161",
                            "display": "Intramuscular injection",
                            "system": "urn:oid:2.16.840.1.113883.3.26.1.1"
                        }
                    ]
                },
                "patient": {
                    "reference": "Patient/5510eaa6-2ad2-b82b-248b-aba749e28fa1"
                }
            },
            "request": {
                "method": "PUT",
                "url": "Immunization/f2d67ba2-76a9-c4cc-0423-22dd9c5900b2"
            }
        },
        {
            "fullUrl": "urn:uuid:a26689c1-bf4b-80ec-0931-d8f421e65ef1",
            "resource": {
                "resourceType": "Condition",
                "id": "a26689c1-bf4b-80ec-0931-d8f421e65ef1",
                "identifier": [
                    {
                        "system": "urn:ietf:rfc:3986",
                        "value": "urn:uuid:ab1791b0-5c71-11db-b0de-0800200c9a66"
                    }
                ],
                "clinicalStatus": {
                    "coding": [
                        {
                            "code": "81323004",
                            "display": "Alive and well",
                            "system": "http://snomed.info/sct"
                        }
                    ]
                },
                "code": {
                    "coding": [
                        {
                            "code": "233604007",
                            "display": "Pneumonia",
                            "system": "http://snomed.info/sct"
                        }
                    ]
                },
                "onsetDateTime": "2008-01-03",
                "subject": {
                    "reference": "Patient/5510eaa6-2ad2-b82b-248b-aba749e28fa1"
                }
            },
            "request": {
                "method": "PUT",
                "url": "Condition/a26689c1-bf4b-80ec-0931-d8f421e65ef1"
            }
        },
        {
            "fullUrl": "urn:uuid:5c019092-be27-b962-e711-c21af8d4f512",
            "resource": {
                "resourceType": "Condition",
                "id": "5c019092-be27-b962-e711-c21af8d4f512",
                "identifier": [
                    {
                        "system": "urn:ietf:rfc:3986",
                        "value": "urn:uuid:ab1791b0-5c71-11db-b0de-0800200c9a66"
                    }
                ],
                "clinicalStatus": {
                    "coding": [
                        {
                            "code": "81323004",
                            "display": "Alive and well",
                            "system": "http://snomed.info/sct"
                        }
                    ]
                },
                "code": {
                    "coding": [
                        {
                            "code": "195967001",
                            "display": "Asthma",
                            "system": "http://snomed.info/sct"
                        }
                    ]
                },
                "onsetDateTime": "2007-01-03",
                "subject": {
                    "reference": "Patient/5510eaa6-2ad2-b82b-248b-aba749e28fa1"
                }
            },
            "request": {
                "method": "PUT",
                "url": "Condition/5c019092-be27-b962-e711-c21af8d4f512"
            }
        },
        {
            "fullUrl": "urn:uuid:aa657309-acf9-c57d-157d-f126fe108fc9",
            "resource": {
                "resourceType": "DocumentReference",
                "id": "aa657309-acf9-c57d-157d-f126fe108fc9",
                "type": {
                    "coding": [
                        {
                            "code": "34117-2",
                            "display": "History and Physical Note",
                            "system": "http://loinc.org"
                        }
                    ]
                },
                "date": "2022-03-25T13:31:59.224Z",
                "status": "current",
                "content": [
                    {
                        "attachment": {
                            "contentType": "text/plain",
                            "data": "",
                            "hash": "ZmU2NzA5ZjNhYTcwODNhOGVmZmI0MjlkNTk4YTY5NWExMjFjZjZhMg=="
                        }
                    }
                ]
            },
            "request": {
                "method": "PUT",
                "url": "DocumentReference/aa657309-acf9-c57d-157d-f126fe108fc9"
            }
        }
    ]
}