{
    "resourceType": "Bundle",
    "type": "batch",
    "timestamp": "2014-10-06T09:31:00+07:00",
    "identifier": {
        "value": "ControlID"
    },
    "id": "1621d98e-0f06-6ff5-bfed-87e7a90a41b6",
    "entry": [
        {
            "fullUrl": "urn:uuid:8a62d0c6-ec77-772d-6d1b-de679fc4ce2a",
            "resource": {
                "resourceType": "MessageHeader",
                "id": "8a62d0c6-ec77-772d-6d1b-de679fc4ce2a",
                "source": {
                    "name": "SomeSystem",
                    "_endpoint": {
                        "extension": [
                            {
                                "url": "http://hl7.org/fhir/StructureDefinition/data-absent-reason",
                                "valueCode": "unknown"
                            }
                        ]
                    }
                },
                "destination": [
                    {
                        "name": "TransformationAgent",
                        "_endpoint": {
                            "extension": [
                                {
                                    "url": "http://hl7.org/fhir/StructureDefinition/data-absent-reason",
                                    "valueCode": "unknown"
                                }
                            ]
                        }
                    }
                ],
                "meta": {
                    "tag": [
                        {
                            "code": "T",
                            "system": "http://terminology.hl7.org/CodeSystem/v2-0103"
                        }
                    ]
                },
                "eventCoding": {
                    "code": "R01",
                    "system": "http://terminology.hl7.org/CodeSystem/v2-0003",
                    "display": "ORU^R01"
                },
                "language": "EN"
            },
            "request": {
                "method": "PUT",
                "url": "MessageHeader/8a62d0c6-ec77-772d-6d1b-de679fc4ce2a"
            }
        },
        {
            "fullUrl": "urn:uuid:9f79a1ce-a1d5-c6dd-a0d6-3bc75109716c",
            "resource": {
                "resourceType": "Provenance",
                "id": "9f79a1ce-a1d5-c6dd-a0d6-3bc75109716c",
                "text": {
                    "status": "generated",
                    "div": "<div xmlns=\"http://www.w3.org/1999/xhtml\"><p><span>Resource bundle generated on 2022-03-25T12:54:28.235Z using Microsoft FHIR Converter.</span><span>Template Version: TEMPLATE_VERSION_PLACEHOLDER.</span><span>Template URL: https://github.com/microsoft/FHIR-Converter/releases/download/vTEMPLATE_VERSION_PLACEHOLDER/Hl7v2DefaultTemplates.tar.gz.</span><span>Root template: ORU_R01.</span></p></div>"
                },
                "occurredDateTime": "2014-10-06T09:31:00+07:00",
                "recorded": "2014-10-06T09:31:00+07:00",
                "agent": [
                    {
                        "type": {
                            "coding": [
                                {
                                    "code": "author",
                                    "system": "http://terminology.hl7.org/CodeSystem/provenance-participant-type"
                                }
                            ]
                        }
                    }
                ],
                "activity": {
                    "coding": [
                        {
                            "display": "ORU^R01^"
                        }
                    ]
                },
                "target": [
                    {
                        "reference": "Bundle/1621d98e-0f06-6ff5-bfed-87e7a90a41b6"
                    }
                ]
            },
            "request": {
                "method": "PUT",
                "url": "Provenance/9f79a1ce-a1d5-c6dd-a0d6-3bc75109716c"
            }
        },
        {
            "fullUrl": "urn:uuid:bab5ca58-f272-4c06-4b3f-f9661e45a22b",
            "resource": {
                "resourceType": "Patient",
                "id": "bab5ca58-f272-4c06-4b3f-f9661e45a22b",
                "identifier": [
                    {
                        "value": "10006579",
                        "type": {
                            "coding": [
                                {
                                    "code": "MR",
                                    "system": "http://terminology.hl7.org/CodeSystem/v2-0203",
                                    "display": "Medical record number"
                                }
                            ]
                        },
                        "system": "http://example.com/v2-to-fhir-converter/Identifier/1"
                    },
                    {
                        "value": "123121234",
                        "type": {
                            "coding": [
                                {
                                    "code": "SB",
                                    "system": "http://terminology.hl7.org/CodeSystem/v2-0203"
                                }
                            ]
                        },
                        "system": "http://hl7.org/fhir/sid/us-ssn"
                    }
                ],
                "name": [
                    {
                        "family": "DUCK",
                        "given": [
                            "DONALD",
                            "D"
                        ]
                    }
                ],
                "birthDate": "1924-10-10",
                "gender": "male",
                "address": [
                    {
                        "line": [
                            "111 DUCK ST"
                        ],
                        "city": "FOWL",
                        "state": "CA",
                        "postalCode": "999990000",
                        "type": "postal"
                    },
                    {
                        "district": "1"
                    }
                ],
                "telecom": [
                    {
                        "value": "8885551212",
                        "use": "home"
                    },
                    {
                        "value": "8885551212",
                        "use": "work"
                    }
                ],
                "communication": [
                    {
                        "language": {
                            "coding": [
                                {
                                    "code": "1",
                                    "display": "1"
                                }
                            ]
                        },
                        "preferred": true
                    }
                ],
                "maritalStatus": {
                    "coding": [
                        {
                            "code": "2",
                            "display": "2"
                        }
                    ]
                },
                "deceasedBoolean": false,
                "extension": [
                    {
                        "url": "http://hl7.org/fhir/us/core/StructureDefinition/us-core-race",
                        "extension": [
                            {
                                "url": "ombCategory",
                                "valueCoding": {
                                    "code": "1",
                                    "display": "1"
                                }
                            },
                            {
                                "url": "text",
                                "valueString": "1"
                            }
                        ]
                    }
                ]
            },
            "request": {
                "method": "PUT",
                "url": "Patient/bab5ca58-f272-4c06-4b3f-f9661e45a22b"
            }
        },
        {
            "fullUrl": "urn:uuid:58bd65b3-7fe0-55cf-19e9-b3cfbc026fbf",
            "resource": {
                "resourceType": "Account",
                "id": "58bd65b3-7fe0-55cf-19e9-b3cfbc026fbf",
                "identifier": [
                    {
                        "value": "40007716",
                        "type": {
                            "coding": [
                                {
                                    "code": "VN",
                                    "system": "http://terminology.hl7.org/CodeSystem/v2-0203",
                                    "display": "Visit number"
                                }
                            ]
                        },
                        "system": "http://example.com/v2-to-fhir-converter/Identifier/AccMgr"
                    }
                ],
                "status": "active",
                "subject": [
                    {
                        "reference": "Patient/bab5ca58-f272-4c06-4b3f-f9661e45a22b"
                    }
                ]
            },
            "request": {
                "method": "PUT",
                "url": "Account/58bd65b3-7fe0-55cf-19e9-b3cfbc026fbf"
            }
        },
        {
            "fullUrl": "urn:uuid:fcb0ce93-fb28-c321-936d-1cc79020e4da",
            "resource": {
                "resourceType": "Observation",
                "id": "fcb0ce93-fb28-c321-936d-1cc79020e4da",
                "status": "final",
                "code": {
                    "coding": [
                        {
                            "code": "30180-4",
                            "display": "BASOPHILS/100 LEUKOCYTES",
                            "system": "http://loinc.org"
                        }
                    ]
                },
                "valueQuantity": {
                    "value": 0,
                    "unit": "%"
                },
                "effectiveDateTime": "2014-10-06T08:30:00+07:00",
                "interpretation": [
                    {
                        "coding": [
                            {
                                "code": "N",
                                "display": "Normal",
                                "system": "http://terminology.hl7.org/CodeSystem/v3-ObservationInterpretation"
                            }
                        ]
                    }
                ],
                "subject": {
                    "reference": "Patient/bab5ca58-f272-4c06-4b3f-f9661e45a22b"
                },
                "extension": [
                    {
                        "url": "http://example.com/v2-to-fhir-converter/Observation_Status",
                        "valueCodeableConcept": {
                            "coding": [
                                {
                                    "code": "F",
                                    "display": "Final",
                                    "system": "http://terminology.hl7.org/CodeSystem/v2-0085"
                                }
                            ],
                            "text": "Final"
                        }
                    }
                ],
                "basedOn": [
                    {
                        "reference": "ServiceRequest/425b6ad3-9304-3f7b-2771-0aa0dcd954ca"
                    }
                ]
            },
            "request": {
                "method": "PUT",
                "url": "Observation/fcb0ce93-fb28-c321-936d-1cc79020e4da"
            }
        },
        {
            "fullUrl": "urn:uuid:e87231eb-1f13-37e5-9297-32ce9dc2d5d9",
            "resource": {
                "resourceType": "Observation",
                "id": "e87231eb-1f13-37e5-9297-32ce9dc2d5d9",
                "status": "final",
                "code": {
                    "coding": [
                        {
                            "code": "23761-0",
                            "display": "NEUTROPHILS/100 LEUKOCYTES",
                            "system": "http://loinc.org"
                        }
                    ]
                },
                "valueQuantity": {
                    "value": 72,
                    "unit": "%"
                },
                "effectiveDateTime": "2014-10-06T08:30:00+07:00",
                "interpretation": [
                    {
                        "coding": [
                            {
                                "code": "N",
                                "display": "Normal",
                                "system": "http://terminology.hl7.org/CodeSystem/v3-ObservationInterpretation"
                            }
                        ]
                    }
                ],
                "subject": {
                    "reference": "Patient/bab5ca58-f272-4c06-4b3f-f9661e45a22b"
                },
                "extension": [
                    {
                        "url": "http://example.com/v2-to-fhir-converter/Observation_Status",
                        "valueCodeableConcept": {
                            "coding": [
                                {
                                    "code": "F",
                                    "display": "Final",
                                    "system": "http://terminology.hl7.org/CodeSystem/v2-0085"
                                }
                            ],
                            "text": "Final"
                        }
                    }
                ],
                "basedOn": [
                    {
                        "reference": "ServiceRequest/425b6ad3-9304-3f7b-2771-0aa0dcd954ca"
                    }
                ]
            },
            "request": {
                "method": "PUT",
                "url": "Observation/e87231eb-1f13-37e5-9297-32ce9dc2d5d9"
            }
        },
        {
            "fullUrl": "urn:uuid:ef0f5cf4-01c3-8670-776b-9e6693b39f5d",
            "resource": {
                "resourceType": "Observation",
                "id": "ef0f5cf4-01c3-8670-776b-9e6693b39f5d",
                "status": "final",
                "code": {
                    "coding": [
                        {
                            "code": "26450-7",
                            "display": "EOSINOPHILS/100 LEUKOCYTES",
                            "system": "http://loinc.org"
                        }
                    ]
                },
                "valueQuantity": {
                    "value": 2,
                    "unit": "%"
                },
                "effectiveDateTime": "2014-10-06T08:30:00+07:00",
                "interpretation": [
                    {
                        "coding": [
                            {
                                "code": "N",
                                "display": "Normal",
                                "system": "http://terminology.hl7.org/CodeSystem/v3-ObservationInterpretation"
                            }
                        ]
                    }
                ],
                "subject": {
                    "reference": "Patient/bab5ca58-f272-4c06-4b3f-f9661e45a22b"
                },
                "extension": [
                    {
                        "url": "http://example.com/v2-to-fhir-converter/Observation_Status",
                        "valueCodeableConcept": {
                            "coding": [
                                {
                                    "code": "F",
                                    "display": "Final",
                                    "system": "http://terminology.hl7.org/CodeSystem/v2-0085"
                                }
                            ],
                            "text": "Final"
                        }
                    }
                ],
                "basedOn": [
                    {
                        "reference": "ServiceRequest/425b6ad3-9304-3f7b-2771-0aa0dcd954ca"
                    }
                ]
            },
            "request": {
                "method": "PUT",
                "url": "Observation/ef0f5cf4-01c3-8670-776b-9e6693b39f5d"
            }
        },
        {
            "fullUrl": "urn:uuid:af2c78a0-663d-7294-3da0-dd8db5bc0074",
            "resource": {
                "resourceType": "Observation",
                "id": "af2c78a0-663d-7294-3da0-dd8db5bc0074",
                "status": "final",
                "code": {
                    "coding": [
                        {
                            "code": "26478-8",
                            "display": "LYMPHOCYTES/100 LEUKOCYTES",
                            "system": "http://loinc.org"
                        }
                    ]
                },
                "valueQuantity": {
                    "value": 20,
                    "unit": "%"
                },
                "effectiveDateTime": "2014-10-06T08:30:00+07:00",
                "interpretation": [
                    {
                        "coding": [
                            {
                                "code": "N",
                                "display": "Normal",
                                "system": "http://terminology.hl7.org/CodeSystem/v3-ObservationInterpretation"
                            }
                        ]
                    }
                ],
                "subject": {
                    "reference": "Patient/bab5ca58-f272-4c06-4b3f-f9661e45a22b"
                },
                "extension": [
                    {
                        "url": "http://example.com/v2-to-fhir-converter/Observation_Status",
                        "valueCodeableConcept": {
                            "coding": [
                                {
                                    "code": "F",
                                    "display": "Final",
                                    "system": "http://terminology.hl7.org/CodeSystem/v2-0085"
                                }
                            ],
                            "text": "Final"
                        }
                    }
                ],
                "basedOn": [
                    {
                        "reference": "ServiceRequest/425b6ad3-9304-3f7b-2771-0aa0dcd954ca"
                    }
                ]
            },
            "request": {
                "method": "PUT",
                "url": "Observation/af2c78a0-663d-7294-3da0-dd8db5bc0074"
            }
        },
        {
            "fullUrl": "urn:uuid:2233e061-6852-d459-cc4e-262a07efd408",
            "resource": {
                "resourceType": "Observation",
                "id": "2233e061-6852-d459-cc4e-262a07efd408",
                "status": "final",
                "code": {
                    "coding": [
                        {
                            "code": "26485-3",
                            "display": "MONOCYTES/100 LEUKOCYTES",
                            "system": "http://loinc.org"
                        }
                    ]
                },
                "valueQuantity": {
                    "value": 6,
                    "unit": "%"
                },
                "effectiveDateTime": "2014-10-06T08:30:00+07:00",
                "interpretation": [
                    {
                        "coding": [
                            {
                                "code": "N",
                                "display": "Normal",
                                "system": "http://terminology.hl7.org/CodeSystem/v3-ObservationInterpretation"
                            }
                        ]
                    }
                ],
                "subject": {
                    "reference": "Patient/bab5ca58-f272-4c06-4b3f-f9661e45a22b"
                },
                "extension": [
                    {
                        "url": "http://example.com/v2-to-fhir-converter/Observation_Status",
                        "valueCodeableConcept": {
                            "coding": [
                                {
                                    "code": "F",
                                    "display": "Final",
                                    "system": "http://terminology.hl7.org/CodeSystem/v2-0085"
                                }
                            ],
                            "text": "Final"
                        }
                    }
                ],
                "basedOn": [
                    {
                        "reference": "ServiceRequest/425b6ad3-9304-3f7b-2771-0aa0dcd954ca"
                    }
                ]
            },
            "request": {
                "method": "PUT",
                "url": "Observation/2233e061-6852-d459-cc4e-262a07efd408"
            }
        },
        {
            "fullUrl": "urn:uuid:425b6ad3-9304-3f7b-2771-0aa0dcd954ca",
            "resource": {
                "resourceType": "ServiceRequest",
                "id": "425b6ad3-9304-3f7b-2771-0aa0dcd954ca",
                "status": "active",
                "intent": "filler-order",
                "identifier": [
                    {
                        "value": "855238581",
                        "type": {
                            "coding": [
                                {
                                    "code": "PLAC",
                                    "system": "http://terminology.hl7.org/CodeSystem/v2-0203"
                                }
                            ]
                        }
                    },
                    {
                        "value": "890775544",
                        "type": {
                            "coding": [
                                {
                                    "code": "FILL",
                                    "system": "http://terminology.hl7.org/CodeSystem/v2-0203"
                                }
                            ]
                        }
                    }
                ],
                "code": {
                    "coding": [
                        {
                            "code": "26464-8",
                            "display": "Differential WBC Count, buffy coat",
                            "system": "http://loinc.org"
                        }
                    ]
                },
                "subject": {
                    "reference": "Patient/bab5ca58-f272-4c06-4b3f-f9661e45a22b"
                },
                "requester": {
                    "reference": "PractitionerRole/907170a0-a8af-89c5-5a30-6b78cdb227c5"
                },
                "specimen": [
                    {
                        "reference": "Specimen/3644f3d2-3b43-9382-c98b-b9f6b77e5295"
                    }
                ]
            },
            "request": {
                "method": "PUT",
                "url": "ServiceRequest/425b6ad3-9304-3f7b-2771-0aa0dcd954ca"
            }
        },
        {
            "fullUrl": "urn:uuid:15decf11-00dc-6867-9c35-ffd79977d5b9",
            "resource": {
                "resourceType": "Practitioner",
                "id": "15decf11-00dc-6867-9c35-ffd79977d5b9",
                "name": [
                    {
                        "family": "URO",
                        "prefix": [
                            "DR"
                        ]
                    }
                ]
            },
            "request": {
                "method": "PUT",
                "url": "Practitioner/15decf11-00dc-6867-9c35-ffd79977d5b9"
            }
        },
        {
            "fullUrl": "urn:uuid:907170a0-a8af-89c5-5a30-6b78cdb227c5",
            "resource": {
                "resourceType": "PractitionerRole",
                "id": "907170a0-a8af-89c5-5a30-6b78cdb227c5",
                "code": [
                    {
                        "coding": [
                            {
                                "code": "OP",
                                "display": "Ordering Provider",
                                "system": "http://terminology.hl7.org/CodeSystem/v2-0443"
                            }
                        ]
                    }
                ],
                "practitioner": {
                    "reference": "Practitioner/15decf11-00dc-6867-9c35-ffd79977d5b9"
                }
            },
            "request": {
                "method": "PUT",
                "url": "PractitionerRole/907170a0-a8af-89c5-5a30-6b78cdb227c5"
            }
        },
        {
            "fullUrl": "urn:uuid:5ed89514-c68e-db01-9339-9576de3c485a",
            "resource": {
                "resourceType": "DiagnosticReport",
                "id": "5ed89514-c68e-db01-9339-9576de3c485a",
                "identifier": [
                    {
                        "value": "855238581",
                        "type": {
                            "coding": [
                                {
                                    "code": "PLAC",
                                    "system": "http://terminology.hl7.org/CodeSystem/v2-0203"
                                }
                            ]
                        }
                    },
                    {
                        "value": "890775544",
                        "type": {
                            "coding": [
                                {
                                    "code": "FILL",
                                    "system": "http://terminology.hl7.org/CodeSystem/v2-0203"
                                }
                            ]
                        }
                    }
                ],
                "code": {
                    "coding": [
                        {
                            "code": "26464-8",
                            "display": "Differential WBC Count, buffy coat",
                            "system": "http://loinc.org"
                        }
                    ]
                },
                "status": "unknown",
                "subject": {
                    "reference": "Patient/bab5ca58-f272-4c06-4b3f-f9661e45a22b"
                },
                "basedOn": [
                    {
                        "reference": "ServiceRequest/425b6ad3-9304-3f7b-2771-0aa0dcd954ca"
                    }
                ],
                "specimen": [
                    {
                        "reference": "Specimen/3644f3d2-3b43-9382-c98b-b9f6b77e5295"
                    }
                ],
                "result": [
                    {
                        "reference": "Observation/fcb0ce93-fb28-c321-936d-1cc79020e4da"
                    },
                    {
                        "reference": "Observation/e87231eb-1f13-37e5-9297-32ce9dc2d5d9"
                    },
                    {
                        "reference": "Observation/ef0f5cf4-01c3-8670-776b-9e6693b39f5d"
                    },
                    {
                        "reference": "Observation/af2c78a0-663d-7294-3da0-dd8db5bc0074"
                    },
                    {
                        "reference": "Observation/2233e061-6852-d459-cc4e-262a07efd408"
                    }
                ]
            },
            "request": {
                "method": "PUT",
                "url": "DiagnosticReport/5ed89514-c68e-db01-9339-9576de3c485a"
            }
        },
        {
            "fullUrl": "urn:uuid:3644f3d2-3b43-9382-c98b-b9f6b77e5295",
            "resource": {
                "resourceType": "Specimen",
                "id": "3644f3d2-3b43-9382-c98b-b9f6b77e5295",
                "identifier": [
                    {
                        "value": "855238581",
                        "type": {
                            "coding": [
                                {
                                    "code": "PLAC",
                                    "system": "http://terminology.hl7.org/CodeSystem/v2-0203"
                                }
                            ]
                        }
                    },
                    {
                        "value": "890775544",
                        "type": {
                            "coding": [
                                {
                                    "code": "FILL",
                                    "system": "http://terminology.hl7.org/CodeSystem/v2-0203"
                                }
                            ]
                        }
                    }
                ],
                "collection": {
                    "collector": {
                        "reference": "PractitionerRole/be571888-010e-9a32-e87f-f1ee1bd631a8"
                    }
                }
            },
            "request": {
                "method": "PUT",
                "url": "Specimen/3644f3d2-3b43-9382-c98b-b9f6b77e5295"
            }
        },
        {
            "fullUrl": "urn:uuid:da437276-fd7c-eb21-1885-4041aa59c483",
            "resource": {
                "resourceType": "Practitioner",
                "id": "da437276-fd7c-eb21-1885-4041aa59c483",
                "name": [
                    {
                        "family": "COLLECT",
                        "given": [
                            "JOHN"
                        ]
                    }
                ]
            },
            "request": {
                "method": "PUT",
                "url": "Practitioner/da437276-fd7c-eb21-1885-4041aa59c483"
            }
        },
        {
            "fullUrl": "urn:uuid:be571888-010e-9a32-e87f-f1ee1bd631a8",
            "resource": {
                "resourceType": "PractitionerRole",
                "id": "be571888-010e-9a32-e87f-f1ee1bd631a8",
                "practitioner": {
                    "reference": "Practitioner/da437276-fd7c-eb21-1885-4041aa59c483"
                }
            },
            "request": {
                "method": "PUT",
                "url": "PractitionerRole/be571888-010e-9a32-e87f-f1ee1bd631a8"
            }
        },
        {
            "fullUrl": "urn:uuid:9ab0f32a-af63-da4a-bcb2-3b605d5495de",
            "resource": {
                "resourceType": "Specimen",
                "id": "9ab0f32a-af63-da4a-bcb2-3b605d5495de",
                "identifier": [
                    {
                        "value": "SpecimenID",
                        "type": {
                            "coding": [
                                {
                                    "code": "PGN",
                                    "system": "http://terminology.hl7.org/CodeSystem/v2-0203"
                                }
                            ]
                        }
                    }
                ],
                "type": {
                    "coding": [
                        {
                            "code": "BLD",
                            "system": "http://terminology.hl7.org/CodeSystem/v2-0487"
                        }
                    ]
                },
                "collection": {
                    "collectedDateTime": "2014-10-06T05:35:00+07:00"
                },
                "receivedTime": "2014-10-06T06:21:00+07:00",
                "status": "available"
            },
            "request": {
                "method": "PUT",
                "url": "Specimen/9ab0f32a-af63-da4a-bcb2-3b605d5495de"
            }
        },
        {
            "fullUrl": "urn:uuid:64a9eef4-b58b-d60e-5408-89eec14b2ee6",
            "resource": {
                "resourceType": "Observation",
                "id": "64a9eef4-b58b-d60e-5408-89eec14b2ee6",
                "status": "final",
                "code": {
                    "coding": [
                        {
                            "code": "20509-6",
                            "display": "HEMOGLOBIN",
                            "system": "http://loinc.org"
                        }
                    ]
                },
                "valueQuantity": {
                    "value": 13.4,
                    "unit": "g/l-1"
                },
                "effectiveDateTime": "2014-10-06T08:30:00+07:00",
                "interpretation": [
                    {
                        "coding": [
                            {
                                "code": "N",
                                "display": "Normal",
                                "system": "http://terminology.hl7.org/CodeSystem/v3-ObservationInterpretation"
                            }
                        ]
                    }
                ],
                "subject": {
                    "reference": "Patient/bab5ca58-f272-4c06-4b3f-f9661e45a22b"
                },
                "specimen": {
                    "reference": "Specimen/9ab0f32a-af63-da4a-bcb2-3b605d5495de"
                },
                "extension": [
                    {
                        "url": "http://example.com/v2-to-fhir-converter/Observation_Status",
                        "valueCodeableConcept": {
                            "coding": [
                                {
                                    "code": "F",
                                    "display": "Final",
                                    "system": "http://terminology.hl7.org/CodeSystem/v2-0085"
                                }
                            ],
                            "text": "Final"
                        }
                    }
                ],
                "basedOn": [
                    {
                        "reference": "ServiceRequest/5c4619c4-2cf9-44bb-a2cd-262665709d4a"
                    }
                ]
            },
            "request": {
                "method": "PUT",
                "url": "Observation/64a9eef4-b58b-d60e-5408-89eec14b2ee6"
            }
        },
        {
            "fullUrl": "urn:uuid:4bff032d-2cbc-f4b6-5e9a-f8a0d5ccac80",
            "resource": {
                "resourceType": "Observation",
                "id": "4bff032d-2cbc-f4b6-5e9a-f8a0d5ccac80",
                "status": "final",
                "code": {
                    "coding": [
                        {
                            "code": "11156-7",
                            "display": "LEUKOCYTES",
                            "system": "http://loinc.org"
                        }
                    ]
                },
                "valueQuantity": {
                    "value": 8.2,
                    "unit": "giga.l-1"
                },
                "effectiveDateTime": "2014-10-06T08:30:00+07:00",
                "interpretation": [
                    {
                        "coding": [
                            {
                                "code": "N",
                                "display": "Normal",
                                "system": "http://terminology.hl7.org/CodeSystem/v3-ObservationInterpretation"
                            }
                        ]
                    }
                ],
                "subject": {
                    "reference": "Patient/bab5ca58-f272-4c06-4b3f-f9661e45a22b"
                },
                "specimen": {
                    "reference": "Specimen/9ab0f32a-af63-da4a-bcb2-3b605d5495de"
                },
                "extension": [
                    {
                        "url": "http://example.com/v2-to-fhir-converter/Observation_Status",
                        "valueCodeableConcept": {
                            "coding": [
                                {
                                    "code": "F",
                                    "display": "Final",
                                    "system": "http://terminology.hl7.org/CodeSystem/v2-0085"
                                }
                            ],
                            "text": "Final"
                        }
                    }
                ],
                "basedOn": [
                    {
                        "reference": "ServiceRequest/5c4619c4-2cf9-44bb-a2cd-262665709d4a"
                    }
                ]
            },
            "request": {
                "method": "PUT",
                "url": "Observation/4bff032d-2cbc-f4b6-5e9a-f8a0d5ccac80"
            }
        },
        {
            "fullUrl": "urn:uuid:0c8d054d-8276-964a-d67b-f1f9c3d57421",
            "resource": {
                "resourceType": "Observation",
                "id": "0c8d054d-8276-964a-d67b-f1f9c3d57421",
                "status": "final",
                "code": {
                    "coding": [
                        {
                            "code": "11273-0",
                            "display": "ERYTHROCYTES",
                            "system": "http://loinc.org"
                        }
                    ]
                },
                "valueQuantity": {
                    "value": 4.08,
                    "unit": "tera.l-1"
                },
                "effectiveDateTime": "2014-10-06T08:30:00+07:00",
                "interpretation": [
                    {
                        "coding": [
                            {
                                "code": "N",
                                "display": "Normal",
                                "system": "http://terminology.hl7.org/CodeSystem/v3-ObservationInterpretation"
                            }
                        ]
                    }
                ],
                "subject": {
                    "reference": "Patient/bab5ca58-f272-4c06-4b3f-f9661e45a22b"
                },
                "specimen": {
                    "reference": "Specimen/9ab0f32a-af63-da4a-bcb2-3b605d5495de"
                },
                "extension": [
                    {
                        "url": "http://example.com/v2-to-fhir-converter/Observation_Status",
                        "valueCodeableConcept": {
                            "coding": [
                                {
                                    "code": "F",
                                    "display": "Final",
                                    "system": "http://terminology.hl7.org/CodeSystem/v2-0085"
                                }
                            ],
                            "text": "Final"
                        }
                    }
                ],
                "basedOn": [
                    {
                        "reference": "ServiceRequest/5c4619c4-2cf9-44bb-a2cd-262665709d4a"
                    }
                ]
            },
            "request": {
                "method": "PUT",
                "url": "Observation/0c8d054d-8276-964a-d67b-f1f9c3d57421"
            }
        },
        {
            "fullUrl": "urn:uuid:80304ffa-efa5-5991-39a2-73f550a5b63c",
            "resource": {
                "resourceType": "Observation",
                "id": "80304ffa-efa5-5991-39a2-73f550a5b63c",
                "status": "final",
                "code": {
                    "coding": [
                        {
                            "code": "20570-8",
                            "display": "HEMATOCRIT",
                            "system": "http://loinc.org"
                        }
                    ]
                },
                "valueQuantity": {
                    "value": 39.7,
                    "unit": "%"
                },
                "effectiveDateTime": "2014-10-06T08:30:00+07:00",
                "interpretation": [
                    {
                        "coding": [
                            {
                                "code": "N",
                                "display": "Normal",
                                "system": "http://terminology.hl7.org/CodeSystem/v3-ObservationInterpretation"
                            }
                        ]
                    }
                ],
                "subject": {
                    "reference": "Patient/bab5ca58-f272-4c06-4b3f-f9661e45a22b"
                },
                "specimen": {
                    "reference": "Specimen/9ab0f32a-af63-da4a-bcb2-3b605d5495de"
                },
                "extension": [
                    {
                        "url": "http://example.com/v2-to-fhir-converter/Observation_Status",
                        "valueCodeableConcept": {
                            "coding": [
                                {
                                    "code": "F",
                                    "display": "Final",
                                    "system": "http://terminology.hl7.org/CodeSystem/v2-0085"
                                }
                            ],
                            "text": "Final"
                        }
                    }
                ],
                "basedOn": [
                    {
                        "reference": "ServiceRequest/5c4619c4-2cf9-44bb-a2cd-262665709d4a"
                    }
                ]
            },
            "request": {
                "method": "PUT",
                "url": "Observation/80304ffa-efa5-5991-39a2-73f550a5b63c"
            }
        },
        {
            "fullUrl": "urn:uuid:947491bb-638d-32ea-2296-c89032c9c9eb",
            "resource": {
                "resourceType": "Observation",
                "id": "947491bb-638d-32ea-2296-c89032c9c9eb",
                "status": "final",
                "code": {
                    "coding": [
                        {
                            "code": "11125-2",
                            "display": "PLATELETS",
                            "system": "http://loinc.org"
                        }
                    ]
                },
                "valueQuantity": {
                    "value": 220,
                    "unit": "giga.l-1"
                },
                "effectiveDateTime": "2014-10-06T08:30:00+07:00",
                "interpretation": [
                    {
                        "coding": [
                            {
                                "code": "N",
                                "display": "Normal",
                                "system": "http://terminology.hl7.org/CodeSystem/v3-ObservationInterpretation"
                            }
                        ]
                    }
                ],
                "subject": {
                    "reference": "Patient/bab5ca58-f272-4c06-4b3f-f9661e45a22b"
                },
                "specimen": {
                    "reference": "Specimen/9ab0f32a-af63-da4a-bcb2-3b605d5495de"
                },
                "extension": [
                    {
                        "url": "http://example.com/v2-to-fhir-converter/Observation_Status",
                        "valueCodeableConcept": {
                            "coding": [
                                {
                                    "code": "F",
                                    "display": "Final",
                                    "system": "http://terminology.hl7.org/CodeSystem/v2-0085"
                                }
                            ],
                            "text": "Final"
                        }
                    }
                ],
                "basedOn": [
                    {
                        "reference": "ServiceRequest/5c4619c4-2cf9-44bb-a2cd-262665709d4a"
                    }
                ]
            },
            "request": {
                "method": "PUT",
                "url": "Observation/947491bb-638d-32ea-2296-c89032c9c9eb"
            }
        },
        {
            "fullUrl": "urn:uuid:5c4619c4-2cf9-44bb-a2cd-262665709d4a",
            "resource": {
                "resourceType": "ServiceRequest",
                "id": "5c4619c4-2cf9-44bb-a2cd-262665709d4a",
                "status": "active",
                "intent": "filler-order",
                "identifier": [
                    {
                        "value": "88502218",
                        "type": {
                            "coding": [
                                {
                                    "code": "PLAC",
                                    "system": "http://terminology.hl7.org/CodeSystem/v2-0203"
                                }
                            ]
                        }
                    },
                    {
                        "value": "82503246",
                        "type": {
                            "coding": [
                                {
                                    "code": "FILL",
                                    "system": "http://terminology.hl7.org/CodeSystem/v2-0203"
                                }
                            ]
                        }
                    }
                ],
                "code": {
                    "coding": [
                        {
                            "code": "24317-0",
                            "display": "Hemogram and platelet count, automated",
                            "system": "http://loinc.org"
                        }
                    ]
                },
                "subject": {
                    "reference": "Patient/bab5ca58-f272-4c06-4b3f-f9661e45a22b"
                },
                "requester": {
                    "reference": "PractitionerRole/907170a0-a8af-89c5-5a30-6b78cdb227c5"
                },
                "specimen": [
                    {
                        "reference": "Specimen/f073bb0f-9e94-b40b-da9d-46a1a4ab1284"
                    }
                ]
            },
            "request": {
                "method": "PUT",
                "url": "ServiceRequest/5c4619c4-2cf9-44bb-a2cd-262665709d4a"
            }
        },
        {
            "fullUrl": "urn:uuid:5bc798e6-2316-5c26-076d-99ca3ce4c0fe",
            "resource": {
                "resourceType": "DiagnosticReport",
                "id": "5bc798e6-2316-5c26-076d-99ca3ce4c0fe",
                "identifier": [
                    {
                        "value": "88502218",
                        "type": {
                            "coding": [
                                {
                                    "code": "PLAC",
                                    "system": "http://terminology.hl7.org/CodeSystem/v2-0203"
                                }
                            ]
                        }
                    },
                    {
                        "value": "82503246",
                        "type": {
                            "coding": [
                                {
                                    "code": "FILL",
                                    "system": "http://terminology.hl7.org/CodeSystem/v2-0203"
                                }
                            ]
                        }
                    }
                ],
                "code": {
                    "coding": [
                        {
                            "code": "24317-0",
                            "display": "Hemogram and platelet count, automated",
                            "system": "http://loinc.org"
                        }
                    ]
                },
                "status": "unknown",
                "subject": {
                    "reference": "Patient/bab5ca58-f272-4c06-4b3f-f9661e45a22b"
                },
                "basedOn": [
                    {
                        "reference": "ServiceRequest/5c4619c4-2cf9-44bb-a2cd-262665709d4a"
                    }
                ],
                "specimen": [
                    {
                        "reference": "Specimen/f073bb0f-9e94-b40b-da9d-46a1a4ab1284"
                    }
                ],
                "result": [
                    {
                        "reference": "Observation/64a9eef4-b58b-d60e-5408-89eec14b2ee6"
                    },
                    {
                        "reference": "Observation/4bff032d-2cbc-f4b6-5e9a-f8a0d5ccac80"
                    },
                    {
                        "reference": "Observation/0c8d054d-8276-964a-d67b-f1f9c3d57421"
                    },
                    {
                        "reference": "Observation/80304ffa-efa5-5991-39a2-73f550a5b63c"
                    },
                    {
                        "reference": "Observation/947491bb-638d-32ea-2296-c89032c9c9eb"
                    }
                ]
            },
            "request": {
                "method": "PUT",
                "url": "DiagnosticReport/5bc798e6-2316-5c26-076d-99ca3ce4c0fe"
            }
        },
        {
            "fullUrl": "urn:uuid:f073bb0f-9e94-b40b-da9d-46a1a4ab1284",
            "resource": {
                "resourceType": "Specimen",
                "id": "f073bb0f-9e94-b40b-da9d-46a1a4ab1284",
                "identifier": [
                    {
                        "value": "88502218",
                        "type": {
                            "coding": [
                                {
                                    "code": "PLAC",
                                    "system": "http://terminology.hl7.org/CodeSystem/v2-0203"
                                }
                            ]
                        }
                    },
                    {
                        "value": "82503246",
                        "type": {
                            "coding": [
                                {
                                    "code": "FILL",
                                    "system": "http://terminology.hl7.org/CodeSystem/v2-0203"
                                }
                            ]
                        }
                    }
                ],
                "collection": {
                    "collector": {
                        "reference": "PractitionerRole/be571888-010e-9a32-e87f-f1ee1bd631a8"
                    }
                }
            },
            "request": {
                "method": "PUT",
                "url": "Specimen/f073bb0f-9e94-b40b-da9d-46a1a4ab1284"
            }
        }
    ]
}