{
    "resourceType": "Bundle",
    "type": "batch",
    "timestamp": "2014-10-06T09:31:00",
    "identifier": {
        "value": "ControlID"
    },
    "id": "1621d98e-0f06-6ff5-bfed-87e7a90a41b6",
    "entry": [
        {
            "fullUrl": "urn:uuid:35c86567-5347-8c97-4810-b39dedb9f855",
            "resource": {
                "resourceType": "MessageHeader",
                "id": "35c86567-5347-8c97-4810-b39dedb9f855",
                "source": {
                    "name": "SomeSystem",
                    "_endpoint": {
                        "extension": [
                            {
                                "url": "http://hl7.org/fhir/StructureDefinition/data-absent-reason",
                                "valueCode": "unknown"
                            }
                        ]
                    }
                },
                "destination": [
                    {
                        "name": "TransformationAgent",
                        "_endpoint": {
                            "extension": [
                                {
                                    "url": "http://hl7.org/fhir/StructureDefinition/data-absent-reason",
                                    "valueCode": "unknown"
                                }
                            ]
                        }
                    }
                ],
                "meta": {
                    "tag": [
                        {
                            "code": "T",
                            "system": "http://terminology.hl7.org/CodeSystem/v2-0103"
                        }
                    ]
                },
                "eventCoding": {
                    "code": "R01",
                    "system": "http://terminology.hl7.org/CodeSystem/v2-0003",
                    "display": "ORU^R01"
                },
                "language": "EN"
            },
            "request": {
                "method": "PUT",
                "url": "MessageHeader/35c86567-5347-8c97-4810-b39dedb9f855"
            }
        },
        {
            "fullUrl": "urn:uuid:9f79a1ce-a1d5-c6dd-a0d6-3bc75109716c",
            "resource": {
                "resourceType": "Provenance",
                "id": "9f79a1ce-a1d5-c6dd-a0d6-3bc75109716c",
                "text": {
                    "status": "generated",
                    "div": "<div xmlns=\"http://www.w3.org/1999/xhtml\"><p><span>Resource bundle generated on 2022-02-22T09:25:06.091Z using Microsoft FHIR Converter.</span><span>Template Version: TEMPLATE_VERSION_PLACEHOLDER.</span><span>Template URL: https://github.com/microsoft/FHIR-Converter/releases/download/vTEMPLATE_VERSION_PLACEHOLDER/Hl7v2DefaultTemplates.tar.gz.</span><span>Root template: ORU_R01.</span></p></div>"
                },
                "occurredDateTime": "2014-10-06T09:31:00",
                "recorded": "2014-10-06T09:31:00",
                "agent": [
                    {
                        "type": {
                            "coding": [
                                {
                                    "code": "author",
                                    "system": "http://terminology.hl7.org/CodeSystem/provenance-participant-type"
                                }
                            ]
                        }
                    }
                ],
                "activity": {
                    "coding": [
                        {
                            "display": "ORU^R01^"
                        }
                    ]
                },
                "target": [
                    {
                        "reference": "Bundle/1621d98e-0f06-6ff5-bfed-87e7a90a41b6"
                    }
                ]
            },
            "request": {
                "method": "PUT",
                "url": "Provenance/9f79a1ce-a1d5-c6dd-a0d6-3bc75109716c"
            }
        },
        {
            "fullUrl": "urn:uuid:bab5ca58-f272-4c06-4b3f-f9661e45a22b",
            "resource": {
                "resourceType": "Patient",
                "id": "bab5ca58-f272-4c06-4b3f-f9661e45a22b",
                "identifier": [
                    {
                        "value": "10006579",
                        "type": {
                            "coding": [
                                {
                                    "code": "MR",
                                    "system": "http://terminology.hl7.org/CodeSystem/v2-0203",
                                    "display": "Medical record number"
                                }
                            ]
                        },
                        "system": "http://example.com/v2-to-fhir-converter/assigning-authority-local-system-1"
                    },
                    {
                        "value": "123121234",
                        "type": {
                            "coding": [
                                {
                                    "code": "SB",
                                    "system": "http://terminology.hl7.org/CodeSystem/v2-0203"
                                }
                            ]
                        },
                        "system": "http://hl7.org/fhir/sid/us-ssn"
                    }
                ],
                "name": [
                    {
                        "family": "DUCK",
                        "given": [
                            "DONALD",
                            "D"
                        ]
                    }
                ],
                "birthDate": "1924-10-10",
                "gender": "male",
                "address": [
                    {
                        "line": [
                            "111 DUCK ST"
                        ],
                        "city": "FOWL",
                        "state": "CA",
                        "postalCode": "999990000",
                        "type": "postal"
                    },
                    {
                        "district": "1"
                    }
                ],
                "telecom": [
                    {
                        "value": "8885551212",
                        "use": "home"
                    },
                    {
                        "value": "8885551212",
                        "use": "work"
                    }
                ],
                "communication": [
                    {
                        "language": {
                            "coding": [
                                {
                                    "code": "1",
                                    "display": "1"
                                }
                            ]
                        },
                        "preferred": true
                    }
                ],
                "maritalStatus": {
                    "coding": [
                        {
                            "code": "2",
                            "display": "2"
                        }
                    ]
                },
                "deceasedBoolean": false,
                "extension": [
                    {
                        "url": "http://hl7.org/fhir/us/core/StructureDefinition/us-core-race",
                        "extension": [
                            {
                                "url": "ombCategory",
                                "valueCoding": {
                                    "code": "1",
                                    "display": "1"
                                }
                            },
                            {
                                "url": "text",
                                "valueString": "1"
                            }
                        ]
                    }
                ]
            },
            "request": {
                "method": "PUT",
                "url": "Patient/bab5ca58-f272-4c06-4b3f-f9661e45a22b"
            }
        },
        {
            "fullUrl": "urn:uuid:58bd65b3-7fe0-55cf-19e9-b3cfbc026fbf",
            "resource": {
                "resourceType": "Account",
                "id": "58bd65b3-7fe0-55cf-19e9-b3cfbc026fbf",
                "identifier": [
                    {
                        "value": "40007716",
                        "type": {
                            "coding": [
                                {
                                    "code": "VN",
                                    "system": "http://terminology.hl7.org/CodeSystem/v2-0203",
                                    "display": "Visit number"
                                }
                            ]
                        },
                        "system": "http://example.com/v2-to-fhir-converter/assigning-authority-local-system-AccMgr"
                    }
                ],
                "status": "active",
                "subject": [
                    {
                        "reference": "Patient/bab5ca58-f272-4c06-4b3f-f9661e45a22b"
                    }
                ]
            },
            "request": {
                "method": "PUT",
                "url": "Account/58bd65b3-7fe0-55cf-19e9-b3cfbc026fbf"
            }
        },
        {
            "fullUrl": "urn:uuid:bc01c14a-802a-ef1a-7310-6285f43792ee",
            "resource": {
                "resourceType": "Observation",
                "id": "bc01c14a-802a-ef1a-7310-6285f43792ee",
                "status": "final",
                "code": {
                    "coding": [
                        {
                            "code": "30180-4",
                            "display": "BASOPHILS/100 LEUKOCYTES",
                            "system": "http://loinc.org"
                        }
                    ]
                },
                "valueQuantity": {
                    "value": 0,
                    "unit": "%"
                },
                "effectiveDateTime": "2014-10-06T08:30:00",
                "interpretation": [
                    {
                        "coding": [
                            {
                                "code": "N",
                                "display": "Normal",
                                "system": "http://terminology.hl7.org/CodeSystem/v3-ObservationInterpretation"
                            }
                        ]
                    }
                ],
                "subject": {
                    "reference": "Patient/bab5ca58-f272-4c06-4b3f-f9661e45a22b"
                },
                "extension": [
                    {
                        "url": "http://example.com/v2-to-fhir-converter/Observation_Status",
                        "valueCodeableConcept": {
                            "coding": [
                                {
                                    "code": "F",
                                    "display": "Final",
                                    "system": "http://terminology.hl7.org/CodeSystem/v2-0085"
                                }
                            ],
                            "text": "Final"
                        }
                    }
                ],
                "basedOn": [
                    {
                        "reference": "ServiceRequest/425b6ad3-9304-3f7b-2771-0aa0dcd954ca"
                    }
                ]
            },
            "request": {
                "method": "PUT",
                "url": "Observation/bc01c14a-802a-ef1a-7310-6285f43792ee"
            }
        },
        {
            "fullUrl": "urn:uuid:4bdb7be4-1916-b9c7-6bdd-68b92259d75b",
            "resource": {
                "resourceType": "Observation",
                "id": "4bdb7be4-1916-b9c7-6bdd-68b92259d75b",
                "status": "final",
                "code": {
                    "coding": [
                        {
                            "code": "23761-0",
                            "display": "NEUTROPHILS/100 LEUKOCYTES",
                            "system": "http://loinc.org"
                        }
                    ]
                },
                "valueQuantity": {
                    "value": 72,
                    "unit": "%"
                },
                "effectiveDateTime": "2014-10-06T08:30:00",
                "interpretation": [
                    {
                        "coding": [
                            {
                                "code": "N",
                                "display": "Normal",
                                "system": "http://terminology.hl7.org/CodeSystem/v3-ObservationInterpretation"
                            }
                        ]
                    }
                ],
                "subject": {
                    "reference": "Patient/bab5ca58-f272-4c06-4b3f-f9661e45a22b"
                },
                "extension": [
                    {
                        "url": "http://example.com/v2-to-fhir-converter/Observation_Status",
                        "valueCodeableConcept": {
                            "coding": [
                                {
                                    "code": "F",
                                    "display": "Final",
                                    "system": "http://terminology.hl7.org/CodeSystem/v2-0085"
                                }
                            ],
                            "text": "Final"
                        }
                    }
                ],
                "basedOn": [
                    {
                        "reference": "ServiceRequest/425b6ad3-9304-3f7b-2771-0aa0dcd954ca"
                    }
                ]
            },
            "request": {
                "method": "PUT",
                "url": "Observation/4bdb7be4-1916-b9c7-6bdd-68b92259d75b"
            }
        },
        {
            "fullUrl": "urn:uuid:f887f318-33d2-677f-4fc9-a657502b2f93",
            "resource": {
                "resourceType": "Observation",
                "id": "f887f318-33d2-677f-4fc9-a657502b2f93",
                "status": "final",
                "code": {
                    "coding": [
                        {
                            "code": "26450-7",
                            "display": "EOSINOPHILS/100 LEUKOCYTES",
                            "system": "http://loinc.org"
                        }
                    ]
                },
                "valueQuantity": {
                    "value": 2,
                    "unit": "%"
                },
                "effectiveDateTime": "2014-10-06T08:30:00",
                "interpretation": [
                    {
                        "coding": [
                            {
                                "code": "N",
                                "display": "Normal",
                                "system": "http://terminology.hl7.org/CodeSystem/v3-ObservationInterpretation"
                            }
                        ]
                    }
                ],
                "subject": {
                    "reference": "Patient/bab5ca58-f272-4c06-4b3f-f9661e45a22b"
                },
                "extension": [
                    {
                        "url": "http://example.com/v2-to-fhir-converter/Observation_Status",
                        "valueCodeableConcept": {
                            "coding": [
                                {
                                    "code": "F",
                                    "display": "Final",
                                    "system": "http://terminology.hl7.org/CodeSystem/v2-0085"
                                }
                            ],
                            "text": "Final"
                        }
                    }
                ],
                "basedOn": [
                    {
                        "reference": "ServiceRequest/425b6ad3-9304-3f7b-2771-0aa0dcd954ca"
                    }
                ]
            },
            "request": {
                "method": "PUT",
                "url": "Observation/f887f318-33d2-677f-4fc9-a657502b2f93"
            }
        },
        {
            "fullUrl": "urn:uuid:daed3fa1-35de-05c8-848b-b368834784e0",
            "resource": {
                "resourceType": "Observation",
                "id": "daed3fa1-35de-05c8-848b-b368834784e0",
                "status": "final",
                "code": {
                    "coding": [
                        {
                            "code": "26478-8",
                            "display": "LYMPHOCYTES/100 LEUKOCYTES",
                            "system": "http://loinc.org"
                        }
                    ]
                },
                "valueQuantity": {
                    "value": 20,
                    "unit": "%"
                },
                "effectiveDateTime": "2014-10-06T08:30:00",
                "interpretation": [
                    {
                        "coding": [
                            {
                                "code": "N",
                                "display": "Normal",
                                "system": "http://terminology.hl7.org/CodeSystem/v3-ObservationInterpretation"
                            }
                        ]
                    }
                ],
                "subject": {
                    "reference": "Patient/bab5ca58-f272-4c06-4b3f-f9661e45a22b"
                },
                "extension": [
                    {
                        "url": "http://example.com/v2-to-fhir-converter/Observation_Status",
                        "valueCodeableConcept": {
                            "coding": [
                                {
                                    "code": "F",
                                    "display": "Final",
                                    "system": "http://terminology.hl7.org/CodeSystem/v2-0085"
                                }
                            ],
                            "text": "Final"
                        }
                    }
                ],
                "basedOn": [
                    {
                        "reference": "ServiceRequest/425b6ad3-9304-3f7b-2771-0aa0dcd954ca"
                    }
                ]
            },
            "request": {
                "method": "PUT",
                "url": "Observation/daed3fa1-35de-05c8-848b-b368834784e0"
            }
        },
        {
            "fullUrl": "urn:uuid:9b917bd6-891c-83e1-df59-27d2a89f65fb",
            "resource": {
                "resourceType": "Observation",
                "id": "9b917bd6-891c-83e1-df59-27d2a89f65fb",
                "status": "final",
                "code": {
                    "coding": [
                        {
                            "code": "26485-3",
                            "display": "MONOCYTES/100 LEUKOCYTES",
                            "system": "http://loinc.org"
                        }
                    ]
                },
                "valueQuantity": {
                    "value": 6,
                    "unit": "%"
                },
                "effectiveDateTime": "2014-10-06T08:30:00",
                "interpretation": [
                    {
                        "coding": [
                            {
                                "code": "N",
                                "display": "Normal",
                                "system": "http://terminology.hl7.org/CodeSystem/v3-ObservationInterpretation"
                            }
                        ]
                    }
                ],
                "subject": {
                    "reference": "Patient/bab5ca58-f272-4c06-4b3f-f9661e45a22b"
                },
                "extension": [
                    {
                        "url": "http://example.com/v2-to-fhir-converter/Observation_Status",
                        "valueCodeableConcept": {
                            "coding": [
                                {
                                    "code": "F",
                                    "display": "Final",
                                    "system": "http://terminology.hl7.org/CodeSystem/v2-0085"
                                }
                            ],
                            "text": "Final"
                        }
                    }
                ],
                "basedOn": [
                    {
                        "reference": "ServiceRequest/425b6ad3-9304-3f7b-2771-0aa0dcd954ca"
                    }
                ]
            },
            "request": {
                "method": "PUT",
                "url": "Observation/9b917bd6-891c-83e1-df59-27d2a89f65fb"
            }
        },
        {
            "fullUrl": "urn:uuid:425b6ad3-9304-3f7b-2771-0aa0dcd954ca",
            "resource": {
                "resourceType": "ServiceRequest",
                "id": "425b6ad3-9304-3f7b-2771-0aa0dcd954ca",
                "status": "active",
                "intent": "filler-order",
                "identifier": [
                    {
                        "value": "855238581",
                        "type": {
                            "coding": [
                                {
                                    "code": "PLAC",
                                    "system": "http://terminology.hl7.org/CodeSystem/v2-0203"
                                }
                            ]
                        }
                    },
                    {
                        "value": "890775544",
                        "type": {
                            "coding": [
                                {
                                    "code": "FILL",
                                    "system": "http://terminology.hl7.org/CodeSystem/v2-0203"
                                }
                            ]
                        }
                    }
                ],
                "code": {
                    "coding": [
                        {
                            "code": "26464-8",
                            "display": "Differential WBC Count, buffy coat",
                            "system": "http://loinc.org"
                        }
                    ]
                },
                "subject": {
                    "reference": "Patient/bab5ca58-f272-4c06-4b3f-f9661e45a22b"
                },
                "requester": {
                    "reference": "PractitionerRole/907170a0-a8af-89c5-5a30-6b78cdb227c5"
                },
                "specimen": [
                    {
                        "reference": "Specimen/e8c2bedc-f247-6e63-2c6f-a58e26f24c33"
                    }
                ]
            },
            "request": {
                "method": "PUT",
                "url": "ServiceRequest/425b6ad3-9304-3f7b-2771-0aa0dcd954ca"
            }
        },
        {
            "fullUrl": "urn:uuid:15decf11-00dc-6867-9c35-ffd79977d5b9",
            "resource": {
                "resourceType": "Practitioner",
                "id": "15decf11-00dc-6867-9c35-ffd79977d5b9",
                "name": [
                    {
                        "family": "URO",
                        "prefix": [
                            "DR"
                        ]
                    }
                ]
            },
            "request": {
                "method": "PUT",
                "url": "Practitioner/15decf11-00dc-6867-9c35-ffd79977d5b9"
            }
        },
        {
            "fullUrl": "urn:uuid:907170a0-a8af-89c5-5a30-6b78cdb227c5",
            "resource": {
                "resourceType": "PractitionerRole",
                "id": "907170a0-a8af-89c5-5a30-6b78cdb227c5",
                "code": [
                    {
                        "coding": [
                            {
                                "code": "ordering-provider",
                                "display": "Ordering Provider",
                                "system": "http://example.com/v2-to-fhir-converter/CodeSystem/PractitionerRole"
                            }
                        ]
                    }
                ],
                "practitioner": {
                    "reference": "Practitioner/15decf11-00dc-6867-9c35-ffd79977d5b9"
                }
            },
            "request": {
                "method": "PUT",
                "url": "PractitionerRole/907170a0-a8af-89c5-5a30-6b78cdb227c5"
            }
        },
        {
            "fullUrl": "urn:uuid:bd4fd761-3a3c-6084-6bb0-5b21c024b208",
            "resource": {
                "resourceType": "DiagnosticReport",
                "id": "bd4fd761-3a3c-6084-6bb0-5b21c024b208",
                "identifier": [
                    {
                        "value": "855238581",
                        "type": {
                            "coding": [
                                {
                                    "code": "PLAC",
                                    "system": "http://terminology.hl7.org/CodeSystem/v2-0203"
                                }
                            ]
                        }
                    },
                    {
                        "value": "890775544",
                        "type": {
                            "coding": [
                                {
                                    "code": "FILL",
                                    "system": "http://terminology.hl7.org/CodeSystem/v2-0203"
                                }
                            ]
                        }
                    }
                ],
                "code": {
                    "coding": [
                        {
                            "code": "26464-8",
                            "display": "Differential WBC Count, buffy coat",
                            "system": "http://loinc.org"
                        }
                    ]
                },
                "status": "unknown",
                "subject": {
                    "reference": "Patient/bab5ca58-f272-4c06-4b3f-f9661e45a22b"
                },
                "basedOn": [
                    {
                        "reference": "ServiceRequest/425b6ad3-9304-3f7b-2771-0aa0dcd954ca"
                    }
                ],
                "specimen": [
                    {
                        "reference": "Specimen/e8c2bedc-f247-6e63-2c6f-a58e26f24c33"
                    }
                ],
                "result": [
                    {
                        "reference": "Observation/bc01c14a-802a-ef1a-7310-6285f43792ee"
                    },
                    {
                        "reference": "Observation/4bdb7be4-1916-b9c7-6bdd-68b92259d75b"
                    },
                    {
                        "reference": "Observation/f887f318-33d2-677f-4fc9-a657502b2f93"
                    },
                    {
                        "reference": "Observation/daed3fa1-35de-05c8-848b-b368834784e0"
                    },
                    {
                        "reference": "Observation/9b917bd6-891c-83e1-df59-27d2a89f65fb"
                    }
                ]
            },
            "request": {
                "method": "PUT",
                "url": "DiagnosticReport/bd4fd761-3a3c-6084-6bb0-5b21c024b208"
            }
        },
        {
            "fullUrl": "urn:uuid:e8c2bedc-f247-6e63-2c6f-a58e26f24c33",
            "resource": {
                "resourceType": "Specimen",
                "id": "e8c2bedc-f247-6e63-2c6f-a58e26f24c33",
                "identifier": [
                    {
                        "value": "855238581",
                        "type": {
                            "coding": [
                                {
                                    "code": "PLAC",
                                    "system": "http://terminology.hl7.org/CodeSystem/v2-0203"
                                }
                            ]
                        }
                    },
                    {
                        "value": "890775544",
                        "type": {
                            "coding": [
                                {
                                    "code": "FILL",
                                    "system": "http://terminology.hl7.org/CodeSystem/v2-0203"
                                }
                            ]
                        }
                    }
                ],
                "collection": {
                    "collector": {
                        "reference": "PractitionerRole/be571888-010e-9a32-e87f-f1ee1bd631a8"
                    }
                }
            },
            "request": {
                "method": "PUT",
                "url": "Specimen/e8c2bedc-f247-6e63-2c6f-a58e26f24c33"
            }
        },
        {
            "fullUrl": "urn:uuid:da437276-fd7c-eb21-1885-4041aa59c483",
            "resource": {
                "resourceType": "Practitioner",
                "id": "da437276-fd7c-eb21-1885-4041aa59c483",
                "name": [
                    {
                        "family": "COLLECT",
                        "given": [
                            "JOHN"
                        ]
                    }
                ]
            },
            "request": {
                "method": "PUT",
                "url": "Practitioner/da437276-fd7c-eb21-1885-4041aa59c483"
            }
        },
        {
            "fullUrl": "urn:uuid:be571888-010e-9a32-e87f-f1ee1bd631a8",
            "resource": {
                "resourceType": "PractitionerRole",
                "id": "be571888-010e-9a32-e87f-f1ee1bd631a8",
                "practitioner": {
                    "reference": "Practitioner/da437276-fd7c-eb21-1885-4041aa59c483"
                }
            },
            "request": {
                "method": "PUT",
                "url": "PractitionerRole/be571888-010e-9a32-e87f-f1ee1bd631a8"
            }
        },
        {
            "fullUrl": "urn:uuid:6006d57e-e0a3-d90e-7d9b-546ed575c527",
            "resource": {
                "resourceType": "Specimen",
                "id": "6006d57e-e0a3-d90e-7d9b-546ed575c527",
                "identifier": [
                    {
                        "value": "SpecimenID",
                        "type": {
                            "coding": [
                                {
                                    "code": "PGN",
                                    "system": "http://terminology.hl7.org/CodeSystem/v2-0203"
                                }
                            ]
                        }
                    }
                ],
                "type": {
                    "coding": [
                        {
                            "code": "BLD",
                            "system": "http://terminology.hl7.org/CodeSystem/v2-0487"
                        }
                    ]
                },
                "collection": {
                    "collectedDateTime": "2014-10-06T05:35:00"
                },
                "receivedTime": "2014-10-06T06:21:00",
                "status": "available"
            },
            "request": {
                "method": "PUT",
                "url": "Specimen/6006d57e-e0a3-d90e-7d9b-546ed575c527"
            }
        },
        {
            "fullUrl": "urn:uuid:9a972e53-b6e1-db45-025d-a4ba9c9fb63f",
            "resource": {
                "resourceType": "Observation",
                "id": "9a972e53-b6e1-db45-025d-a4ba9c9fb63f",
                "status": "final",
                "code": {
                    "coding": [
                        {
                            "code": "20509-6",
                            "display": "HEMOGLOBIN",
                            "system": "http://loinc.org"
                        }
                    ]
                },
                "valueQuantity": {
                    "value": 13.4,
                    "unit": "g/l-1"
                },
                "effectiveDateTime": "2014-10-06T08:30:00",
                "interpretation": [
                    {
                        "coding": [
                            {
                                "code": "N",
                                "display": "Normal",
                                "system": "http://terminology.hl7.org/CodeSystem/v3-ObservationInterpretation"
                            }
                        ]
                    }
                ],
                "subject": {
                    "reference": "Patient/bab5ca58-f272-4c06-4b3f-f9661e45a22b"
                },
                "specimen": {
                    "reference": "Specimen/6006d57e-e0a3-d90e-7d9b-546ed575c527"
                },
                "extension": [
                    {
                        "url": "http://example.com/v2-to-fhir-converter/Observation_Status",
                        "valueCodeableConcept": {
                            "coding": [
                                {
                                    "code": "F",
                                    "display": "Final",
                                    "system": "http://terminology.hl7.org/CodeSystem/v2-0085"
                                }
                            ],
                            "text": "Final"
                        }
                    }
                ],
                "basedOn": [
                    {
                        "reference": "ServiceRequest/5c4619c4-2cf9-44bb-a2cd-262665709d4a"
                    }
                ]
            },
            "request": {
                "method": "PUT",
                "url": "Observation/9a972e53-b6e1-db45-025d-a4ba9c9fb63f"
            }
        },
        {
            "fullUrl": "urn:uuid:3c8a0ec2-08ed-15e2-b8b4-271ea74bef9c",
            "resource": {
                "resourceType": "Observation",
                "id": "3c8a0ec2-08ed-15e2-b8b4-271ea74bef9c",
                "status": "final",
                "code": {
                    "coding": [
                        {
                            "code": "11156-7",
                            "display": "LEUKOCYTES",
                            "system": "http://loinc.org"
                        }
                    ]
                },
                "valueQuantity": {
                    "value": 8.2,
                    "unit": "giga.l-1"
                },
                "effectiveDateTime": "2014-10-06T08:30:00",
                "interpretation": [
                    {
                        "coding": [
                            {
                                "code": "N",
                                "display": "Normal",
                                "system": "http://terminology.hl7.org/CodeSystem/v3-ObservationInterpretation"
                            }
                        ]
                    }
                ],
                "subject": {
                    "reference": "Patient/bab5ca58-f272-4c06-4b3f-f9661e45a22b"
                },
                "specimen": {
                    "reference": "Specimen/6006d57e-e0a3-d90e-7d9b-546ed575c527"
                },
                "extension": [
                    {
                        "url": "http://example.com/v2-to-fhir-converter/Observation_Status",
                        "valueCodeableConcept": {
                            "coding": [
                                {
                                    "code": "F",
                                    "display": "Final",
                                    "system": "http://terminology.hl7.org/CodeSystem/v2-0085"
                                }
                            ],
                            "text": "Final"
                        }
                    }
                ],
                "basedOn": [
                    {
                        "reference": "ServiceRequest/5c4619c4-2cf9-44bb-a2cd-262665709d4a"
                    }
                ]
            },
            "request": {
                "method": "PUT",
                "url": "Observation/3c8a0ec2-08ed-15e2-b8b4-271ea74bef9c"
            }
        },
        {
            "fullUrl": "urn:uuid:04dbbc1a-dc3f-55ab-4ded-9baf6bd4f700",
            "resource": {
                "resourceType": "Observation",
                "id": "04dbbc1a-dc3f-55ab-4ded-9baf6bd4f700",
                "status": "final",
                "code": {
                    "coding": [
                        {
                            "code": "11273-0",
                            "display": "ERYTHROCYTES",
                            "system": "http://loinc.org"
                        }
                    ]
                },
                "valueQuantity": {
                    "value": 4.08,
                    "unit": "tera.l-1"
                },
                "effectiveDateTime": "2014-10-06T08:30:00",
                "interpretation": [
                    {
                        "coding": [
                            {
                                "code": "N",
                                "display": "Normal",
                                "system": "http://terminology.hl7.org/CodeSystem/v3-ObservationInterpretation"
                            }
                        ]
                    }
                ],
                "subject": {
                    "reference": "Patient/bab5ca58-f272-4c06-4b3f-f9661e45a22b"
                },
                "specimen": {
                    "reference": "Specimen/6006d57e-e0a3-d90e-7d9b-546ed575c527"
                },
                "extension": [
                    {
                        "url": "http://example.com/v2-to-fhir-converter/Observation_Status",
                        "valueCodeableConcept": {
                            "coding": [
                                {
                                    "code": "F",
                                    "display": "Final",
                                    "system": "http://terminology.hl7.org/CodeSystem/v2-0085"
                                }
                            ],
                            "text": "Final"
                        }
                    }
                ],
                "basedOn": [
                    {
                        "reference": "ServiceRequest/5c4619c4-2cf9-44bb-a2cd-262665709d4a"
                    }
                ]
            },
            "request": {
                "method": "PUT",
                "url": "Observation/04dbbc1a-dc3f-55ab-4ded-9baf6bd4f700"
            }
        },
        {
            "fullUrl": "urn:uuid:e8be578a-267e-864d-eee7-21df040facdd",
            "resource": {
                "resourceType": "Observation",
                "id": "e8be578a-267e-864d-eee7-21df040facdd",
                "status": "final",
                "code": {
                    "coding": [
                        {
                            "code": "20570-8",
                            "display": "HEMATOCRIT",
                            "system": "http://loinc.org"
                        }
                    ]
                },
                "valueQuantity": {
                    "value": 39.7,
                    "unit": "%"
                },
                "effectiveDateTime": "2014-10-06T08:30:00",
                "interpretation": [
                    {
                        "coding": [
                            {
                                "code": "N",
                                "display": "Normal",
                                "system": "http://terminology.hl7.org/CodeSystem/v3-ObservationInterpretation"
                            }
                        ]
                    }
                ],
                "subject": {
                    "reference": "Patient/bab5ca58-f272-4c06-4b3f-f9661e45a22b"
                },
                "specimen": {
                    "reference": "Specimen/6006d57e-e0a3-d90e-7d9b-546ed575c527"
                },
                "extension": [
                    {
                        "url": "http://example.com/v2-to-fhir-converter/Observation_Status",
                        "valueCodeableConcept": {
                            "coding": [
                                {
                                    "code": "F",
                                    "display": "Final",
                                    "system": "http://terminology.hl7.org/CodeSystem/v2-0085"
                                }
                            ],
                            "text": "Final"
                        }
                    }
                ],
                "basedOn": [
                    {
                        "reference": "ServiceRequest/5c4619c4-2cf9-44bb-a2cd-262665709d4a"
                    }
                ]
            },
            "request": {
                "method": "PUT",
                "url": "Observation/e8be578a-267e-864d-eee7-21df040facdd"
            }
        },
        {
            "fullUrl": "urn:uuid:4e088562-d23b-7850-733a-32f2e0ef18f9",
            "resource": {
                "resourceType": "Observation",
                "id": "4e088562-d23b-7850-733a-32f2e0ef18f9",
                "status": "final",
                "code": {
                    "coding": [
                        {
                            "code": "11125-2",
                            "display": "PLATELETS",
                            "system": "http://loinc.org"
                        }
                    ]
                },
                "valueQuantity": {
                    "value": 220,
                    "unit": "giga.l-1"
                },
                "effectiveDateTime": "2014-10-06T08:30:00",
                "interpretation": [
                    {
                        "coding": [
                            {
                                "code": "N",
                                "display": "Normal",
                                "system": "http://terminology.hl7.org/CodeSystem/v3-ObservationInterpretation"
                            }
                        ]
                    }
                ],
                "subject": {
                    "reference": "Patient/bab5ca58-f272-4c06-4b3f-f9661e45a22b"
                },
                "specimen": {
                    "reference": "Specimen/6006d57e-e0a3-d90e-7d9b-546ed575c527"
                },
                "extension": [
                    {
                        "url": "http://example.com/v2-to-fhir-converter/Observation_Status",
                        "valueCodeableConcept": {
                            "coding": [
                                {
                                    "code": "F",
                                    "display": "Final",
                                    "system": "http://terminology.hl7.org/CodeSystem/v2-0085"
                                }
                            ],
                            "text": "Final"
                        }
                    }
                ],
                "basedOn": [
                    {
                        "reference": "ServiceRequest/5c4619c4-2cf9-44bb-a2cd-262665709d4a"
                    }
                ]
            },
            "request": {
                "method": "PUT",
                "url": "Observation/4e088562-d23b-7850-733a-32f2e0ef18f9"
            }
        },
        {
            "fullUrl": "urn:uuid:5c4619c4-2cf9-44bb-a2cd-262665709d4a",
            "resource": {
                "resourceType": "ServiceRequest",
                "id": "5c4619c4-2cf9-44bb-a2cd-262665709d4a",
                "status": "active",
                "intent": "filler-order",
                "identifier": [
                    {
                        "value": "88502218",
                        "type": {
                            "coding": [
                                {
                                    "code": "PLAC",
                                    "system": "http://terminology.hl7.org/CodeSystem/v2-0203"
                                }
                            ]
                        }
                    },
                    {
                        "value": "82503246",
                        "type": {
                            "coding": [
                                {
                                    "code": "FILL",
                                    "system": "http://terminology.hl7.org/CodeSystem/v2-0203"
                                }
                            ]
                        }
                    }
                ],
                "code": {
                    "coding": [
                        {
                            "code": "24317-0",
                            "display": "Hemogram and platelet count, automated",
                            "system": "http://loinc.org"
                        }
                    ]
                },
                "subject": {
                    "reference": "Patient/bab5ca58-f272-4c06-4b3f-f9661e45a22b"
                },
                "requester": {
                    "reference": "PractitionerRole/907170a0-a8af-89c5-5a30-6b78cdb227c5"
                },
                "specimen": [
                    {
                        "reference": "Specimen/f59e2ae9-1b51-5e9f-9ef1-2f05d070db75"
                    }
                ]
            },
            "request": {
                "method": "PUT",
                "url": "ServiceRequest/5c4619c4-2cf9-44bb-a2cd-262665709d4a"
            }
        },
        {
            "fullUrl": "urn:uuid:43054c97-ac1f-e627-4559-c8ae945117bd",
            "resource": {
                "resourceType": "DiagnosticReport",
                "id": "43054c97-ac1f-e627-4559-c8ae945117bd",
                "identifier": [
                    {
                        "value": "88502218",
                        "type": {
                            "coding": [
                                {
                                    "code": "PLAC",
                                    "system": "http://terminology.hl7.org/CodeSystem/v2-0203"
                                }
                            ]
                        }
                    },
                    {
                        "value": "82503246",
                        "type": {
                            "coding": [
                                {
                                    "code": "FILL",
                                    "system": "http://terminology.hl7.org/CodeSystem/v2-0203"
                                }
                            ]
                        }
                    }
                ],
                "code": {
                    "coding": [
                        {
                            "code": "24317-0",
                            "display": "Hemogram and platelet count, automated",
                            "system": "http://loinc.org"
                        }
                    ]
                },
                "status": "unknown",
                "subject": {
                    "reference": "Patient/bab5ca58-f272-4c06-4b3f-f9661e45a22b"
                },
                "basedOn": [
                    {
                        "reference": "ServiceRequest/5c4619c4-2cf9-44bb-a2cd-262665709d4a"
                    }
                ],
                "specimen": [
                    {
                        "reference": "Specimen/f59e2ae9-1b51-5e9f-9ef1-2f05d070db75"
                    }
                ],
                "result": [
                    {
                        "reference": "Observation/9a972e53-b6e1-db45-025d-a4ba9c9fb63f"
                    },
                    {
                        "reference": "Observation/3c8a0ec2-08ed-15e2-b8b4-271ea74bef9c"
                    },
                    {
                        "reference": "Observation/04dbbc1a-dc3f-55ab-4ded-9baf6bd4f700"
                    },
                    {
                        "reference": "Observation/e8be578a-267e-864d-eee7-21df040facdd"
                    },
                    {
                        "reference": "Observation/4e088562-d23b-7850-733a-32f2e0ef18f9"
                    }
                ]
            },
            "request": {
                "method": "PUT",
                "url": "DiagnosticReport/43054c97-ac1f-e627-4559-c8ae945117bd"
            }
        },
        {
            "fullUrl": "urn:uuid:f59e2ae9-1b51-5e9f-9ef1-2f05d070db75",
            "resource": {
                "resourceType": "Specimen",
                "id": "f59e2ae9-1b51-5e9f-9ef1-2f05d070db75",
                "identifier": [
                    {
                        "value": "88502218",
                        "type": {
                            "coding": [
                                {
                                    "code": "PLAC",
                                    "system": "http://terminology.hl7.org/CodeSystem/v2-0203"
                                }
                            ]
                        }
                    },
                    {
                        "value": "82503246",
                        "type": {
                            "coding": [
                                {
                                    "code": "FILL",
                                    "system": "http://terminology.hl7.org/CodeSystem/v2-0203"
                                }
                            ]
                        }
                    }
                ],
                "collection": {
                    "collector": {
                        "reference": "PractitionerRole/be571888-010e-9a32-e87f-f1ee1bd631a8"
                    }
                }
            },
            "request": {
                "method": "PUT",
                "url": "Specimen/f59e2ae9-1b51-5e9f-9ef1-2f05d070db75"
            }
        }
    ]
}