{
    "resourceType": "Bundle",
    "type": "batch",
    "timestamp": "2014-10-06T09:31:00",
    "identifier": {
        "value": "ControlID"
    },
    "id": "1621d98e-0f06-6ff5-bfed-87e7a90a41b6",
    "entry": [
        {
            "fullUrl": "urn:uuid:35c86567-5347-8c97-4810-b39dedb9f855",
            "resource": {
                "resourceType": "MessageHeader",
                "id": "35c86567-5347-8c97-4810-b39dedb9f855",
                "source": {
                    "name": "SomeSystem",
                    "_endpoint": {
                        "extension": [
                            {
                                "url": "http://hl7.org/fhir/StructureDefinition/data-absent-reason",
                                "valueCode": "unknown"
                            }
                        ]
                    }
                },
                "destination": [
                    {
                        "name": "TransformationAgent",
                        "_endpoint": {
                            "extension": [
                                {
                                    "url": "http://hl7.org/fhir/StructureDefinition/data-absent-reason",
                                    "valueCode": "unknown"
                                }
                            ]
                        }
                    }
                ],
                "meta": {
                    "tag": [
                        {
                            "code": "T",
                            "system": "http://terminology.hl7.org/CodeSystem/v2-0103"
                        }
                    ]
                },
                "eventCoding": {
                    "code": "R01",
                    "system": "http://terminology.hl7.org/CodeSystem/v2-0003",
                    "display": "ORU^R01"
                },
                "language": "EN"
            },
            "request": {
                "method": "PUT",
                "url": "MessageHeader/35c86567-5347-8c97-4810-b39dedb9f855"
            }
        },
        {
            "fullUrl": "urn:uuid:9f79a1ce-a1d5-c6dd-a0d6-3bc75109716c",
            "resource": {
                "resourceType": "Provenance",
                "id": "9f79a1ce-a1d5-c6dd-a0d6-3bc75109716c",
                "text": {
                    "status": "generated",
                    "div": "<div xmlns=\"http://www.w3.org/1999/xhtml\"><p><span>Resource bundle generated on 2021-10-29T08:49:47.115Z using Microsoft FHIR Converter.</span><span>Template Version: TEMPLATE_VERSION_PLACEHOLDER.</span><span>Template URL: https://github.com/microsoft/FHIR-Converter/releases/download/vTEMPLATE_VERSION_PLACEHOLDER/Hl7v2DefaultTemplates.tar.gz.</span><span>Root template: ORU_R01.</span></p></div>"
                },
                "occurredDateTime": "2014-10-06T09:31:00",
                "recorded": "2014-10-06T09:31:00",
                "agent": [
                    {
                        "type": {
                            "coding": [
                                {
                                    "code": "author",
                                    "system": "http://terminology.hl7.org/CodeSystem/provenance-participant-type"
                                }
                            ]
                        }
                    }
                ],
                "activity": {
                    "coding": [
                        {
                            "display": "ORU^R01^"
                        }
                    ]
                },
                "target": [
                    {
                        "reference": "Bundle/1621d98e-0f06-6ff5-bfed-87e7a90a41b6"
                    }
                ]
            },
            "request": {
                "method": "PUT",
                "url": "Provenance/9f79a1ce-a1d5-c6dd-a0d6-3bc75109716c"
            }
        },
        {
            "fullUrl": "urn:uuid:bab5ca58-f272-4c06-4b3f-f9661e45a22b",
            "resource": {
                "resourceType": "Patient",
                "id": "bab5ca58-f272-4c06-4b3f-f9661e45a22b",
                "identifier": [
                    {
                        "value": "10006579",
                        "type": {
                            "coding": [
                                {
                                    "code": "MR",
                                    "system": "http://terminology.hl7.org/CodeSystem/v2-0203",
                                    "display": "Medical record number"
                                }
                            ]
                        },
                        "system": "http://example.com/v2-to-fhir-converter/assigning-authority-local-system-1"
                    },
                    {
                        "value": "123121234",
                        "type": {
                            "coding": [
                                {
                                    "code": "SB",
                                    "system": "http://terminology.hl7.org/CodeSystem/v2-0203"
                                }
                            ]
                        },
                        "system": "http://hl7.org/fhir/sid/us-ssn"
                    }
                ],
                "name": [
                    {
                        "family": "DUCK",
                        "given": [
                            "DONALD",
                            "D"
                        ]
                    }
                ],
                "birthDate": "1924-10-10",
                "gender": "male",
                "address": [
                    {
                        "line": [
                            "111 DUCK ST"
                        ],
                        "city": "FOWL",
                        "state": "CA",
                        "postalCode": "999990000",
                        "type": "postal"
                    },
                    {
                        "district": "1"
                    }
                ],
                "telecom": [
                    {
                        "value": "8885551212",
                        "use": "home"
                    },
                    {
                        "value": "8885551212",
                        "use": "work"
                    }
                ],
                "communication": [
                    {
                        "language": {
                            "coding": [
                                {
                                    "code": "1",
                                    "display": "1"
                                }
                            ]
                        },
                        "preferred": true
                    }
                ],
                "maritalStatus": {
                    "coding": [
                        {
                            "code": "2",
                            "display": "2"
                        }
                    ]
                },
                "deceasedBoolean": false,
                "extension": [
                    {
                        "url": "http://hl7.org/fhir/us/core/StructureDefinition/us-core-race",
                        "extension": [
                            {
                                "url": "ombCategory",
                                "valueCoding": {
                                    "code": "1",
                                    "display": "1"
                                }
                            },
                            {
                                "url": "text",
                                "valueString": "1"
                            }
                        ]
                    }
                ]
            },
            "request": {
                "method": "PUT",
                "url": "Patient/bab5ca58-f272-4c06-4b3f-f9661e45a22b"
            }
        },
        {
            "fullUrl": "urn:uuid:f70a39cb-cf13-6f75-885d-cf691752c711",
            "resource": {
                "resourceType": "Account",
                "id": "f70a39cb-cf13-6f75-885d-cf691752c711",
                "identifier": [
                    {
                        "value": "40007716",
                        "type": {
                            "coding": [
                                {
                                    "code": "VN",
                                    "system": "http://terminology.hl7.org/CodeSystem/v2-0203",
                                    "display": "Visit number"
                                }
                            ]
                        },
                        "system": "http://example.com/v2-to-fhir-converter/assigning-authority-local-system-AccMgr"
                    }
                ],
                "status": "active",
                "subject": [
                    {
                        "reference": "Patient/bab5ca58-f272-4c06-4b3f-f9661e45a22b"
                    }
                ]
            },
            "request": {
                "method": "PUT",
                "url": "Account/f70a39cb-cf13-6f75-885d-cf691752c711"
            }
        },
        {
            "fullUrl": "urn:uuid:24b96f9a-359e-fc62-bf8a-45e4f1b4c6e9",
            "resource": {
                "resourceType": "Observation",
                "id": "24b96f9a-359e-fc62-bf8a-45e4f1b4c6e9",
                "status": "final",
                "code": {
                    "coding": [
                        {
                            "code": "30180-4",
                            "display": "BASOPHILS/100 LEUKOCYTES",
                            "system": "http://loinc.org"
                        }
                    ]
                },
                "valueQuantity": {
                    "value": 0,
                    "unit": "%"
                },
                "effectiveDateTime": "2014-10-06T08:30:00",
                "interpretation": [
                    {
                        "coding": [
                            {
                                "code": "N",
                                "display": "Normal",
                                "system": "http://terminology.hl7.org/CodeSystem/v3-ObservationInterpretation"
                            }
                        ]
                    }
                ],
                "subject": {
                    "reference": "Patient/bab5ca58-f272-4c06-4b3f-f9661e45a22b"
                },
                "extension": [
                    {
                        "url": "http://example.com/v2-to-fhir-converter/Observation_Status",
                        "valueCodeableConcept": {
                            "coding": [
                                {
                                    "code": "F",
                                    "display": "Final",
                                    "system": "http://terminology.hl7.org/CodeSystem/v2-0085"
                                }
                            ],
                            "text": "Final"
                        }
                    }
                ],
                "basedOn": [
                    {
                        "reference": "ServiceRequest/99bb45ed-8d61-675b-dec1-6ee32bfa054a"
                    }
                ]
            },
            "request": {
                "method": "PUT",
                "url": "Observation/24b96f9a-359e-fc62-bf8a-45e4f1b4c6e9"
            }
        },
        {
            "fullUrl": "urn:uuid:1b81a0d2-b102-41aa-421b-ac645e962ce4",
            "resource": {
                "resourceType": "Observation",
                "id": "1b81a0d2-b102-41aa-421b-ac645e962ce4",
                "status": "final",
                "code": {
                    "coding": [
                        {
                            "code": "23761-0",
                            "display": "NEUTROPHILS/100 LEUKOCYTES",
                            "system": "http://loinc.org"
                        }
                    ]
                },
                "valueQuantity": {
                    "value": 72,
                    "unit": "%"
                },
                "effectiveDateTime": "2014-10-06T08:30:00",
                "interpretation": [
                    {
                        "coding": [
                            {
                                "code": "N",
                                "display": "Normal",
                                "system": "http://terminology.hl7.org/CodeSystem/v3-ObservationInterpretation"
                            }
                        ]
                    }
                ],
                "subject": {
                    "reference": "Patient/bab5ca58-f272-4c06-4b3f-f9661e45a22b"
                },
                "extension": [
                    {
                        "url": "http://example.com/v2-to-fhir-converter/Observation_Status",
                        "valueCodeableConcept": {
                            "coding": [
                                {
                                    "code": "F",
                                    "display": "Final",
                                    "system": "http://terminology.hl7.org/CodeSystem/v2-0085"
                                }
                            ],
                            "text": "Final"
                        }
                    }
                ],
                "basedOn": [
                    {
                        "reference": "ServiceRequest/99bb45ed-8d61-675b-dec1-6ee32bfa054a"
                    }
                ]
            },
            "request": {
                "method": "PUT",
                "url": "Observation/1b81a0d2-b102-41aa-421b-ac645e962ce4"
            }
        },
        {
            "fullUrl": "urn:uuid:26534e50-b8b4-2ec3-7f8d-c33d4c7792f1",
            "resource": {
                "resourceType": "Observation",
                "id": "26534e50-b8b4-2ec3-7f8d-c33d4c7792f1",
                "status": "final",
                "code": {
                    "coding": [
                        {
                            "code": "26450-7",
                            "display": "EOSINOPHILS/100 LEUKOCYTES",
                            "system": "http://loinc.org"
                        }
                    ]
                },
                "valueQuantity": {
                    "value": 2,
                    "unit": "%"
                },
                "effectiveDateTime": "2014-10-06T08:30:00",
                "interpretation": [
                    {
                        "coding": [
                            {
                                "code": "N",
                                "display": "Normal",
                                "system": "http://terminology.hl7.org/CodeSystem/v3-ObservationInterpretation"
                            }
                        ]
                    }
                ],
                "subject": {
                    "reference": "Patient/bab5ca58-f272-4c06-4b3f-f9661e45a22b"
                },
                "extension": [
                    {
                        "url": "http://example.com/v2-to-fhir-converter/Observation_Status",
                        "valueCodeableConcept": {
                            "coding": [
                                {
                                    "code": "F",
                                    "display": "Final",
                                    "system": "http://terminology.hl7.org/CodeSystem/v2-0085"
                                }
                            ],
                            "text": "Final"
                        }
                    }
                ],
                "basedOn": [
                    {
                        "reference": "ServiceRequest/99bb45ed-8d61-675b-dec1-6ee32bfa054a"
                    }
                ]
            },
            "request": {
                "method": "PUT",
                "url": "Observation/26534e50-b8b4-2ec3-7f8d-c33d4c7792f1"
            }
        },
        {
            "fullUrl": "urn:uuid:7878e0ad-8700-5b8b-47d9-7acff0e1eb34",
            "resource": {
                "resourceType": "Observation",
                "id": "7878e0ad-8700-5b8b-47d9-7acff0e1eb34",
                "status": "final",
                "code": {
                    "coding": [
                        {
                            "code": "26478-8",
                            "display": "LYMPHOCYTES/100 LEUKOCYTES",
                            "system": "http://loinc.org"
                        }
                    ]
                },
                "valueQuantity": {
                    "value": 20,
                    "unit": "%"
                },
                "effectiveDateTime": "2014-10-06T08:30:00",
                "interpretation": [
                    {
                        "coding": [
                            {
                                "code": "N",
                                "display": "Normal",
                                "system": "http://terminology.hl7.org/CodeSystem/v3-ObservationInterpretation"
                            }
                        ]
                    }
                ],
                "subject": {
                    "reference": "Patient/bab5ca58-f272-4c06-4b3f-f9661e45a22b"
                },
                "extension": [
                    {
                        "url": "http://example.com/v2-to-fhir-converter/Observation_Status",
                        "valueCodeableConcept": {
                            "coding": [
                                {
                                    "code": "F",
                                    "display": "Final",
                                    "system": "http://terminology.hl7.org/CodeSystem/v2-0085"
                                }
                            ],
                            "text": "Final"
                        }
                    }
                ],
                "basedOn": [
                    {
                        "reference": "ServiceRequest/99bb45ed-8d61-675b-dec1-6ee32bfa054a"
                    }
                ]
            },
            "request": {
                "method": "PUT",
                "url": "Observation/7878e0ad-8700-5b8b-47d9-7acff0e1eb34"
            }
        },
        {
            "fullUrl": "urn:uuid:437fa03d-5559-9f37-42ed-482f65dd47ce",
            "resource": {
                "resourceType": "Observation",
                "id": "437fa03d-5559-9f37-42ed-482f65dd47ce",
                "status": "final",
                "code": {
                    "coding": [
                        {
                            "code": "26485-3",
                            "display": "MONOCYTES/100 LEUKOCYTES",
                            "system": "http://loinc.org"
                        }
                    ]
                },
                "valueQuantity": {
                    "value": 6,
                    "unit": "%"
                },
                "effectiveDateTime": "2014-10-06T08:30:00",
                "interpretation": [
                    {
                        "coding": [
                            {
                                "code": "N",
                                "display": "Normal",
                                "system": "http://terminology.hl7.org/CodeSystem/v3-ObservationInterpretation"
                            }
                        ]
                    }
                ],
                "subject": {
                    "reference": "Patient/bab5ca58-f272-4c06-4b3f-f9661e45a22b"
                },
                "extension": [
                    {
                        "url": "http://example.com/v2-to-fhir-converter/Observation_Status",
                        "valueCodeableConcept": {
                            "coding": [
                                {
                                    "code": "F",
                                    "display": "Final",
                                    "system": "http://terminology.hl7.org/CodeSystem/v2-0085"
                                }
                            ],
                            "text": "Final"
                        }
                    }
                ],
                "basedOn": [
                    {
                        "reference": "ServiceRequest/99bb45ed-8d61-675b-dec1-6ee32bfa054a"
                    }
                ]
            },
            "request": {
                "method": "PUT",
                "url": "Observation/437fa03d-5559-9f37-42ed-482f65dd47ce"
            }
        },
        {
            "fullUrl": "urn:uuid:99bb45ed-8d61-675b-dec1-6ee32bfa054a",
            "resource": {
                "resourceType": "ServiceRequest",
                "id": "99bb45ed-8d61-675b-dec1-6ee32bfa054a",
                "status": "active",
                "intent": "filler-order",
                "identifier": [
                    {
                        "value": "855238581",
                        "type": {
                            "coding": [
                                {
                                    "code": "PLAC",
                                    "system": "http://terminology.hl7.org/CodeSystem/v2-0203"
                                }
                            ]
                        }
                    },
                    {
                        "value": "890775544",
                        "type": {
                            "coding": [
                                {
                                    "code": "FILL",
                                    "system": "http://terminology.hl7.org/CodeSystem/v2-0203"
                                }
                            ]
                        }
                    }
                ],
                "code": {
                    "coding": [
                        {
                            "code": "26464-8",
                            "display": "Differential WBC Count, buffy coat",
                            "system": "http://loinc.org"
                        }
                    ]
                },
                "subject": {
                    "reference": "Patient/bab5ca58-f272-4c06-4b3f-f9661e45a22b"
                },
                "requester": {
                    "reference": "PractitionerRole/907170a0-a8af-89c5-5a30-6b78cdb227c5"
                },
                "specimen": [
                    {
                        "reference": "Specimen/e8c2bedc-f247-6e63-2c6f-a58e26f24c33"
                    }
                ]
            },
            "request": {
                "method": "PUT",
                "url": "ServiceRequest/99bb45ed-8d61-675b-dec1-6ee32bfa054a"
            }
        },
        {
            "fullUrl": "urn:uuid:15decf11-00dc-6867-9c35-ffd79977d5b9",
            "resource": {
                "resourceType": "Practitioner",
                "id": "15decf11-00dc-6867-9c35-ffd79977d5b9",
                "name": [
                    {
                        "family": "URO",
                        "prefix": [
                            "DR"
                        ]
                    }
                ]
            },
            "request": {
                "method": "PUT",
                "url": "Practitioner/15decf11-00dc-6867-9c35-ffd79977d5b9"
            }
        },
        {
            "fullUrl": "urn:uuid:907170a0-a8af-89c5-5a30-6b78cdb227c5",
            "resource": {
                "resourceType": "PractitionerRole",
                "id": "907170a0-a8af-89c5-5a30-6b78cdb227c5",
                "practitioner": {
                    "reference": "Practitioner/15decf11-00dc-6867-9c35-ffd79977d5b9"
                }
            },
            "request": {
                "method": "PUT",
                "url": "PractitionerRole/907170a0-a8af-89c5-5a30-6b78cdb227c5"
            }
        },
        {
            "fullUrl": "urn:uuid:bd4fd761-3a3c-6084-6bb0-5b21c024b208",
            "resource": {
                "resourceType": "DiagnosticReport",
                "id": "bd4fd761-3a3c-6084-6bb0-5b21c024b208",
                "identifier": [
                    {
                        "value": "855238581",
                        "type": {
                            "coding": [
                                {
                                    "code": "PLAC",
                                    "system": "http://terminology.hl7.org/CodeSystem/v2-0203"
                                }
                            ]
                        }
                    },
                    {
                        "value": "890775544",
                        "type": {
                            "coding": [
                                {
                                    "code": "FILL",
                                    "system": "http://terminology.hl7.org/CodeSystem/v2-0203"
                                }
                            ]
                        }
                    }
                ],
                "code": {
                    "coding": [
                        {
                            "code": "26464-8",
                            "display": "Differential WBC Count, buffy coat",
                            "system": "http://loinc.org"
                        }
                    ]
                },
                "status": "unknown",
                "subject": {
                    "reference": "Patient/bab5ca58-f272-4c06-4b3f-f9661e45a22b"
                },
                "basedOn": [
                    {
                        "reference": "ServiceRequest/99bb45ed-8d61-675b-dec1-6ee32bfa054a"
                    }
                ],
                "specimen": [
                    {
                        "reference": "Specimen/e8c2bedc-f247-6e63-2c6f-a58e26f24c33"
                    }
                ],
                "result": [
                    {
                        "reference": "Observation/24b96f9a-359e-fc62-bf8a-45e4f1b4c6e9"
                    },
                    {
                        "reference": "Observation/1b81a0d2-b102-41aa-421b-ac645e962ce4"
                    },
                    {
                        "reference": "Observation/26534e50-b8b4-2ec3-7f8d-c33d4c7792f1"
                    },
                    {
                        "reference": "Observation/7878e0ad-8700-5b8b-47d9-7acff0e1eb34"
                    },
                    {
                        "reference": "Observation/437fa03d-5559-9f37-42ed-482f65dd47ce"
                    }
                ]
            },
            "request": {
                "method": "PUT",
                "url": "DiagnosticReport/bd4fd761-3a3c-6084-6bb0-5b21c024b208"
            }
        },
        {
            "fullUrl": "urn:uuid:e8c2bedc-f247-6e63-2c6f-a58e26f24c33",
            "resource": {
                "resourceType": "Specimen",
                "id": "e8c2bedc-f247-6e63-2c6f-a58e26f24c33",
                "collection": {
                    "collector": {
                        "reference": "PractitionerRole/be571888-010e-9a32-e87f-f1ee1bd631a8"
                    }
                },
                "identifier": [
                    {
                        "value": "855238581",
                        "type": {
                            "coding": [
                                {
                                    "code": "PLAC",
                                    "system": "http://terminology.hl7.org/CodeSystem/v2-0203"
                                }
                            ]
                        }
                    },
                    {
                        "value": "890775544",
                        "type": {
                            "coding": [
                                {
                                    "code": "FILL",
                                    "system": "http://terminology.hl7.org/CodeSystem/v2-0203"
                                }
                            ]
                        }
                    }
                ]
            },
            "request": {
                "method": "PUT",
                "url": "Specimen/e8c2bedc-f247-6e63-2c6f-a58e26f24c33"
            }
        },
        {
            "fullUrl": "urn:uuid:da437276-fd7c-eb21-1885-4041aa59c483",
            "resource": {
                "resourceType": "Practitioner",
                "id": "da437276-fd7c-eb21-1885-4041aa59c483",
                "name": [
                    {
                        "family": "COLLECT",
                        "given": [
                            "JOHN"
                        ]
                    }
                ]
            },
            "request": {
                "method": "PUT",
                "url": "Practitioner/da437276-fd7c-eb21-1885-4041aa59c483"
            }
        },
        {
            "fullUrl": "urn:uuid:be571888-010e-9a32-e87f-f1ee1bd631a8",
            "resource": {
                "resourceType": "PractitionerRole",
                "id": "be571888-010e-9a32-e87f-f1ee1bd631a8",
                "practitioner": {
                    "reference": "Practitioner/da437276-fd7c-eb21-1885-4041aa59c483"
                }
            },
            "request": {
                "method": "PUT",
                "url": "PractitionerRole/be571888-010e-9a32-e87f-f1ee1bd631a8"
            }
        },
        {
            "fullUrl": "urn:uuid:6006d57e-e0a3-d90e-7d9b-546ed575c527",
            "resource": {
                "resourceType": "Specimen",
                "id": "6006d57e-e0a3-d90e-7d9b-546ed575c527",
                "collection": {
                    "collectedDateTime": "2014-10-06T05:35:00"
                },
                "receivedTime": "2014-10-06T06:21:00",
                "identifier": [
                    {
                        "value": "SpecimenID",
                        "type": {
                            "coding": [
                                {
                                    "code": "PGN",
                                    "system": "http://terminology.hl7.org/CodeSystem/v2-0203"
                                }
                            ]
                        }
                    }
                ],
                "type": {
                    "coding": [
                        {
                            "code": "BLD",
                            "system": "http://terminology.hl7.org/CodeSystem/v2-0487"
                        }
                    ]
                },
                "status": "available"
            },
            "request": {
                "method": "PUT",
                "url": "Specimen/6006d57e-e0a3-d90e-7d9b-546ed575c527"
            }
        },
        {
            "fullUrl": "urn:uuid:8c207e70-3fd2-2bf4-df75-256240c60258",
            "resource": {
                "resourceType": "Observation",
                "id": "8c207e70-3fd2-2bf4-df75-256240c60258",
                "status": "final",
                "code": {
                    "coding": [
                        {
                            "code": "20509-6",
                            "display": "HEMOGLOBIN",
                            "system": "http://loinc.org"
                        }
                    ]
                },
                "valueQuantity": {
                    "value": 13.4,
                    "unit": "g/l-1"
                },
                "effectiveDateTime": "2014-10-06T08:30:00",
                "interpretation": [
                    {
                        "coding": [
                            {
                                "code": "N",
                                "display": "Normal",
                                "system": "http://terminology.hl7.org/CodeSystem/v3-ObservationInterpretation"
                            }
                        ]
                    }
                ],
                "subject": {
                    "reference": "Patient/bab5ca58-f272-4c06-4b3f-f9661e45a22b"
                },
                "specimen": {
                    "reference": "Specimen/6006d57e-e0a3-d90e-7d9b-546ed575c527"
                },
                "extension": [
                    {
                        "url": "http://example.com/v2-to-fhir-converter/Observation_Status",
                        "valueCodeableConcept": {
                            "coding": [
                                {
                                    "code": "F",
                                    "display": "Final",
                                    "system": "http://terminology.hl7.org/CodeSystem/v2-0085"
                                }
                            ],
                            "text": "Final"
                        }
                    }
                ],
                "basedOn": [
                    {
                        "reference": "ServiceRequest/b1410115-e911-9d20-3570-fc3c1e5c347e"
                    }
                ]
            },
            "request": {
                "method": "PUT",
                "url": "Observation/8c207e70-3fd2-2bf4-df75-256240c60258"
            }
        },
        {
            "fullUrl": "urn:uuid:874ee31e-885c-d582-b76d-e145e99a2945",
            "resource": {
                "resourceType": "Observation",
                "id": "874ee31e-885c-d582-b76d-e145e99a2945",
                "status": "final",
                "code": {
                    "coding": [
                        {
                            "code": "11156-7",
                            "display": "LEUKOCYTES",
                            "system": "http://loinc.org"
                        }
                    ]
                },
                "valueQuantity": {
                    "value": 8.2,
                    "unit": "giga.l-1"
                },
                "effectiveDateTime": "2014-10-06T08:30:00",
                "interpretation": [
                    {
                        "coding": [
                            {
                                "code": "N",
                                "display": "Normal",
                                "system": "http://terminology.hl7.org/CodeSystem/v3-ObservationInterpretation"
                            }
                        ]
                    }
                ],
                "subject": {
                    "reference": "Patient/bab5ca58-f272-4c06-4b3f-f9661e45a22b"
                },
                "specimen": {
                    "reference": "Specimen/6006d57e-e0a3-d90e-7d9b-546ed575c527"
                },
                "extension": [
                    {
                        "url": "http://example.com/v2-to-fhir-converter/Observation_Status",
                        "valueCodeableConcept": {
                            "coding": [
                                {
                                    "code": "F",
                                    "display": "Final",
                                    "system": "http://terminology.hl7.org/CodeSystem/v2-0085"
                                }
                            ],
                            "text": "Final"
                        }
                    }
                ],
                "basedOn": [
                    {
                        "reference": "ServiceRequest/b1410115-e911-9d20-3570-fc3c1e5c347e"
                    }
                ]
            },
            "request": {
                "method": "PUT",
                "url": "Observation/874ee31e-885c-d582-b76d-e145e99a2945"
            }
        },
        {
            "fullUrl": "urn:uuid:be4f90a2-a433-fb21-0f23-70e43de46be5",
            "resource": {
                "resourceType": "Observation",
                "id": "be4f90a2-a433-fb21-0f23-70e43de46be5",
                "status": "final",
                "code": {
                    "coding": [
                        {
                            "code": "11273-0",
                            "display": "ERYTHROCYTES",
                            "system": "http://loinc.org"
                        }
                    ]
                },
                "valueQuantity": {
                    "value": 4.08,
                    "unit": "tera.l-1"
                },
                "effectiveDateTime": "2014-10-06T08:30:00",
                "interpretation": [
                    {
                        "coding": [
                            {
                                "code": "N",
                                "display": "Normal",
                                "system": "http://terminology.hl7.org/CodeSystem/v3-ObservationInterpretation"
                            }
                        ]
                    }
                ],
                "subject": {
                    "reference": "Patient/bab5ca58-f272-4c06-4b3f-f9661e45a22b"
                },
                "specimen": {
                    "reference": "Specimen/6006d57e-e0a3-d90e-7d9b-546ed575c527"
                },
                "extension": [
                    {
                        "url": "http://example.com/v2-to-fhir-converter/Observation_Status",
                        "valueCodeableConcept": {
                            "coding": [
                                {
                                    "code": "F",
                                    "display": "Final",
                                    "system": "http://terminology.hl7.org/CodeSystem/v2-0085"
                                }
                            ],
                            "text": "Final"
                        }
                    }
                ],
                "basedOn": [
                    {
                        "reference": "ServiceRequest/b1410115-e911-9d20-3570-fc3c1e5c347e"
                    }
                ]
            },
            "request": {
                "method": "PUT",
                "url": "Observation/be4f90a2-a433-fb21-0f23-70e43de46be5"
            }
        },
        {
            "fullUrl": "urn:uuid:146f1ba0-2940-de97-93af-6c0dc64e54b2",
            "resource": {
                "resourceType": "Observation",
                "id": "146f1ba0-2940-de97-93af-6c0dc64e54b2",
                "status": "final",
                "code": {
                    "coding": [
                        {
                            "code": "20570-8",
                            "display": "HEMATOCRIT",
                            "system": "http://loinc.org"
                        }
                    ]
                },
                "valueQuantity": {
                    "value": 39.7,
                    "unit": "%"
                },
                "effectiveDateTime": "2014-10-06T08:30:00",
                "interpretation": [
                    {
                        "coding": [
                            {
                                "code": "N",
                                "display": "Normal",
                                "system": "http://terminology.hl7.org/CodeSystem/v3-ObservationInterpretation"
                            }
                        ]
                    }
                ],
                "subject": {
                    "reference": "Patient/bab5ca58-f272-4c06-4b3f-f9661e45a22b"
                },
                "specimen": {
                    "reference": "Specimen/6006d57e-e0a3-d90e-7d9b-546ed575c527"
                },
                "extension": [
                    {
                        "url": "http://example.com/v2-to-fhir-converter/Observation_Status",
                        "valueCodeableConcept": {
                            "coding": [
                                {
                                    "code": "F",
                                    "display": "Final",
                                    "system": "http://terminology.hl7.org/CodeSystem/v2-0085"
                                }
                            ],
                            "text": "Final"
                        }
                    }
                ],
                "basedOn": [
                    {
                        "reference": "ServiceRequest/b1410115-e911-9d20-3570-fc3c1e5c347e"
                    }
                ]
            },
            "request": {
                "method": "PUT",
                "url": "Observation/146f1ba0-2940-de97-93af-6c0dc64e54b2"
            }
        },
        {
            "fullUrl": "urn:uuid:30282793-eed9-7f34-ea78-c9465ef05757",
            "resource": {
                "resourceType": "Observation",
                "id": "30282793-eed9-7f34-ea78-c9465ef05757",
                "status": "final",
                "code": {
                    "coding": [
                        {
                            "code": "11125-2",
                            "display": "PLATELETS",
                            "system": "http://loinc.org"
                        }
                    ]
                },
                "valueQuantity": {
                    "value": 220,
                    "unit": "giga.l-1"
                },
                "effectiveDateTime": "2014-10-06T08:30:00",
                "interpretation": [
                    {
                        "coding": [
                            {
                                "code": "N",
                                "display": "Normal",
                                "system": "http://terminology.hl7.org/CodeSystem/v3-ObservationInterpretation"
                            }
                        ]
                    }
                ],
                "subject": {
                    "reference": "Patient/bab5ca58-f272-4c06-4b3f-f9661e45a22b"
                },
                "specimen": {
                    "reference": "Specimen/6006d57e-e0a3-d90e-7d9b-546ed575c527"
                },
                "extension": [
                    {
                        "url": "http://example.com/v2-to-fhir-converter/Observation_Status",
                        "valueCodeableConcept": {
                            "coding": [
                                {
                                    "code": "F",
                                    "display": "Final",
                                    "system": "http://terminology.hl7.org/CodeSystem/v2-0085"
                                }
                            ],
                            "text": "Final"
                        }
                    }
                ],
                "basedOn": [
                    {
                        "reference": "ServiceRequest/b1410115-e911-9d20-3570-fc3c1e5c347e"
                    }
                ]
            },
            "request": {
                "method": "PUT",
                "url": "Observation/30282793-eed9-7f34-ea78-c9465ef05757"
            }
        },
        {
            "fullUrl": "urn:uuid:b1410115-e911-9d20-3570-fc3c1e5c347e",
            "resource": {
                "resourceType": "ServiceRequest",
                "id": "b1410115-e911-9d20-3570-fc3c1e5c347e",
                "status": "active",
                "intent": "filler-order",
                "identifier": [
                    {
                        "value": "88502218",
                        "type": {
                            "coding": [
                                {
                                    "code": "PLAC",
                                    "system": "http://terminology.hl7.org/CodeSystem/v2-0203"
                                }
                            ]
                        }
                    },
                    {
                        "value": "82503246",
                        "type": {
                            "coding": [
                                {
                                    "code": "FILL",
                                    "system": "http://terminology.hl7.org/CodeSystem/v2-0203"
                                }
                            ]
                        }
                    }
                ],
                "code": {
                    "coding": [
                        {
                            "code": "24317-0",
                            "display": "Hemogram and platelet count, automated",
                            "system": "http://loinc.org"
                        }
                    ]
                },
                "subject": {
                    "reference": "Patient/bab5ca58-f272-4c06-4b3f-f9661e45a22b"
                },
                "requester": {
                    "reference": "PractitionerRole/907170a0-a8af-89c5-5a30-6b78cdb227c5"
                },
                "specimen": [
                    {
                        "reference": "Specimen/f59e2ae9-1b51-5e9f-9ef1-2f05d070db75"
                    }
                ]
            },
            "request": {
                "method": "PUT",
                "url": "ServiceRequest/b1410115-e911-9d20-3570-fc3c1e5c347e"
            }
        },
        {
            "fullUrl": "urn:uuid:43054c97-ac1f-e627-4559-c8ae945117bd",
            "resource": {
                "resourceType": "DiagnosticReport",
                "id": "43054c97-ac1f-e627-4559-c8ae945117bd",
                "identifier": [
                    {
                        "value": "88502218",
                        "type": {
                            "coding": [
                                {
                                    "code": "PLAC",
                                    "system": "http://terminology.hl7.org/CodeSystem/v2-0203"
                                }
                            ]
                        }
                    },
                    {
                        "value": "82503246",
                        "type": {
                            "coding": [
                                {
                                    "code": "FILL",
                                    "system": "http://terminology.hl7.org/CodeSystem/v2-0203"
                                }
                            ]
                        }
                    }
                ],
                "code": {
                    "coding": [
                        {
                            "code": "24317-0",
                            "display": "Hemogram and platelet count, automated",
                            "system": "http://loinc.org"
                        }
                    ]
                },
                "status": "unknown",
                "subject": {
                    "reference": "Patient/bab5ca58-f272-4c06-4b3f-f9661e45a22b"
                },
                "basedOn": [
                    {
                        "reference": "ServiceRequest/b1410115-e911-9d20-3570-fc3c1e5c347e"
                    }
                ],
                "specimen": [
                    {
                        "reference": "Specimen/f59e2ae9-1b51-5e9f-9ef1-2f05d070db75"
                    }
                ],
                "result": [
                    {
                        "reference": "Observation/8c207e70-3fd2-2bf4-df75-256240c60258"
                    },
                    {
                        "reference": "Observation/874ee31e-885c-d582-b76d-e145e99a2945"
                    },
                    {
                        "reference": "Observation/be4f90a2-a433-fb21-0f23-70e43de46be5"
                    },
                    {
                        "reference": "Observation/146f1ba0-2940-de97-93af-6c0dc64e54b2"
                    },
                    {
                        "reference": "Observation/30282793-eed9-7f34-ea78-c9465ef05757"
                    }
                ]
            },
            "request": {
                "method": "PUT",
                "url": "DiagnosticReport/43054c97-ac1f-e627-4559-c8ae945117bd"
            }
        },
        {
            "fullUrl": "urn:uuid:f59e2ae9-1b51-5e9f-9ef1-2f05d070db75",
            "resource": {
                "resourceType": "Specimen",
                "id": "f59e2ae9-1b51-5e9f-9ef1-2f05d070db75",
                "collection": {
                    "collector": {
                        "reference": "PractitionerRole/be571888-010e-9a32-e87f-f1ee1bd631a8"
                    }
                },
                "identifier": [
                    {
                        "value": "88502218",
                        "type": {
                            "coding": [
                                {
                                    "code": "PLAC",
                                    "system": "http://terminology.hl7.org/CodeSystem/v2-0203"
                                }
                            ]
                        }
                    },
                    {
                        "value": "82503246",
                        "type": {
                            "coding": [
                                {
                                    "code": "FILL",
                                    "system": "http://terminology.hl7.org/CodeSystem/v2-0203"
                                }
                            ]
                        }
                    }
                ]
            },
            "request": {
                "method": "PUT",
                "url": "Specimen/f59e2ae9-1b51-5e9f-9ef1-2f05d070db75"
            }
        }
    ]
}