{
  "resourceType": "Bundle",
  "type": "batch",
  "entry": [
    {
      "fullUrl": "urn:uuid:35c86567-5347-8c97-4810-b39dedb9f855",
      "resource": {
        "resourceType": "MessageHeader",
        "id": "35c86567-5347-8c97-4810-b39dedb9f855",
        "source": {
          "name": "SomeSystem"
        },
        "destination": [
          {
            "name": "TransformationAgent"
          }
        ],
        "meta": {
          "tag": [
            {
              "code": "T",
              "system": "http://terminology.hl7.org/CodeSystem/v2-0103"
            }
          ]
        }
      },
      "request": {
        "method": "PUT",
        "url": "MessageHeader/35c86567-5347-8c97-4810-b39dedb9f855"
      }
    },
    {
      "fullUrl": "urn:uuid:bab5ca58-f272-4c06-4b3f-f9661e45a22b",
      "resource": {
        "resourceType": "Patient",
        "id": "bab5ca58-f272-4c06-4b3f-f9661e45a22b",
        "identifier": [
          {
            "value": "10006579",
            "type": {
              "coding": [
                {
                  "code": "MR",
                  "system": "http://terminology.hl7.org/CodeSystem/v2-0203"
                }
              ]
            }
          },
          {
            "value": "123121234",
            "type": {
              "coding": [
                {
                  "code": "SS",
                  "system": "http://terminology.hl7.org/CodeSystem/v2-0203"
                }
              ]
            },
            "system": "http://hl7.org/fhir/sid/us-ssn"
          }
        ],
        "name": [
          {
            "family": "DUCK",
            "given": [
              "DONALD",
              "D"
            ]
          }
        ],
        "birthDate": "1924-10-10",
        "gender": "male",
        "address": [
          {
            "line": [
              "111 DUCK ST"
            ],
            "city": "FOWL",
            "state": "CA",
            "postalCode": "999990000",
            "type": "postal"
          },
          {
            "district": "1"
          }
        ],
        "telecom": [
          {
            "value": "8885551212",
            "use": "home"
          },
          {
            "value": "8885551212",
            "use": "work"
          }
        ],
        "communication": [
          {
            "preferred": true
          }
        ]
      },
      "request": {
        "method": "PUT",
        "url": "Patient/bab5ca58-f272-4c06-4b3f-f9661e45a22b"
      }
    },
    {
      "fullUrl": "urn:uuid:1e298a0f-e932-5a4a-e5e0-e910a77f7949",
      "resource": {
        "resourceType": "Provenance",
        "id": "1e298a0f-e932-5a4a-e5e0-e910a77f7949",
        "agent": [
          {
            "type": {
              "coding": [
                {
                  "code": "author",
                  "system": "http://terminology.hl7.org/CodeSystem/provenance-participant-type"
                }
              ]
            }
          }
        ],
        "recorded": "2014-10-06T09:31:00Z"
      },
      "request": {
        "method": "PUT",
        "url": "Provenance/1e298a0f-e932-5a4a-e5e0-e910a77f7949"
      }
    },
    {
      "fullUrl": "urn:uuid:f70a39cb-cf13-6f75-885d-cf691752c711",
      "resource": {
        "resourceType": "Account",
        "id": "f70a39cb-cf13-6f75-885d-cf691752c711",
        "identifier": [
          {
            "value": "40007716",
            "type": {
              "coding": [
                {
                  "code": "VN",
                  "system": "http://terminology.hl7.org/CodeSystem/v2-0203"
                }
              ]
            }
          }
        ]
      },
      "request": {
        "method": "PUT",
        "url": "Account/f70a39cb-cf13-6f75-885d-cf691752c711"
      }
    },
    {
      "fullUrl": "urn:uuid:c3c41c66-630e-8d1b-2fad-cffb0957da29",
      "resource": {
        "resourceType": "DiagnosticReport",
        "id": "c3c41c66-630e-8d1b-2fad-cffb0957da29",
        "identifier": [
          {
            "type": {
              "coding": [
                {
                  "code": "FILL",
                  "system": "http://terminology.hl7.org/CodeSystem/v2-0203"
                }
              ]
            }
          },
          {
            "value": "855238581"
          },
          {
            "value": "890775544"
          }
        ],
        "code": {
          "coding": [
            {
              "code": "26464-8",
              "display": "Differential WBC Count, buffy coat",
              "system": "LN"
            }
          ]
        },
        "result": [
          {
            "reference": "Observation/24b96f9a-359e-fc62-bf8a-45e4f1b4c6e9"
          },
          {
            "reference": "Observation/1b81a0d2-b102-41aa-421b-ac645e962ce4"
          },
          {
            "reference": "Observation/26534e50-b8b4-2ec3-7f8d-c33d4c7792f1"
          },
          {
            "reference": "Observation/7878e0ad-8700-5b8b-47d9-7acff0e1eb34"
          },
          {
            "reference": "Observation/437fa03d-5559-9f37-42ed-482f65dd47ce"
          }
        ],
        "specimen": [
          {
            "reference": "Specimen/6006d57e-e0a3-d90e-7d9b-546ed575c527"
          }
        ]
      },
      "request": {
        "method": "PUT",
        "url": "DiagnosticReport/c3c41c66-630e-8d1b-2fad-cffb0957da29"
      }
    },
    {
      "fullUrl": "urn:uuid:24b96f9a-359e-fc62-bf8a-45e4f1b4c6e9",
      "resource": {
        "resourceType": "Observation",
        "id": "24b96f9a-359e-fc62-bf8a-45e4f1b4c6e9",
        "code": {
          "coding": [
            {
              "code": "30180-4",
              "display": "BASOPHILS/100 LEUKOCYTES",
              "system": "LN"
            }
          ]
        },
        "valueQuantity": {
          "value": "0",
          "code": "%"
        },
        "interpretation": [
          {
            "coding": [
              {
                "code": "N",
                "display": "Normal",
                "system": "http://terminology.hl7.org/CodeSystem/v3-ObservationInterpretation"
              }
            ]
          }
        ],
        "status": "final",
        "effectiveDateTime": "2014-10-06T08:30:00Z",
        "component": [
          {
            "code": {
              "coding": [
                {
                  "code": "30180-4",
                  "display": "BASOPHILS/100 LEUKOCYTES",
                  "system": "LN"
                }
              ]
            },
            "valueQuantity": {
              "value": "0",
              "code": "%"
            },
            "interpretation": [
              {
                "coding": [
                  {
                    "code": "N",
                    "display": "Normal",
                    "system": "http://terminology.hl7.org/CodeSystem/v3-ObservationInterpretation"
                  }
                ]
              }
            ]
          }
        ],
        "subject": {
          "reference": "Patient/bab5ca58-f272-4c06-4b3f-f9661e45a22b"
        }
      },
      "request": {
        "method": "PUT",
        "url": "Observation/24b96f9a-359e-fc62-bf8a-45e4f1b4c6e9"
      }
    },
    {
      "fullUrl": "urn:uuid:1b81a0d2-b102-41aa-421b-ac645e962ce4",
      "resource": {
        "resourceType": "Observation",
        "id": "1b81a0d2-b102-41aa-421b-ac645e962ce4",
        "code": {
          "coding": [
            {
              "code": "23761-0",
              "display": "NEUTROPHILS/100 LEUKOCYTES",
              "system": "LN"
            }
          ]
        },
        "valueQuantity": {
          "value": "72",
          "code": "%"
        },
        "interpretation": [
          {
            "coding": [
              {
                "code": "N",
                "display": "Normal",
                "system": "http://terminology.hl7.org/CodeSystem/v3-ObservationInterpretation"
              }
            ]
          }
        ],
        "status": "final",
        "effectiveDateTime": "2014-10-06T08:30:00Z",
        "component": [
          {
            "code": {
              "coding": [
                {
                  "code": "23761-0",
                  "display": "NEUTROPHILS/100 LEUKOCYTES",
                  "system": "LN"
                }
              ]
            },
            "valueQuantity": {
              "value": "72",
              "code": "%"
            },
            "interpretation": [
              {
                "coding": [
                  {
                    "code": "N",
                    "display": "Normal",
                    "system": "http://terminology.hl7.org/CodeSystem/v3-ObservationInterpretation"
                  }
                ]
              }
            ]
          }
        ],
        "subject": {
          "reference": "Patient/bab5ca58-f272-4c06-4b3f-f9661e45a22b"
        }
      },
      "request": {
        "method": "PUT",
        "url": "Observation/1b81a0d2-b102-41aa-421b-ac645e962ce4"
      }
    },
    {
      "fullUrl": "urn:uuid:26534e50-b8b4-2ec3-7f8d-c33d4c7792f1",
      "resource": {
        "resourceType": "Observation",
        "id": "26534e50-b8b4-2ec3-7f8d-c33d4c7792f1",
        "code": {
          "coding": [
            {
              "code": "26450-7",
              "display": "EOSINOPHILS/100 LEUKOCYTES",
              "system": "LN"
            }
          ]
        },
        "valueQuantity": {
          "value": "2",
          "code": "%"
        },
        "interpretation": [
          {
            "coding": [
              {
                "code": "N",
                "display": "Normal",
                "system": "http://terminology.hl7.org/CodeSystem/v3-ObservationInterpretation"
              }
            ]
          }
        ],
        "status": "final",
        "effectiveDateTime": "2014-10-06T08:30:00Z",
        "component": [
          {
            "code": {
              "coding": [
                {
                  "code": "26450-7",
                  "display": "EOSINOPHILS/100 LEUKOCYTES",
                  "system": "LN"
                }
              ]
            },
            "valueQuantity": {
              "value": "2",
              "code": "%"
            },
            "interpretation": [
              {
                "coding": [
                  {
                    "code": "N",
                    "display": "Normal",
                    "system": "http://terminology.hl7.org/CodeSystem/v3-ObservationInterpretation"
                  }
                ]
              }
            ]
          }
        ],
        "subject": {
          "reference": "Patient/bab5ca58-f272-4c06-4b3f-f9661e45a22b"
        }
      },
      "request": {
        "method": "PUT",
        "url": "Observation/26534e50-b8b4-2ec3-7f8d-c33d4c7792f1"
      }
    },
    {
      "fullUrl": "urn:uuid:7878e0ad-8700-5b8b-47d9-7acff0e1eb34",
      "resource": {
        "resourceType": "Observation",
        "id": "7878e0ad-8700-5b8b-47d9-7acff0e1eb34",
        "code": {
          "coding": [
            {
              "code": "26478-8",
              "display": "LYMPHOCYTES/100 LEUKOCYTES",
              "system": "LN"
            }
          ]
        },
        "valueQuantity": {
          "value": "20",
          "code": "%"
        },
        "interpretation": [
          {
            "coding": [
              {
                "code": "N",
                "display": "Normal",
                "system": "http://terminology.hl7.org/CodeSystem/v3-ObservationInterpretation"
              }
            ]
          }
        ],
        "status": "final",
        "effectiveDateTime": "2014-10-06T08:30:00Z",
        "component": [
          {
            "code": {
              "coding": [
                {
                  "code": "26478-8",
                  "display": "LYMPHOCYTES/100 LEUKOCYTES",
                  "system": "LN"
                }
              ]
            },
            "valueQuantity": {
              "value": "20",
              "code": "%"
            },
            "interpretation": [
              {
                "coding": [
                  {
                    "code": "N",
                    "display": "Normal",
                    "system": "http://terminology.hl7.org/CodeSystem/v3-ObservationInterpretation"
                  }
                ]
              }
            ]
          }
        ],
        "subject": {
          "reference": "Patient/bab5ca58-f272-4c06-4b3f-f9661e45a22b"
        }
      },
      "request": {
        "method": "PUT",
        "url": "Observation/7878e0ad-8700-5b8b-47d9-7acff0e1eb34"
      }
    },
    {
      "fullUrl": "urn:uuid:437fa03d-5559-9f37-42ed-482f65dd47ce",
      "resource": {
        "resourceType": "Observation",
        "id": "437fa03d-5559-9f37-42ed-482f65dd47ce",
        "code": {
          "coding": [
            {
              "code": "26485-3",
              "display": "MONOCYTES/100 LEUKOCYTES",
              "system": "LN"
            }
          ]
        },
        "valueQuantity": {
          "value": "6",
          "code": "%"
        },
        "interpretation": [
          {
            "coding": [
              {
                "code": "N",
                "display": "Normal",
                "system": "http://terminology.hl7.org/CodeSystem/v3-ObservationInterpretation"
              }
            ]
          }
        ],
        "status": "final",
        "effectiveDateTime": "2014-10-06T08:30:00Z",
        "component": [
          {
            "code": {
              "coding": [
                {
                  "code": "26485-3",
                  "display": "MONOCYTES/100 LEUKOCYTES",
                  "system": "LN"
                }
              ]
            },
            "valueQuantity": {
              "value": "6",
              "code": "%"
            },
            "interpretation": [
              {
                "coding": [
                  {
                    "code": "N",
                    "display": "Normal",
                    "system": "http://terminology.hl7.org/CodeSystem/v3-ObservationInterpretation"
                  }
                ]
              }
            ]
          }
        ],
        "subject": {
          "reference": "Patient/bab5ca58-f272-4c06-4b3f-f9661e45a22b"
        }
      },
      "request": {
        "method": "PUT",
        "url": "Observation/437fa03d-5559-9f37-42ed-482f65dd47ce"
      }
    },
    {
      "fullUrl": "urn:uuid:6006d57e-e0a3-d90e-7d9b-546ed575c527",
      "resource": {
        "resourceType": "Specimen",
        "id": "6006d57e-e0a3-d90e-7d9b-546ed575c527",
        "receivedTime": "2014-10-06T06:21:00Z",
        "identifier": [
          {
            "value": "SpecimenID",
            "type": {
              "coding": [
                {
                  "code": "PLAC",
                  "system": "http://terminology.hl7.org/CodeSystem/v2-0203"
                }
              ]
            }
          }
        ],
        "type": {
          "coding": [
            {
              "code": "BLD"
            }
          ]
        },
        "collection": {
          "collectedDateTime": "2014-10-06T05:35:00Z"
        },
        "status": "available"
      },
      "request": {
        "method": "PUT",
        "url": "Specimen/6006d57e-e0a3-d90e-7d9b-546ed575c527"
      }
    },
    {
      "fullUrl": "urn:uuid:5207c1fc-b68c-7398-6585-264869affbff",
      "resource": {
        "resourceType": "DiagnosticReport",
        "id": "5207c1fc-b68c-7398-6585-264869affbff",
        "identifier": [
          {
            "type": {
              "coding": [
                {
                  "code": "FILL",
                  "system": "http://terminology.hl7.org/CodeSystem/v2-0203"
                }
              ]
            }
          },
          {
            "value": "88502218"
          },
          {
            "value": "82503246"
          }
        ],
        "code": {
          "coding": [
            {
              "code": "24317-0",
              "display": "Hemogram and platelet count, automated",
              "system": "LN"
            }
          ]
        },
        "result": [
          {
            "reference": "Observation/8c207e70-3fd2-2bf4-df75-256240c60258"
          },
          {
            "reference": "Observation/874ee31e-885c-d582-b76d-e145e99a2945"
          },
          {
            "reference": "Observation/be4f90a2-a433-fb21-0f23-70e43de46be5"
          },
          {
            "reference": "Observation/146f1ba0-2940-de97-93af-6c0dc64e54b2"
          },
          {
            "reference": "Observation/30282793-eed9-7f34-ea78-c9465ef05757"
          }
        ],
        "specimen": [
          {
            "reference": "Specimen/6006d57e-e0a3-d90e-7d9b-546ed575c527"
          }
        ]
      },
      "request": {
        "method": "PUT",
        "url": "DiagnosticReport/5207c1fc-b68c-7398-6585-264869affbff"
      }
    },
    {
      "fullUrl": "urn:uuid:8c207e70-3fd2-2bf4-df75-256240c60258",
      "resource": {
        "resourceType": "Observation",
        "id": "8c207e70-3fd2-2bf4-df75-256240c60258",
        "code": {
          "coding": [
            {
              "code": "20509-6",
              "display": "HEMOGLOBIN",
              "system": "LN"
            }
          ]
        },
        "valueQuantity": {
          "value": "13.4",
          "code": "g/l-1"
        },
        "interpretation": [
          {
            "coding": [
              {
                "code": "N",
                "display": "Normal",
                "system": "http://terminology.hl7.org/CodeSystem/v3-ObservationInterpretation"
              }
            ]
          }
        ],
        "status": "final",
        "effectiveDateTime": "2014-10-06T08:30:00Z",
        "component": [
          {
            "code": {
              "coding": [
                {
                  "code": "20509-6",
                  "display": "HEMOGLOBIN",
                  "system": "LN"
                }
              ]
            },
            "valueQuantity": {
              "value": "13.4",
              "code": "g/l-1"
            },
            "interpretation": [
              {
                "coding": [
                  {
                    "code": "N",
                    "display": "Normal",
                    "system": "http://terminology.hl7.org/CodeSystem/v3-ObservationInterpretation"
                  }
                ]
              }
            ]
          }
        ],
        "subject": {
          "reference": "Patient/bab5ca58-f272-4c06-4b3f-f9661e45a22b"
        }
      },
      "request": {
        "method": "PUT",
        "url": "Observation/8c207e70-3fd2-2bf4-df75-256240c60258"
      }
    },
    {
      "fullUrl": "urn:uuid:874ee31e-885c-d582-b76d-e145e99a2945",
      "resource": {
        "resourceType": "Observation",
        "id": "874ee31e-885c-d582-b76d-e145e99a2945",
        "code": {
          "coding": [
            {
              "code": "11156-7",
              "display": "LEUKOCYTES",
              "system": "LN"
            }
          ]
        },
        "valueQuantity": {
          "value": "8.2",
          "code": "giga.l-1"
        },
        "interpretation": [
          {
            "coding": [
              {
                "code": "N",
                "display": "Normal",
                "system": "http://terminology.hl7.org/CodeSystem/v3-ObservationInterpretation"
              }
            ]
          }
        ],
        "status": "final",
        "effectiveDateTime": "2014-10-06T08:30:00Z",
        "component": [
          {
            "code": {
              "coding": [
                {
                  "code": "11156-7",
                  "display": "LEUKOCYTES",
                  "system": "LN"
                }
              ]
            },
            "valueQuantity": {
              "value": "8.2",
              "code": "giga.l-1"
            },
            "interpretation": [
              {
                "coding": [
                  {
                    "code": "N",
                    "display": "Normal",
                    "system": "http://terminology.hl7.org/CodeSystem/v3-ObservationInterpretation"
                  }
                ]
              }
            ]
          }
        ],
        "subject": {
          "reference": "Patient/bab5ca58-f272-4c06-4b3f-f9661e45a22b"
        }
      },
      "request": {
        "method": "PUT",
        "url": "Observation/874ee31e-885c-d582-b76d-e145e99a2945"
      }
    },
    {
      "fullUrl": "urn:uuid:be4f90a2-a433-fb21-0f23-70e43de46be5",
      "resource": {
        "resourceType": "Observation",
        "id": "be4f90a2-a433-fb21-0f23-70e43de46be5",
        "code": {
          "coding": [
            {
              "code": "11273-0",
              "display": "ERYTHROCYTES",
              "system": "LN"
            }
          ]
        },
        "valueQuantity": {
          "value": "4.08",
          "code": "tera.l-1"
        },
        "interpretation": [
          {
            "coding": [
              {
                "code": "N",
                "display": "Normal",
                "system": "http://terminology.hl7.org/CodeSystem/v3-ObservationInterpretation"
              }
            ]
          }
        ],
        "status": "final",
        "effectiveDateTime": "2014-10-06T08:30:00Z",
        "component": [
          {
            "code": {
              "coding": [
                {
                  "code": "11273-0",
                  "display": "ERYTHROCYTES",
                  "system": "LN"
                }
              ]
            },
            "valueQuantity": {
              "value": "4.08",
              "code": "tera.l-1"
            },
            "interpretation": [
              {
                "coding": [
                  {
                    "code": "N",
                    "display": "Normal",
                    "system": "http://terminology.hl7.org/CodeSystem/v3-ObservationInterpretation"
                  }
                ]
              }
            ]
          }
        ],
        "subject": {
          "reference": "Patient/bab5ca58-f272-4c06-4b3f-f9661e45a22b"
        }
      },
      "request": {
        "method": "PUT",
        "url": "Observation/be4f90a2-a433-fb21-0f23-70e43de46be5"
      }
    },
    {
      "fullUrl": "urn:uuid:146f1ba0-2940-de97-93af-6c0dc64e54b2",
      "resource": {
        "resourceType": "Observation",
        "id": "146f1ba0-2940-de97-93af-6c0dc64e54b2",
        "code": {
          "coding": [
            {
              "code": "20570-8",
              "display": "HEMATOCRIT",
              "system": "LN"
            }
          ]
        },
        "valueQuantity": {
          "value": "39.7",
          "code": "%"
        },
        "interpretation": [
          {
            "coding": [
              {
                "code": "N",
                "display": "Normal",
                "system": "http://terminology.hl7.org/CodeSystem/v3-ObservationInterpretation"
              }
            ]
          }
        ],
        "status": "final",
        "effectiveDateTime": "2014-10-06T08:30:00Z",
        "component": [
          {
            "code": {
              "coding": [
                {
                  "code": "20570-8",
                  "display": "HEMATOCRIT",
                  "system": "LN"
                }
              ]
            },
            "valueQuantity": {
              "value": "39.7",
              "code": "%"
            },
            "interpretation": [
              {
                "coding": [
                  {
                    "code": "N",
                    "display": "Normal",
                    "system": "http://terminology.hl7.org/CodeSystem/v3-ObservationInterpretation"
                  }
                ]
              }
            ]
          }
        ],
        "subject": {
          "reference": "Patient/bab5ca58-f272-4c06-4b3f-f9661e45a22b"
        }
      },
      "request": {
        "method": "PUT",
        "url": "Observation/146f1ba0-2940-de97-93af-6c0dc64e54b2"
      }
    },
    {
      "fullUrl": "urn:uuid:30282793-eed9-7f34-ea78-c9465ef05757",
      "resource": {
        "resourceType": "Observation",
        "id": "30282793-eed9-7f34-ea78-c9465ef05757",
        "code": {
          "coding": [
            {
              "code": "11125-2",
              "display": "PLATELETS",
              "system": "LN"
            }
          ]
        },
        "valueQuantity": {
          "value": "220",
          "code": "giga.l-1"
        },
        "interpretation": [
          {
            "coding": [
              {
                "code": "N",
                "display": "Normal",
                "system": "http://terminology.hl7.org/CodeSystem/v3-ObservationInterpretation"
              }
            ]
          }
        ],
        "status": "final",
        "effectiveDateTime": "2014-10-06T08:30:00Z",
        "component": [
          {
            "code": {
              "coding": [
                {
                  "code": "11125-2",
                  "display": "PLATELETS",
                  "system": "LN"
                }
              ]
            },
            "valueQuantity": {
              "value": "220",
              "code": "giga.l-1"
            },
            "interpretation": [
              {
                "coding": [
                  {
                    "code": "N",
                    "display": "Normal",
                    "system": "http://terminology.hl7.org/CodeSystem/v3-ObservationInterpretation"
                  }
                ]
              }
            ]
          }
        ],
        "subject": {
          "reference": "Patient/bab5ca58-f272-4c06-4b3f-f9661e45a22b"
        }
      },
      "request": {
        "method": "PUT",
        "url": "Observation/30282793-eed9-7f34-ea78-c9465ef05757"
      }
    }
  ]
}