{
    "resourceType": "Bundle",
    "type": "batch",
    "timestamp": "2014-10-06T06:45:00",
    "identifier": {
        "value": "182"
    },
    "id": "4d7652e0-2e87-c4b4-72d8-614f50d75e88",
    "entry": [
        {
            "fullUrl": "urn:uuid:f1f46d90-0473-6ea2-ae7f-b3165305d99f",
            "resource": {
                "resourceType": "MessageHeader",
                "id": "f1f46d90-0473-6ea2-ae7f-b3165305d99f",
                "source": {
                    "name": "SomeSystem",
                    "_endpoint": {
                        "extension": [
                            {
                                "url": "http://hl7.org/fhir/StructureDefinition/data-absent-reason",
                                "valueCode": "unknown"
                            }
                        ]
                    }
                },
                "destination": [
                    {
                        "name": "TransformationAgent",
                        "_endpoint": {
                            "extension": [
                                {
                                    "url": "http://hl7.org/fhir/StructureDefinition/data-absent-reason",
                                    "valueCode": "unknown"
                                }
                            ]
                        }
                    }
                ],
                "meta": {
                    "tag": [
                        {
                            "code": "T",
                            "system": "http://terminology.hl7.org/CodeSystem/v2-0103"
                        }
                    ]
                },
                "eventCoding": {
                    "code": "R01",
                    "system": "http://terminology.hl7.org/CodeSystem/v2-0003",
                    "display": "ORU^R01"
                }
            },
            "request": {
                "method": "PUT",
                "url": "MessageHeader/f1f46d90-0473-6ea2-ae7f-b3165305d99f"
            }
        },
        {
            "fullUrl": "urn:uuid:9f79a1ce-a1d5-c6dd-a0d6-3bc75109716c",
            "resource": {
                "resourceType": "Provenance",
                "id": "9f79a1ce-a1d5-c6dd-a0d6-3bc75109716c",
                "text": {
                    "status": "generated",
                    "div": "<div xmlns=\"http://www.w3.org/1999/xhtml\"><p><span>Resource bundle generated on 2021-10-29T08:49:16.824Z using Microsoft FHIR Converter.</span><span>Template Version: TEMPLATE_VERSION_PLACEHOLDER.</span><span>Template URL: https://github.com/microsoft/FHIR-Converter/releases/download/vTEMPLATE_VERSION_PLACEHOLDER/Hl7v2DefaultTemplates.tar.gz.</span><span>Root template: ORU_R01.</span></p></div>"
                },
                "occurredDateTime": "2014-10-06T06:45:00",
                "recorded": "2014-10-06T06:45:00",
                "agent": [
                    {
                        "type": {
                            "coding": [
                                {
                                    "code": "author",
                                    "system": "http://terminology.hl7.org/CodeSystem/provenance-participant-type"
                                }
                            ]
                        }
                    }
                ],
                "activity": {
                    "coding": [
                        {
                            "display": "ORU^R01^"
                        }
                    ]
                },
                "target": [
                    {
                        "reference": "Bundle/4d7652e0-2e87-c4b4-72d8-614f50d75e88"
                    }
                ]
            },
            "request": {
                "method": "PUT",
                "url": "Provenance/9f79a1ce-a1d5-c6dd-a0d6-3bc75109716c"
            }
        },
        {
            "fullUrl": "urn:uuid:bab5ca58-f272-4c06-4b3f-f9661e45a22b",
            "resource": {
                "resourceType": "Patient",
                "id": "bab5ca58-f272-4c06-4b3f-f9661e45a22b",
                "identifier": [
                    {
                        "value": "10006579",
                        "type": {
                            "coding": [
                                {
                                    "code": "MR",
                                    "system": "http://terminology.hl7.org/CodeSystem/v2-0203",
                                    "display": "Medical record number"
                                }
                            ]
                        },
                        "system": "http://example.com/v2-to-fhir-converter/assigning-authority-local-system-1"
                    },
                    {
                        "value": "123121234",
                        "type": {
                            "coding": [
                                {
                                    "code": "SB",
                                    "system": "http://terminology.hl7.org/CodeSystem/v2-0203"
                                }
                            ]
                        },
                        "system": "http://hl7.org/fhir/sid/us-ssn"
                    }
                ],
                "name": [
                    {
                        "family": "DUCK",
                        "given": [
                            "DONALD",
                            "D"
                        ]
                    }
                ],
                "birthDate": "1924-10-10",
                "gender": "male",
                "address": [
                    {
                        "line": [
                            "111 DUCK ST"
                        ],
                        "city": "FOWL",
                        "state": "CA",
                        "postalCode": "999990000",
                        "type": "postal"
                    },
                    {
                        "district": "1"
                    }
                ],
                "telecom": [
                    {
                        "value": "8885551212",
                        "use": "home"
                    },
                    {
                        "value": "8885551212",
                        "use": "work"
                    }
                ],
                "communication": [
                    {
                        "language": {
                            "coding": [
                                {
                                    "code": "1",
                                    "display": "1"
                                }
                            ]
                        },
                        "preferred": true
                    }
                ],
                "maritalStatus": {
                    "coding": [
                        {
                            "code": "2",
                            "display": "2"
                        }
                    ]
                },
                "deceasedBoolean": false,
                "extension": [
                    {
                        "url": "http://hl7.org/fhir/us/core/StructureDefinition/us-core-race",
                        "extension": [
                            {
                                "url": "ombCategory",
                                "valueCoding": {
                                    "code": "1",
                                    "display": "1"
                                }
                            },
                            {
                                "url": "text",
                                "valueString": "1"
                            }
                        ]
                    }
                ]
            },
            "request": {
                "method": "PUT",
                "url": "Patient/bab5ca58-f272-4c06-4b3f-f9661e45a22b"
            }
        },
        {
            "fullUrl": "urn:uuid:f70a39cb-cf13-6f75-885d-cf691752c711",
            "resource": {
                "resourceType": "Account",
                "id": "f70a39cb-cf13-6f75-885d-cf691752c711",
                "identifier": [
                    {
                        "value": "40007716",
                        "type": {
                            "coding": [
                                {
                                    "code": "VN",
                                    "system": "http://terminology.hl7.org/CodeSystem/v2-0203",
                                    "display": "Visit number"
                                }
                            ]
                        },
                        "system": "http://example.com/v2-to-fhir-converter/assigning-authority-local-system-AccMgr"
                    }
                ],
                "status": "active",
                "subject": [
                    {
                        "reference": "Patient/bab5ca58-f272-4c06-4b3f-f9661e45a22b"
                    }
                ]
            },
            "request": {
                "method": "PUT",
                "url": "Account/f70a39cb-cf13-6f75-885d-cf691752c711"
            }
        },
        {
            "fullUrl": "urn:uuid:f736fbb2-aafc-4e52-abb9-20d77d01d302",
            "resource": {
                "resourceType": "Observation",
                "id": "f736fbb2-aafc-4e52-abb9-20d77d01d302",
                "status": "unknown",
                "code": {
                    "coding": [
                        {
                            "code": "11156-7",
                            "display": "LEUKOCYTES",
                            "system": "http://loinc.org"
                        }
                    ]
                },
                "subject": {
                    "reference": "Patient/bab5ca58-f272-4c06-4b3f-f9661e45a22b"
                },
                "extension": [
                    {
                        "url": "http://example.com/v2-to-fhir-converter/Observation_Status",
                        "valueCodeableConcept": {
                            "coding": [
                                {
                                    "code": "I",
                                    "display": "In Process",
                                    "system": "http://terminology.hl7.org/CodeSystem/v2-0085"
                                }
                            ],
                            "text": "In Process"
                        }
                    }
                ],
                "basedOn": [
                    {
                        "reference": "ServiceRequest/0c653f12-916b-8b2a-511a-96b2fb03e3af"
                    }
                ]
            },
            "request": {
                "method": "PUT",
                "url": "Observation/f736fbb2-aafc-4e52-abb9-20d77d01d302"
            }
        },
        {
            "fullUrl": "urn:uuid:1ef60c39-1161-0129-a263-b693d23f90c3",
            "resource": {
                "resourceType": "Observation",
                "id": "1ef60c39-1161-0129-a263-b693d23f90c3",
                "status": "preliminary",
                "code": {
                    "coding": [
                        {
                            "code": "11273-0",
                            "display": "ERYTHROCYTES",
                            "system": "http://loinc.org"
                        }
                    ]
                },
                "valueQuantity": {
                    "value": 4.06,
                    "unit": "tera.l-1"
                },
                "effectiveDateTime": "2014-10-06T06:27:00",
                "interpretation": [
                    {
                        "coding": [
                            {
                                "code": "N",
                                "display": "Normal",
                                "system": "http://terminology.hl7.org/CodeSystem/v3-ObservationInterpretation"
                            }
                        ]
                    }
                ],
                "subject": {
                    "reference": "Patient/bab5ca58-f272-4c06-4b3f-f9661e45a22b"
                },
                "extension": [
                    {
                        "url": "http://example.com/v2-to-fhir-converter/Observation_Status",
                        "valueCodeableConcept": {
                            "coding": [
                                {
                                    "code": "P",
                                    "display": "Preliminary",
                                    "system": "http://terminology.hl7.org/CodeSystem/v2-0085"
                                }
                            ],
                            "text": "Preliminary"
                        }
                    }
                ],
                "basedOn": [
                    {
                        "reference": "ServiceRequest/0c653f12-916b-8b2a-511a-96b2fb03e3af"
                    }
                ]
            },
            "request": {
                "method": "PUT",
                "url": "Observation/1ef60c39-1161-0129-a263-b693d23f90c3"
            }
        },
        {
            "fullUrl": "urn:uuid:fa77427d-7606-99a5-ae91-f316de160668",
            "resource": {
                "resourceType": "Observation",
                "id": "fa77427d-7606-99a5-ae91-f316de160668",
                "status": "unknown",
                "code": {
                    "coding": [
                        {
                            "code": "20509-6",
                            "display": "HEMOGLOBIN",
                            "system": "http://loinc.org"
                        }
                    ]
                },
                "subject": {
                    "reference": "Patient/bab5ca58-f272-4c06-4b3f-f9661e45a22b"
                },
                "extension": [
                    {
                        "url": "http://example.com/v2-to-fhir-converter/Observation_Status",
                        "valueCodeableConcept": {
                            "coding": [
                                {
                                    "code": "I",
                                    "display": "In Process",
                                    "system": "http://terminology.hl7.org/CodeSystem/v2-0085"
                                }
                            ],
                            "text": "In Process"
                        }
                    }
                ],
                "basedOn": [
                    {
                        "reference": "ServiceRequest/0c653f12-916b-8b2a-511a-96b2fb03e3af"
                    }
                ]
            },
            "request": {
                "method": "PUT",
                "url": "Observation/fa77427d-7606-99a5-ae91-f316de160668"
            }
        },
        {
            "fullUrl": "urn:uuid:2f7b51cf-44f5-547d-2815-747fd4ec7a88",
            "resource": {
                "resourceType": "Observation",
                "id": "2f7b51cf-44f5-547d-2815-747fd4ec7a88",
                "status": "preliminary",
                "code": {
                    "coding": [
                        {
                            "code": "20570-8",
                            "display": "HEMATOCRIT",
                            "system": "http://loinc.org"
                        }
                    ]
                },
                "valueQuantity": {
                    "value": 40.1,
                    "unit": "%"
                },
                "effectiveDateTime": "2014-10-06T08:30:00",
                "interpretation": [
                    {
                        "coding": [
                            {
                                "code": "N",
                                "display": "Normal",
                                "system": "http://terminology.hl7.org/CodeSystem/v3-ObservationInterpretation"
                            }
                        ]
                    }
                ],
                "subject": {
                    "reference": "Patient/bab5ca58-f272-4c06-4b3f-f9661e45a22b"
                },
                "extension": [
                    {
                        "url": "http://example.com/v2-to-fhir-converter/Observation_Status",
                        "valueCodeableConcept": {
                            "coding": [
                                {
                                    "code": "P",
                                    "display": "Preliminary",
                                    "system": "http://terminology.hl7.org/CodeSystem/v2-0085"
                                }
                            ],
                            "text": "Preliminary"
                        }
                    }
                ],
                "basedOn": [
                    {
                        "reference": "ServiceRequest/0c653f12-916b-8b2a-511a-96b2fb03e3af"
                    }
                ]
            },
            "request": {
                "method": "PUT",
                "url": "Observation/2f7b51cf-44f5-547d-2815-747fd4ec7a88"
            }
        },
        {
            "fullUrl": "urn:uuid:73bdfe72-5f9f-31fc-ad22-90e1ccf2d7fe",
            "resource": {
                "resourceType": "Observation",
                "id": "73bdfe72-5f9f-31fc-ad22-90e1ccf2d7fe",
                "status": "final",
                "code": {
                    "coding": [
                        {
                            "code": "11125-2",
                            "display": "PLATELETS",
                            "system": "http://loinc.org"
                        }
                    ]
                },
                "valueQuantity": {
                    "value": 221,
                    "unit": "giga.l-1"
                },
                "effectiveDateTime": "2014-10-06T08:30:00",
                "interpretation": [
                    {
                        "coding": [
                            {
                                "code": "N",
                                "display": "Normal",
                                "system": "http://terminology.hl7.org/CodeSystem/v3-ObservationInterpretation"
                            }
                        ]
                    }
                ],
                "subject": {
                    "reference": "Patient/bab5ca58-f272-4c06-4b3f-f9661e45a22b"
                },
                "extension": [
                    {
                        "url": "http://example.com/v2-to-fhir-converter/Observation_Status",
                        "valueCodeableConcept": {
                            "coding": [
                                {
                                    "code": "F",
                                    "display": "Final",
                                    "system": "http://terminology.hl7.org/CodeSystem/v2-0085"
                                }
                            ],
                            "text": "Final"
                        }
                    }
                ],
                "basedOn": [
                    {
                        "reference": "ServiceRequest/0c653f12-916b-8b2a-511a-96b2fb03e3af"
                    }
                ]
            },
            "request": {
                "method": "PUT",
                "url": "Observation/73bdfe72-5f9f-31fc-ad22-90e1ccf2d7fe"
            }
        },
        {
            "fullUrl": "urn:uuid:0c653f12-916b-8b2a-511a-96b2fb03e3af",
            "resource": {
                "resourceType": "ServiceRequest",
                "id": "0c653f12-916b-8b2a-511a-96b2fb03e3af",
                "status": "active",
                "intent": "filler-order",
                "identifier": [
                    {
                        "value": "88502218",
                        "type": {
                            "coding": [
                                {
                                    "code": "PLAC",
                                    "system": "http://terminology.hl7.org/CodeSystem/v2-0203"
                                }
                            ]
                        }
                    },
                    {
                        "value": "82503246",
                        "type": {
                            "coding": [
                                {
                                    "code": "FILL",
                                    "system": "http://terminology.hl7.org/CodeSystem/v2-0203"
                                }
                            ]
                        }
                    }
                ],
                "code": {
                    "coding": [
                        {
                            "code": "24317-0",
                            "display": "Hemogram and platelet count, automated",
                            "system": "http://loinc.org"
                        }
                    ]
                },
                "subject": {
                    "reference": "Patient/bab5ca58-f272-4c06-4b3f-f9661e45a22b"
                },
                "requester": {
                    "reference": "PractitionerRole/907170a0-a8af-89c5-5a30-6b78cdb227c5"
                },
                "specimen": [
                    {
                        "reference": "Specimen/1385d82a-b545-84d8-803a-e65c038399c8"
                    }
                ]
            },
            "request": {
                "method": "PUT",
                "url": "ServiceRequest/0c653f12-916b-8b2a-511a-96b2fb03e3af"
            }
        },
        {
            "fullUrl": "urn:uuid:15decf11-00dc-6867-9c35-ffd79977d5b9",
            "resource": {
                "resourceType": "Practitioner",
                "id": "15decf11-00dc-6867-9c35-ffd79977d5b9",
                "name": [
                    {
                        "family": "URO",
                        "prefix": [
                            "DR"
                        ]
                    }
                ]
            },
            "request": {
                "method": "PUT",
                "url": "Practitioner/15decf11-00dc-6867-9c35-ffd79977d5b9"
            }
        },
        {
            "fullUrl": "urn:uuid:907170a0-a8af-89c5-5a30-6b78cdb227c5",
            "resource": {
                "resourceType": "PractitionerRole",
                "id": "907170a0-a8af-89c5-5a30-6b78cdb227c5",
                "practitioner": {
                    "reference": "Practitioner/15decf11-00dc-6867-9c35-ffd79977d5b9"
                }
            },
            "request": {
                "method": "PUT",
                "url": "PractitionerRole/907170a0-a8af-89c5-5a30-6b78cdb227c5"
            }
        },
        {
            "fullUrl": "urn:uuid:6bb755e5-a74c-c3f0-e18b-a92b568c4b19",
            "resource": {
                "resourceType": "DiagnosticReport",
                "id": "6bb755e5-a74c-c3f0-e18b-a92b568c4b19",
                "identifier": [
                    {
                        "value": "88502218",
                        "type": {
                            "coding": [
                                {
                                    "code": "PLAC",
                                    "system": "http://terminology.hl7.org/CodeSystem/v2-0203"
                                }
                            ]
                        }
                    },
                    {
                        "value": "82503246",
                        "type": {
                            "coding": [
                                {
                                    "code": "FILL",
                                    "system": "http://terminology.hl7.org/CodeSystem/v2-0203"
                                }
                            ]
                        }
                    }
                ],
                "code": {
                    "coding": [
                        {
                            "code": "24317-0",
                            "display": "Hemogram and platelet count, automated",
                            "system": "http://loinc.org"
                        }
                    ]
                },
                "status": "final",
                "subject": {
                    "reference": "Patient/bab5ca58-f272-4c06-4b3f-f9661e45a22b"
                },
                "basedOn": [
                    {
                        "reference": "ServiceRequest/0c653f12-916b-8b2a-511a-96b2fb03e3af"
                    }
                ],
                "specimen": [
                    {
                        "reference": "Specimen/1385d82a-b545-84d8-803a-e65c038399c8"
                    }
                ],
                "result": [
                    {
                        "reference": "Observation/f736fbb2-aafc-4e52-abb9-20d77d01d302"
                    },
                    {
                        "reference": "Observation/1ef60c39-1161-0129-a263-b693d23f90c3"
                    },
                    {
                        "reference": "Observation/fa77427d-7606-99a5-ae91-f316de160668"
                    },
                    {
                        "reference": "Observation/2f7b51cf-44f5-547d-2815-747fd4ec7a88"
                    },
                    {
                        "reference": "Observation/73bdfe72-5f9f-31fc-ad22-90e1ccf2d7fe"
                    }
                ]
            },
            "request": {
                "method": "PUT",
                "url": "DiagnosticReport/6bb755e5-a74c-c3f0-e18b-a92b568c4b19"
            }
        },
        {
            "fullUrl": "urn:uuid:1385d82a-b545-84d8-803a-e65c038399c8",
            "resource": {
                "resourceType": "Specimen",
                "id": "1385d82a-b545-84d8-803a-e65c038399c8",
                "collection": {
                    "collector": {
                        "reference": "PractitionerRole/be571888-010e-9a32-e87f-f1ee1bd631a8"
                    }
                },
                "identifier": [
                    {
                        "value": "88502218",
                        "type": {
                            "coding": [
                                {
                                    "code": "PLAC",
                                    "system": "http://terminology.hl7.org/CodeSystem/v2-0203"
                                }
                            ]
                        }
                    },
                    {
                        "value": "82503246",
                        "type": {
                            "coding": [
                                {
                                    "code": "FILL",
                                    "system": "http://terminology.hl7.org/CodeSystem/v2-0203"
                                }
                            ]
                        }
                    }
                ]
            },
            "request": {
                "method": "PUT",
                "url": "Specimen/1385d82a-b545-84d8-803a-e65c038399c8"
            }
        },
        {
            "fullUrl": "urn:uuid:da437276-fd7c-eb21-1885-4041aa59c483",
            "resource": {
                "resourceType": "Practitioner",
                "id": "da437276-fd7c-eb21-1885-4041aa59c483",
                "name": [
                    {
                        "family": "COLLECT",
                        "given": [
                            "JOHN"
                        ]
                    }
                ]
            },
            "request": {
                "method": "PUT",
                "url": "Practitioner/da437276-fd7c-eb21-1885-4041aa59c483"
            }
        },
        {
            "fullUrl": "urn:uuid:be571888-010e-9a32-e87f-f1ee1bd631a8",
            "resource": {
                "resourceType": "PractitionerRole",
                "id": "be571888-010e-9a32-e87f-f1ee1bd631a8",
                "practitioner": {
                    "reference": "Practitioner/da437276-fd7c-eb21-1885-4041aa59c483"
                }
            },
            "request": {
                "method": "PUT",
                "url": "PractitionerRole/be571888-010e-9a32-e87f-f1ee1bd631a8"
            }
        },
        {
            "fullUrl": "urn:uuid:7c7cbbd6-4a47-b606-9d5b-dc2d6a03e663",
            "resource": {
                "resourceType": "Specimen",
                "id": "7c7cbbd6-4a47-b606-9d5b-dc2d6a03e663",
                "collection": {
                    "collectedDateTime": "2014-10-06T05:35:00"
                },
                "receivedTime": "2014-10-06T08:21:00",
                "identifier": [
                    {
                        "value": "SpecimenID",
                        "type": {
                            "coding": [
                                {
                                    "code": "PGN",
                                    "system": "http://terminology.hl7.org/CodeSystem/v2-0203"
                                }
                            ]
                        }
                    }
                ],
                "type": {
                    "coding": [
                        {
                            "code": "BLD",
                            "system": "http://terminology.hl7.org/CodeSystem/v2-0487"
                        }
                    ]
                },
                "status": "available"
            },
            "request": {
                "method": "PUT",
                "url": "Specimen/7c7cbbd6-4a47-b606-9d5b-dc2d6a03e663"
            }
        },
        {
            "fullUrl": "urn:uuid:f3f13545-5a9c-5279-e1a3-6faff5d56778",
            "resource": {
                "resourceType": "Observation",
                "id": "f3f13545-5a9c-5279-e1a3-6faff5d56778",
                "status": "preliminary",
                "code": {
                    "coding": [
                        {
                            "code": "23761-0",
                            "display": "NEUTROPHILS/100 LEUKOCYTES",
                            "system": "http://loinc.org"
                        }
                    ]
                },
                "valueQuantity": {
                    "value": 72,
                    "unit": "%"
                },
                "effectiveDateTime": "2014-10-06T06:27:00",
                "interpretation": [
                    {
                        "coding": [
                            {
                                "code": "N",
                                "display": "Normal",
                                "system": "http://terminology.hl7.org/CodeSystem/v3-ObservationInterpretation"
                            }
                        ]
                    }
                ],
                "subject": {
                    "reference": "Patient/bab5ca58-f272-4c06-4b3f-f9661e45a22b"
                },
                "specimen": {
                    "reference": "Specimen/7c7cbbd6-4a47-b606-9d5b-dc2d6a03e663"
                },
                "extension": [
                    {
                        "url": "http://example.com/v2-to-fhir-converter/Observation_Status",
                        "valueCodeableConcept": {
                            "coding": [
                                {
                                    "code": "P",
                                    "display": "Preliminary",
                                    "system": "http://terminology.hl7.org/CodeSystem/v2-0085"
                                }
                            ],
                            "text": "Preliminary"
                        }
                    }
                ],
                "basedOn": [
                    {
                        "reference": "ServiceRequest/99bb45ed-8d61-675b-dec1-6ee32bfa054a"
                    }
                ]
            },
            "request": {
                "method": "PUT",
                "url": "Observation/f3f13545-5a9c-5279-e1a3-6faff5d56778"
            }
        },
        {
            "fullUrl": "urn:uuid:690c7dfd-8d22-ac69-0f11-bf58da18db99",
            "resource": {
                "resourceType": "Observation",
                "id": "690c7dfd-8d22-ac69-0f11-bf58da18db99",
                "status": "preliminary",
                "code": {
                    "coding": [
                        {
                            "code": "26450-7",
                            "display": "EOSINOPHILS/100 LEUKOCYTES",
                            "system": "http://loinc.org"
                        }
                    ]
                },
                "valueQuantity": {
                    "value": 2,
                    "unit": "%"
                },
                "effectiveDateTime": "2014-10-06T06:27:00",
                "interpretation": [
                    {
                        "coding": [
                            {
                                "code": "N",
                                "display": "Normal",
                                "system": "http://terminology.hl7.org/CodeSystem/v3-ObservationInterpretation"
                            }
                        ]
                    }
                ],
                "subject": {
                    "reference": "Patient/bab5ca58-f272-4c06-4b3f-f9661e45a22b"
                },
                "specimen": {
                    "reference": "Specimen/7c7cbbd6-4a47-b606-9d5b-dc2d6a03e663"
                },
                "extension": [
                    {
                        "url": "http://example.com/v2-to-fhir-converter/Observation_Status",
                        "valueCodeableConcept": {
                            "coding": [
                                {
                                    "code": "P",
                                    "display": "Preliminary",
                                    "system": "http://terminology.hl7.org/CodeSystem/v2-0085"
                                }
                            ],
                            "text": "Preliminary"
                        }
                    }
                ],
                "basedOn": [
                    {
                        "reference": "ServiceRequest/99bb45ed-8d61-675b-dec1-6ee32bfa054a"
                    }
                ]
            },
            "request": {
                "method": "PUT",
                "url": "Observation/690c7dfd-8d22-ac69-0f11-bf58da18db99"
            }
        },
        {
            "fullUrl": "urn:uuid:4bb79fc0-148e-6d5b-b111-6e09c39ec56e",
            "resource": {
                "resourceType": "Observation",
                "id": "4bb79fc0-148e-6d5b-b111-6e09c39ec56e",
                "status": "preliminary",
                "code": {
                    "coding": [
                        {
                            "code": "26478-8",
                            "display": "LYMPHOCYTES/100 LEUKOCYTES",
                            "system": "http://loinc.org"
                        }
                    ]
                },
                "valueQuantity": {
                    "value": 20,
                    "unit": "%"
                },
                "effectiveDateTime": "2014-10-06T06:27:00",
                "interpretation": [
                    {
                        "coding": [
                            {
                                "code": "N",
                                "display": "Normal",
                                "system": "http://terminology.hl7.org/CodeSystem/v3-ObservationInterpretation"
                            }
                        ]
                    }
                ],
                "subject": {
                    "reference": "Patient/bab5ca58-f272-4c06-4b3f-f9661e45a22b"
                },
                "specimen": {
                    "reference": "Specimen/7c7cbbd6-4a47-b606-9d5b-dc2d6a03e663"
                },
                "extension": [
                    {
                        "url": "http://example.com/v2-to-fhir-converter/Observation_Status",
                        "valueCodeableConcept": {
                            "coding": [
                                {
                                    "code": "P",
                                    "display": "Preliminary",
                                    "system": "http://terminology.hl7.org/CodeSystem/v2-0085"
                                }
                            ],
                            "text": "Preliminary"
                        }
                    }
                ],
                "basedOn": [
                    {
                        "reference": "ServiceRequest/99bb45ed-8d61-675b-dec1-6ee32bfa054a"
                    }
                ]
            },
            "request": {
                "method": "PUT",
                "url": "Observation/4bb79fc0-148e-6d5b-b111-6e09c39ec56e"
            }
        },
        {
            "fullUrl": "urn:uuid:5597ddac-19fb-6893-705d-65097d31b66b",
            "resource": {
                "resourceType": "Observation",
                "id": "5597ddac-19fb-6893-705d-65097d31b66b",
                "status": "preliminary",
                "code": {
                    "coding": [
                        {
                            "code": "26485-3",
                            "display": "MONOCYTES/100 LEUKOCYTES",
                            "system": "http://loinc.org"
                        }
                    ]
                },
                "valueQuantity": {
                    "value": 6,
                    "unit": "%"
                },
                "effectiveDateTime": "2014-10-06T06:27:00",
                "interpretation": [
                    {
                        "coding": [
                            {
                                "code": "N",
                                "display": "Normal",
                                "system": "http://terminology.hl7.org/CodeSystem/v3-ObservationInterpretation"
                            }
                        ]
                    }
                ],
                "subject": {
                    "reference": "Patient/bab5ca58-f272-4c06-4b3f-f9661e45a22b"
                },
                "specimen": {
                    "reference": "Specimen/7c7cbbd6-4a47-b606-9d5b-dc2d6a03e663"
                },
                "extension": [
                    {
                        "url": "http://example.com/v2-to-fhir-converter/Observation_Status",
                        "valueCodeableConcept": {
                            "coding": [
                                {
                                    "code": "P",
                                    "display": "Preliminary",
                                    "system": "http://terminology.hl7.org/CodeSystem/v2-0085"
                                }
                            ],
                            "text": "Preliminary"
                        }
                    }
                ],
                "basedOn": [
                    {
                        "reference": "ServiceRequest/99bb45ed-8d61-675b-dec1-6ee32bfa054a"
                    }
                ]
            },
            "request": {
                "method": "PUT",
                "url": "Observation/5597ddac-19fb-6893-705d-65097d31b66b"
            }
        },
        {
            "fullUrl": "urn:uuid:e4412677-d1c2-f97d-b765-5bdfb16cdac5",
            "resource": {
                "resourceType": "Observation",
                "id": "e4412677-d1c2-f97d-b765-5bdfb16cdac5",
                "status": "preliminary",
                "code": {
                    "coding": [
                        {
                            "code": "30180-4",
                            "display": "BASOPHILS/100 LEUKOCYTES",
                            "system": "http://loinc.org"
                        }
                    ]
                },
                "valueQuantity": {
                    "value": 0,
                    "unit": "%"
                },
                "effectiveDateTime": "2014-10-06T06:27:00",
                "interpretation": [
                    {
                        "coding": [
                            {
                                "code": "N",
                                "display": "Normal",
                                "system": "http://terminology.hl7.org/CodeSystem/v3-ObservationInterpretation"
                            }
                        ]
                    }
                ],
                "subject": {
                    "reference": "Patient/bab5ca58-f272-4c06-4b3f-f9661e45a22b"
                },
                "specimen": {
                    "reference": "Specimen/7c7cbbd6-4a47-b606-9d5b-dc2d6a03e663"
                },
                "extension": [
                    {
                        "url": "http://example.com/v2-to-fhir-converter/Observation_Status",
                        "valueCodeableConcept": {
                            "coding": [
                                {
                                    "code": "P",
                                    "display": "Preliminary",
                                    "system": "http://terminology.hl7.org/CodeSystem/v2-0085"
                                }
                            ],
                            "text": "Preliminary"
                        }
                    }
                ],
                "basedOn": [
                    {
                        "reference": "ServiceRequest/99bb45ed-8d61-675b-dec1-6ee32bfa054a"
                    }
                ]
            },
            "request": {
                "method": "PUT",
                "url": "Observation/e4412677-d1c2-f97d-b765-5bdfb16cdac5"
            }
        },
        {
            "fullUrl": "urn:uuid:99bb45ed-8d61-675b-dec1-6ee32bfa054a",
            "resource": {
                "resourceType": "ServiceRequest",
                "id": "99bb45ed-8d61-675b-dec1-6ee32bfa054a",
                "status": "active",
                "intent": "filler-order",
                "identifier": [
                    {
                        "value": "855238581",
                        "type": {
                            "coding": [
                                {
                                    "code": "PLAC",
                                    "system": "http://terminology.hl7.org/CodeSystem/v2-0203"
                                }
                            ]
                        }
                    },
                    {
                        "value": "890775544",
                        "type": {
                            "coding": [
                                {
                                    "code": "FILL",
                                    "system": "http://terminology.hl7.org/CodeSystem/v2-0203"
                                }
                            ]
                        }
                    }
                ],
                "code": {
                    "coding": [
                        {
                            "code": "26464-8",
                            "display": "Differential WBC Count, buffy coat",
                            "system": "http://loinc.org"
                        }
                    ]
                },
                "subject": {
                    "reference": "Patient/bab5ca58-f272-4c06-4b3f-f9661e45a22b"
                },
                "requester": {
                    "reference": "PractitionerRole/907170a0-a8af-89c5-5a30-6b78cdb227c5"
                },
                "specimen": [
                    {
                        "reference": "Specimen/e8c2bedc-f247-6e63-2c6f-a58e26f24c33"
                    }
                ]
            },
            "request": {
                "method": "PUT",
                "url": "ServiceRequest/99bb45ed-8d61-675b-dec1-6ee32bfa054a"
            }
        },
        {
            "fullUrl": "urn:uuid:bd4fd761-3a3c-6084-6bb0-5b21c024b208",
            "resource": {
                "resourceType": "DiagnosticReport",
                "id": "bd4fd761-3a3c-6084-6bb0-5b21c024b208",
                "identifier": [
                    {
                        "value": "855238581",
                        "type": {
                            "coding": [
                                {
                                    "code": "PLAC",
                                    "system": "http://terminology.hl7.org/CodeSystem/v2-0203"
                                }
                            ]
                        }
                    },
                    {
                        "value": "890775544",
                        "type": {
                            "coding": [
                                {
                                    "code": "FILL",
                                    "system": "http://terminology.hl7.org/CodeSystem/v2-0203"
                                }
                            ]
                        }
                    }
                ],
                "code": {
                    "coding": [
                        {
                            "code": "26464-8",
                            "display": "Differential WBC Count, buffy coat",
                            "system": "http://loinc.org"
                        }
                    ]
                },
                "status": "unknown",
                "subject": {
                    "reference": "Patient/bab5ca58-f272-4c06-4b3f-f9661e45a22b"
                },
                "basedOn": [
                    {
                        "reference": "ServiceRequest/99bb45ed-8d61-675b-dec1-6ee32bfa054a"
                    }
                ],
                "specimen": [
                    {
                        "reference": "Specimen/e8c2bedc-f247-6e63-2c6f-a58e26f24c33"
                    }
                ],
                "result": [
                    {
                        "reference": "Observation/f3f13545-5a9c-5279-e1a3-6faff5d56778"
                    },
                    {
                        "reference": "Observation/690c7dfd-8d22-ac69-0f11-bf58da18db99"
                    },
                    {
                        "reference": "Observation/4bb79fc0-148e-6d5b-b111-6e09c39ec56e"
                    },
                    {
                        "reference": "Observation/5597ddac-19fb-6893-705d-65097d31b66b"
                    },
                    {
                        "reference": "Observation/e4412677-d1c2-f97d-b765-5bdfb16cdac5"
                    }
                ]
            },
            "request": {
                "method": "PUT",
                "url": "DiagnosticReport/bd4fd761-3a3c-6084-6bb0-5b21c024b208"
            }
        },
        {
            "fullUrl": "urn:uuid:e8c2bedc-f247-6e63-2c6f-a58e26f24c33",
            "resource": {
                "resourceType": "Specimen",
                "id": "e8c2bedc-f247-6e63-2c6f-a58e26f24c33",
                "collection": {
                    "collector": {
                        "reference": "PractitionerRole/be571888-010e-9a32-e87f-f1ee1bd631a8"
                    }
                },
                "identifier": [
                    {
                        "value": "855238581",
                        "type": {
                            "coding": [
                                {
                                    "code": "PLAC",
                                    "system": "http://terminology.hl7.org/CodeSystem/v2-0203"
                                }
                            ]
                        }
                    },
                    {
                        "value": "890775544",
                        "type": {
                            "coding": [
                                {
                                    "code": "FILL",
                                    "system": "http://terminology.hl7.org/CodeSystem/v2-0203"
                                }
                            ]
                        }
                    }
                ]
            },
            "request": {
                "method": "PUT",
                "url": "Specimen/e8c2bedc-f247-6e63-2c6f-a58e26f24c33"
            }
        }
    ]
}