{
  "resourceType": "Bundle",
  "type": "batch",
  "timestamp": "2014-10-06T06:45:00",
  "identifier": {
    "value": "182"
  },
  "entry": [
    {
      "fullUrl": "urn:uuid:f1f46d90-0473-6ea2-ae7f-b3165305d99f",
      "resource": {
        "resourceType": "MessageHeader",
        "id": "f1f46d90-0473-6ea2-ae7f-b3165305d99f",
        "source": {
          "name": "SomeSystem"
        },
        "destination": [
          {
            "name": "TransformationAgent"
          }
        ],
        "meta": {
          "tag": [
            {
              "code": "T",
              "system": "http://terminology.hl7.org/CodeSystem/v2-0103"
            }
          ]
        },
        "eventCoding": {
          "code": "R01",
          "system": "http://terminology.hl7.org/CodeSystem/v2-0003"
        }
      },
      "request": {
        "method": "PUT",
        "url": "MessageHeader/f1f46d90-0473-6ea2-ae7f-b3165305d99f"
      }
    },
    {
      "fullUrl": "urn:uuid:bab5ca58-f272-4c06-4b3f-f9661e45a22b",
      "resource": {
        "resourceType": "Patient",
        "id": "bab5ca58-f272-4c06-4b3f-f9661e45a22b",
        "identifier": [
          {
            "value": "10006579",
            "type": {
              "coding": [
                {
                  "code": "MR",
                  "system": "http://terminology.hl7.org/CodeSystem/v2-0203"
                }
              ]
            }
          },
          {
            "value": "123121234",
            "type": {
              "coding": [
                {
                  "code": "SS",
                  "system": "http://terminology.hl7.org/CodeSystem/v2-0203"
                }
              ]
            },
            "system": "http://hl7.org/fhir/sid/us-ssn"
          }
        ],
        "name": [
          {
            "family": "DUCK",
            "given": [
              "DONALD",
              "D"
            ]
          }
        ],
        "birthDate": "1924-10-10",
        "gender": "male",
        "address": [
          {
            "line": [
              "111 DUCK ST"
            ],
            "city": "FOWL",
            "state": "CA",
            "postalCode": "999990000",
            "type": "postal"
          },
          {
            "district": "1"
          }
        ],
        "telecom": [
          {
            "value": "8885551212",
            "use": "home"
          },
          {
            "value": "8885551212",
            "use": "work"
          }
        ],
        "communication": [
          {
            "language": {
              "coding": [
                {
                  "code": "1",
                  "display": "1"
                }
              ]
            },
            "preferred": true
          }
        ],
        "maritalStatus": {
          "coding": [
            {
              "code": "2",
              "display": "2"
            }
          ]
        },
        "deceasedBoolean": "false"
      },
      "request": {
        "method": "PUT",
        "url": "Patient/bab5ca58-f272-4c06-4b3f-f9661e45a22b"
      }
    },
    {
      "fullUrl": "urn:uuid:",
      "resource": {
        "resourceType": "Practitioner"
      },
      "request": {
        "method": "PUT",
        "url": "Practitioner/"
      }
    },
    {
      "fullUrl": "urn:uuid:",
      "resource": {
        "resourceType": "Location"
      },
      "request": {
        "method": "PUT",
        "url": "Location/"
      }
    },
    {
      "fullUrl": "urn:uuid:8834d46e-2efc-8cde-66d2-fd368b4c6e9c",
      "resource": {
        "resourceType": "Provenance",
        "id": "8834d46e-2efc-8cde-66d2-fd368b4c6e9c",
        "text": {
          "status": "generated",
          "div": "<div xmlns=\"http://www.w3.org/1999/xhtml\"><p><span>Resource bundle generated on 2021-04-09T05:48:18.785Z using Microsoft FHIR Converter.</span><span>Template Version: 3.5.1.</span><span>Template URL: https://github.com/microsoft/FHIR-Converter/releases/download/v3.5.1/Hl7v2DefaultTemplates.tar.gz.</span><span>Root template: ORU_R01.</span></p><p>Disclaimer: Real world HL7 messages vary in richness and level of conformance with the spec. The output of converter depends on the templates as well as the quality and richness of input messages. Therefore, it is important that you review and validate the Converter output before using those in production.</p></div>"
        },
        "agent": [
          {
            "type": {
              "coding": [
                {
                  "code": "author",
                  "system": "http://terminology.hl7.org/CodeSystem/provenance-participant-type"
                }
              ]
            }
          }
        ],
        "recorded": "2014-10-06T06:45:00"
      },
      "request": {
        "method": "PUT",
        "url": "Provenance/8834d46e-2efc-8cde-66d2-fd368b4c6e9c"
      }
    },
    {
      "fullUrl": "urn:uuid:f70a39cb-cf13-6f75-885d-cf691752c711",
      "resource": {
        "resourceType": "Account",
        "id": "f70a39cb-cf13-6f75-885d-cf691752c711",
        "identifier": [
          {
            "value": "40007716",
            "type": {
              "coding": [
                {
                  "code": "VN",
                  "system": "http://terminology.hl7.org/CodeSystem/v2-0203"
                }
              ]
            }
          }
        ],
        "subject": [
          {
            "reference": "Patient/bab5ca58-f272-4c06-4b3f-f9661e45a22b"
          }
        ]
      },
      "request": {
        "method": "PUT",
        "url": "Account/f70a39cb-cf13-6f75-885d-cf691752c711"
      }
    },
    {
      "fullUrl": "urn:uuid:",
      "resource": {
        "resourceType": "Encounter",
        "status": "unknown",
        "subject": {
          "reference": "Patient/bab5ca58-f272-4c06-4b3f-f9661e45a22b"
        }
      },
      "request": {
        "method": "PUT",
        "url": "Encounter/"
      }
    },
    {
      "fullUrl": "urn:uuid:da437276-fd7c-eb21-1885-4041aa59c483",
      "resource": {
        "resourceType": "Practitioner",
        "id": "da437276-fd7c-eb21-1885-4041aa59c483"
      },
      "request": {
        "method": "PUT",
        "url": "Practitioner/da437276-fd7c-eb21-1885-4041aa59c483"
      }
    },
    {
      "fullUrl": "urn:uuid:abc9f629-6e71-5ca8-488e-283e73338943",
      "resource": {
        "resourceType": "DiagnosticReport",
        "id": "abc9f629-6e71-5ca8-488e-283e73338943",
        "identifier": [
          {
            "type": {
              "coding": [
                {
                  "code": "FILL",
                  "system": "http://terminology.hl7.org/CodeSystem/v2-0203"
                }
              ]
            }
          },
          {
            "value": "88502218"
          },
          {
            "value": "82503246"
          }
        ],
        "code": {
          "coding": [
            {
              "code": "24317-0",
              "display": "Hemogram and platelet count, automated",
              "system": "LN"
            }
          ]
        },
        "status": "final",
        "specimen": [
          {
            "reference": "Practitioner/da437276-fd7c-eb21-1885-4041aa59c483"
          },
          {
            "reference": "Specimen/7c7cbbd6-4a47-b606-9d5b-dc2d6a03e663"
          }
        ],
        "result": [
          {
            "reference": "Observation/f736fbb2-aafc-4e52-abb9-20d77d01d302"
          },
          {
            "reference": "Observation/1ef60c39-1161-0129-a263-b693d23f90c3"
          },
          {
            "reference": "Observation/fa77427d-7606-99a5-ae91-f316de160668"
          },
          {
            "reference": "Observation/2f7b51cf-44f5-547d-2815-747fd4ec7a88"
          },
          {
            "reference": "Observation/73bdfe72-5f9f-31fc-ad22-90e1ccf2d7fe"
          }
        ]
      },
      "request": {
        "method": "PUT",
        "url": "DiagnosticReport/abc9f629-6e71-5ca8-488e-283e73338943"
      }
    },
    {
      "fullUrl": "urn:uuid:",
      "resource": {
        "resourceType": "Organization"
      },
      "request": {
        "method": "PUT",
        "url": "Organization/"
      }
    },
    {
      "fullUrl": "urn:uuid:",
      "resource": {
        "resourceType": "PractitionerRole"
      },
      "request": {
        "method": "PUT",
        "url": "PractitionerRole/"
      }
    },
    {
      "fullUrl": "urn:uuid:",
      "resource": {
        "resourceType": "Device"
      },
      "request": {
        "method": "PUT",
        "url": "Device/"
      }
    },
    {
      "fullUrl": "urn:uuid:f736fbb2-aafc-4e52-abb9-20d77d01d302",
      "resource": {
        "resourceType": "Observation",
        "id": "f736fbb2-aafc-4e52-abb9-20d77d01d302",
        "code": {
          "coding": [
            {
              "code": "11156-7",
              "display": "LEUKOCYTES",
              "system": "LN"
            }
          ]
        },
        "component": [
          {
            "code": {
              "coding": [
                {
                  "code": "11156-7",
                  "display": "LEUKOCYTES",
                  "system": "LN"
                }
              ]
            }
          }
        ],
        "subject": {
          "reference": "Patient/bab5ca58-f272-4c06-4b3f-f9661e45a22b"
        }
      },
      "request": {
        "method": "PUT",
        "url": "Observation/f736fbb2-aafc-4e52-abb9-20d77d01d302"
      }
    },
    {
      "fullUrl": "urn:uuid:1ef60c39-1161-0129-a263-b693d23f90c3",
      "resource": {
        "resourceType": "Observation",
        "id": "1ef60c39-1161-0129-a263-b693d23f90c3",
        "code": {
          "coding": [
            {
              "code": "11273-0",
              "display": "ERYTHROCYTES",
              "system": "LN"
            }
          ]
        },
        "valueQuantity": {
          "value": "4.06",
          "unit": "tera.l-1"
        },
        "interpretation": [
          {
            "coding": [
              {
                "code": "N",
                "display": "Normal",
                "system": "http://terminology.hl7.org/CodeSystem/v3-ObservationInterpretation"
              }
            ]
          }
        ],
        "status": "preliminary",
        "effectiveDateTime": "2014-10-06T06:27:00",
        "component": [
          {
            "code": {
              "coding": [
                {
                  "code": "11273-0",
                  "display": "ERYTHROCYTES",
                  "system": "LN"
                }
              ]
            },
            "valueQuantity": {
              "value": "4.06",
              "unit": "tera.l-1"
            },
            "interpretation": [
              {
                "coding": [
                  {
                    "code": "N",
                    "display": "Normal",
                    "system": "http://terminology.hl7.org/CodeSystem/v3-ObservationInterpretation"
                  }
                ]
              }
            ]
          }
        ],
        "subject": {
          "reference": "Patient/bab5ca58-f272-4c06-4b3f-f9661e45a22b"
        }
      },
      "request": {
        "method": "PUT",
        "url": "Observation/1ef60c39-1161-0129-a263-b693d23f90c3"
      }
    },
    {
      "fullUrl": "urn:uuid:fa77427d-7606-99a5-ae91-f316de160668",
      "resource": {
        "resourceType": "Observation",
        "id": "fa77427d-7606-99a5-ae91-f316de160668",
        "code": {
          "coding": [
            {
              "code": "20509-6",
              "display": "HEMOGLOBIN",
              "system": "LN"
            }
          ]
        },
        "component": [
          {
            "code": {
              "coding": [
                {
                  "code": "20509-6",
                  "display": "HEMOGLOBIN",
                  "system": "LN"
                }
              ]
            }
          }
        ],
        "subject": {
          "reference": "Patient/bab5ca58-f272-4c06-4b3f-f9661e45a22b"
        }
      },
      "request": {
        "method": "PUT",
        "url": "Observation/fa77427d-7606-99a5-ae91-f316de160668"
      }
    },
    {
      "fullUrl": "urn:uuid:2f7b51cf-44f5-547d-2815-747fd4ec7a88",
      "resource": {
        "resourceType": "Observation",
        "id": "2f7b51cf-44f5-547d-2815-747fd4ec7a88",
        "code": {
          "coding": [
            {
              "code": "20570-8",
              "display": "HEMATOCRIT",
              "system": "LN"
            }
          ]
        },
        "valueQuantity": {
          "value": "40.1",
          "unit": "%"
        },
        "interpretation": [
          {
            "coding": [
              {
                "code": "N",
                "display": "Normal",
                "system": "http://terminology.hl7.org/CodeSystem/v3-ObservationInterpretation"
              }
            ]
          }
        ],
        "status": "preliminary",
        "effectiveDateTime": "2014-10-06T08:30:00",
        "component": [
          {
            "code": {
              "coding": [
                {
                  "code": "20570-8",
                  "display": "HEMATOCRIT",
                  "system": "LN"
                }
              ]
            },
            "valueQuantity": {
              "value": "40.1",
              "unit": "%"
            },
            "interpretation": [
              {
                "coding": [
                  {
                    "code": "N",
                    "display": "Normal",
                    "system": "http://terminology.hl7.org/CodeSystem/v3-ObservationInterpretation"
                  }
                ]
              }
            ]
          }
        ],
        "subject": {
          "reference": "Patient/bab5ca58-f272-4c06-4b3f-f9661e45a22b"
        }
      },
      "request": {
        "method": "PUT",
        "url": "Observation/2f7b51cf-44f5-547d-2815-747fd4ec7a88"
      }
    },
    {
      "fullUrl": "urn:uuid:73bdfe72-5f9f-31fc-ad22-90e1ccf2d7fe",
      "resource": {
        "resourceType": "Observation",
        "id": "73bdfe72-5f9f-31fc-ad22-90e1ccf2d7fe",
        "code": {
          "coding": [
            {
              "code": "11125-2",
              "display": "PLATELETS",
              "system": "LN"
            }
          ]
        },
        "valueQuantity": {
          "value": "221",
          "unit": "giga.l-1"
        },
        "interpretation": [
          {
            "coding": [
              {
                "code": "N",
                "display": "Normal",
                "system": "http://terminology.hl7.org/CodeSystem/v3-ObservationInterpretation"
              }
            ]
          }
        ],
        "status": "final",
        "effectiveDateTime": "2014-10-06T08:30:00",
        "component": [
          {
            "code": {
              "coding": [
                {
                  "code": "11125-2",
                  "display": "PLATELETS",
                  "system": "LN"
                }
              ]
            },
            "valueQuantity": {
              "value": "221",
              "unit": "giga.l-1"
            },
            "interpretation": [
              {
                "coding": [
                  {
                    "code": "N",
                    "display": "Normal",
                    "system": "http://terminology.hl7.org/CodeSystem/v3-ObservationInterpretation"
                  }
                ]
              }
            ]
          }
        ],
        "subject": {
          "reference": "Patient/bab5ca58-f272-4c06-4b3f-f9661e45a22b"
        }
      },
      "request": {
        "method": "PUT",
        "url": "Observation/73bdfe72-5f9f-31fc-ad22-90e1ccf2d7fe"
      }
    },
    {
      "fullUrl": "urn:uuid:7c7cbbd6-4a47-b606-9d5b-dc2d6a03e663",
      "resource": {
        "resourceType": "Specimen",
        "id": "7c7cbbd6-4a47-b606-9d5b-dc2d6a03e663",
        "collection": {
          "collectedDateTime": "2014-10-06T05:35:00"
        },
        "receivedTime": "2014-10-06T08:21:00",
        "identifier": [
          {
            "value": "SpecimenID",
            "type": {
              "coding": [
                {
                  "code": "PLAC",
                  "system": "http://terminology.hl7.org/CodeSystem/v2-0203"
                }
              ]
            }
          }
        ],
        "type": {
          "coding": [
            {
              "code": "BLD"
            }
          ]
        },
        "status": "available"
      },
      "request": {
        "method": "PUT",
        "url": "Specimen/7c7cbbd6-4a47-b606-9d5b-dc2d6a03e663"
      }
    },
    {
      "fullUrl": "urn:uuid:c3c41c66-630e-8d1b-2fad-cffb0957da29",
      "resource": {
        "resourceType": "DiagnosticReport",
        "id": "c3c41c66-630e-8d1b-2fad-cffb0957da29",
        "identifier": [
          {
            "type": {
              "coding": [
                {
                  "code": "FILL",
                  "system": "http://terminology.hl7.org/CodeSystem/v2-0203"
                }
              ]
            }
          },
          {
            "value": "855238581"
          },
          {
            "value": "890775544"
          }
        ],
        "code": {
          "coding": [
            {
              "code": "26464-8",
              "display": "Differential WBC Count, buffy coat",
              "system": "LN"
            }
          ]
        },
        "specimen": [
          {
            "reference": "Practitioner/da437276-fd7c-eb21-1885-4041aa59c483"
          },
          {
            "reference": "Specimen/7c7cbbd6-4a47-b606-9d5b-dc2d6a03e663"
          }
        ],
        "result": [
          {
            "reference": "Observation/f3f13545-5a9c-5279-e1a3-6faff5d56778"
          },
          {
            "reference": "Observation/690c7dfd-8d22-ac69-0f11-bf58da18db99"
          },
          {
            "reference": "Observation/4bb79fc0-148e-6d5b-b111-6e09c39ec56e"
          },
          {
            "reference": "Observation/5597ddac-19fb-6893-705d-65097d31b66b"
          },
          {
            "reference": "Observation/e4412677-d1c2-f97d-b765-5bdfb16cdac5"
          }
        ]
      },
      "request": {
        "method": "PUT",
        "url": "DiagnosticReport/c3c41c66-630e-8d1b-2fad-cffb0957da29"
      }
    },
    {
      "fullUrl": "urn:uuid:f3f13545-5a9c-5279-e1a3-6faff5d56778",
      "resource": {
        "resourceType": "Observation",
        "id": "f3f13545-5a9c-5279-e1a3-6faff5d56778",
        "code": {
          "coding": [
            {
              "code": "23761-0",
              "display": "NEUTROPHILS/100 LEUKOCYTES",
              "system": "LN"
            }
          ]
        },
        "valueQuantity": {
          "value": "72",
          "unit": "%"
        },
        "interpretation": [
          {
            "coding": [
              {
                "code": "N",
                "display": "Normal",
                "system": "http://terminology.hl7.org/CodeSystem/v3-ObservationInterpretation"
              }
            ]
          }
        ],
        "status": "preliminary",
        "effectiveDateTime": "2014-10-06T06:27:00",
        "component": [
          {
            "code": {
              "coding": [
                {
                  "code": "23761-0",
                  "display": "NEUTROPHILS/100 LEUKOCYTES",
                  "system": "LN"
                }
              ]
            },
            "valueQuantity": {
              "value": "72",
              "unit": "%"
            },
            "interpretation": [
              {
                "coding": [
                  {
                    "code": "N",
                    "display": "Normal",
                    "system": "http://terminology.hl7.org/CodeSystem/v3-ObservationInterpretation"
                  }
                ]
              }
            ]
          }
        ],
        "subject": {
          "reference": "Patient/bab5ca58-f272-4c06-4b3f-f9661e45a22b"
        }
      },
      "request": {
        "method": "PUT",
        "url": "Observation/f3f13545-5a9c-5279-e1a3-6faff5d56778"
      }
    },
    {
      "fullUrl": "urn:uuid:690c7dfd-8d22-ac69-0f11-bf58da18db99",
      "resource": {
        "resourceType": "Observation",
        "id": "690c7dfd-8d22-ac69-0f11-bf58da18db99",
        "code": {
          "coding": [
            {
              "code": "26450-7",
              "display": "EOSINOPHILS/100 LEUKOCYTES",
              "system": "LN"
            }
          ]
        },
        "valueQuantity": {
          "value": "2",
          "unit": "%"
        },
        "interpretation": [
          {
            "coding": [
              {
                "code": "N",
                "display": "Normal",
                "system": "http://terminology.hl7.org/CodeSystem/v3-ObservationInterpretation"
              }
            ]
          }
        ],
        "status": "preliminary",
        "effectiveDateTime": "2014-10-06T06:27:00",
        "component": [
          {
            "code": {
              "coding": [
                {
                  "code": "26450-7",
                  "display": "EOSINOPHILS/100 LEUKOCYTES",
                  "system": "LN"
                }
              ]
            },
            "valueQuantity": {
              "value": "2",
              "unit": "%"
            },
            "interpretation": [
              {
                "coding": [
                  {
                    "code": "N",
                    "display": "Normal",
                    "system": "http://terminology.hl7.org/CodeSystem/v3-ObservationInterpretation"
                  }
                ]
              }
            ]
          }
        ],
        "subject": {
          "reference": "Patient/bab5ca58-f272-4c06-4b3f-f9661e45a22b"
        }
      },
      "request": {
        "method": "PUT",
        "url": "Observation/690c7dfd-8d22-ac69-0f11-bf58da18db99"
      }
    },
    {
      "fullUrl": "urn:uuid:4bb79fc0-148e-6d5b-b111-6e09c39ec56e",
      "resource": {
        "resourceType": "Observation",
        "id": "4bb79fc0-148e-6d5b-b111-6e09c39ec56e",
        "code": {
          "coding": [
            {
              "code": "26478-8",
              "display": "LYMPHOCYTES/100 LEUKOCYTES",
              "system": "LN"
            }
          ]
        },
        "valueQuantity": {
          "value": "20",
          "unit": "%"
        },
        "interpretation": [
          {
            "coding": [
              {
                "code": "N",
                "display": "Normal",
                "system": "http://terminology.hl7.org/CodeSystem/v3-ObservationInterpretation"
              }
            ]
          }
        ],
        "status": "preliminary",
        "effectiveDateTime": "2014-10-06T06:27:00",
        "component": [
          {
            "code": {
              "coding": [
                {
                  "code": "26478-8",
                  "display": "LYMPHOCYTES/100 LEUKOCYTES",
                  "system": "LN"
                }
              ]
            },
            "valueQuantity": {
              "value": "20",
              "unit": "%"
            },
            "interpretation": [
              {
                "coding": [
                  {
                    "code": "N",
                    "display": "Normal",
                    "system": "http://terminology.hl7.org/CodeSystem/v3-ObservationInterpretation"
                  }
                ]
              }
            ]
          }
        ],
        "subject": {
          "reference": "Patient/bab5ca58-f272-4c06-4b3f-f9661e45a22b"
        }
      },
      "request": {
        "method": "PUT",
        "url": "Observation/4bb79fc0-148e-6d5b-b111-6e09c39ec56e"
      }
    },
    {
      "fullUrl": "urn:uuid:5597ddac-19fb-6893-705d-65097d31b66b",
      "resource": {
        "resourceType": "Observation",
        "id": "5597ddac-19fb-6893-705d-65097d31b66b",
        "code": {
          "coding": [
            {
              "code": "26485-3",
              "display": "MONOCYTES/100 LEUKOCYTES",
              "system": "LN"
            }
          ]
        },
        "valueQuantity": {
          "value": "6",
          "unit": "%"
        },
        "interpretation": [
          {
            "coding": [
              {
                "code": "N",
                "display": "Normal",
                "system": "http://terminology.hl7.org/CodeSystem/v3-ObservationInterpretation"
              }
            ]
          }
        ],
        "status": "preliminary",
        "effectiveDateTime": "2014-10-06T06:27:00",
        "component": [
          {
            "code": {
              "coding": [
                {
                  "code": "26485-3",
                  "display": "MONOCYTES/100 LEUKOCYTES",
                  "system": "LN"
                }
              ]
            },
            "valueQuantity": {
              "value": "6",
              "unit": "%"
            },
            "interpretation": [
              {
                "coding": [
                  {
                    "code": "N",
                    "display": "Normal",
                    "system": "http://terminology.hl7.org/CodeSystem/v3-ObservationInterpretation"
                  }
                ]
              }
            ]
          }
        ],
        "subject": {
          "reference": "Patient/bab5ca58-f272-4c06-4b3f-f9661e45a22b"
        }
      },
      "request": {
        "method": "PUT",
        "url": "Observation/5597ddac-19fb-6893-705d-65097d31b66b"
      }
    },
    {
      "fullUrl": "urn:uuid:e4412677-d1c2-f97d-b765-5bdfb16cdac5",
      "resource": {
        "resourceType": "Observation",
        "id": "e4412677-d1c2-f97d-b765-5bdfb16cdac5",
        "code": {
          "coding": [
            {
              "code": "30180-4",
              "display": "BASOPHILS/100 LEUKOCYTES",
              "system": "LN"
            }
          ]
        },
        "valueQuantity": {
          "value": "0",
          "unit": "%"
        },
        "interpretation": [
          {
            "coding": [
              {
                "code": "N",
                "display": "Normal",
                "system": "http://terminology.hl7.org/CodeSystem/v3-ObservationInterpretation"
              }
            ]
          }
        ],
        "status": "preliminary",
        "effectiveDateTime": "2014-10-06T06:27:00",
        "component": [
          {
            "code": {
              "coding": [
                {
                  "code": "30180-4",
                  "display": "BASOPHILS/100 LEUKOCYTES",
                  "system": "LN"
                }
              ]
            },
            "valueQuantity": {
              "value": "0",
              "unit": "%"
            },
            "interpretation": [
              {
                "coding": [
                  {
                    "code": "N",
                    "display": "Normal",
                    "system": "http://terminology.hl7.org/CodeSystem/v3-ObservationInterpretation"
                  }
                ]
              }
            ]
          }
        ],
        "subject": {
          "reference": "Patient/bab5ca58-f272-4c06-4b3f-f9661e45a22b"
        }
      },
      "request": {
        "method": "PUT",
        "url": "Observation/e4412677-d1c2-f97d-b765-5bdfb16cdac5"
      }
    }
  ]
}