{
    "resourceType": "Bundle",
    "type": "batch",
    "timestamp": "2014-10-06T06:45:00+07:00",
    "identifier": {
        "value": "182"
    },
    "id": "4d7652e0-2e87-c4b4-72d8-614f50d75e88",
    "entry": [
        {
            "fullUrl": "urn:uuid:a6b54ec8-e29f-8d5c-d53b-6eb5ba2f2222",
            "resource": {
                "resourceType": "MessageHeader",
                "id": "a6b54ec8-e29f-8d5c-d53b-6eb5ba2f2222",
                "source": {
                    "name": "SomeSystem",
                    "_endpoint": {
                        "extension": [
                            {
                                "url": "http://hl7.org/fhir/StructureDefinition/data-absent-reason",
                                "valueCode": "unknown"
                            }
                        ]
                    }
                },
                "destination": [
                    {
                        "name": "TransformationAgent",
                        "_endpoint": {
                            "extension": [
                                {
                                    "url": "http://hl7.org/fhir/StructureDefinition/data-absent-reason",
                                    "valueCode": "unknown"
                                }
                            ]
                        }
                    }
                ],
                "meta": {
                    "tag": [
                        {
                            "code": "T",
                            "system": "http://terminology.hl7.org/CodeSystem/v2-0103"
                        }
                    ]
                },
                "eventCoding": {
                    "code": "R01",
                    "system": "http://terminology.hl7.org/CodeSystem/v2-0003",
                    "display": "ORU^R01"
                }
            },
            "request": {
                "method": "PUT",
                "url": "MessageHeader/a6b54ec8-e29f-8d5c-d53b-6eb5ba2f2222"
            }
        },
        {
            "fullUrl": "urn:uuid:9f79a1ce-a1d5-c6dd-a0d6-3bc75109716c",
            "resource": {
                "resourceType": "Provenance",
                "id": "9f79a1ce-a1d5-c6dd-a0d6-3bc75109716c",
                "text": {
                    "status": "generated",
                    "div": "<div xmlns=\"http://www.w3.org/1999/xhtml\"><p><span>Resource bundle generated on 2022-03-25T12:58:40.623Z using Microsoft FHIR Converter.</span><span>Template Version: TEMPLATE_VERSION_PLACEHOLDER.</span><span>Template URL: https://github.com/microsoft/FHIR-Converter/releases/download/vTEMPLATE_VERSION_PLACEHOLDER/Hl7v2DefaultTemplates.tar.gz.</span><span>Root template: ORU_R01.</span></p></div>"
                },
                "occurredDateTime": "2014-10-06T06:45:00+07:00",
                "recorded": "2014-10-06T06:45:00+07:00",
                "agent": [
                    {
                        "type": {
                            "coding": [
                                {
                                    "code": "author",
                                    "system": "http://terminology.hl7.org/CodeSystem/provenance-participant-type"
                                }
                            ]
                        }
                    }
                ],
                "activity": {
                    "coding": [
                        {
                            "display": "ORU^R01^"
                        }
                    ]
                },
                "target": [
                    {
                        "reference": "Bundle/4d7652e0-2e87-c4b4-72d8-614f50d75e88"
                    }
                ]
            },
            "request": {
                "method": "PUT",
                "url": "Provenance/9f79a1ce-a1d5-c6dd-a0d6-3bc75109716c"
            }
        },
        {
            "fullUrl": "urn:uuid:bab5ca58-f272-4c06-4b3f-f9661e45a22b",
            "resource": {
                "resourceType": "Patient",
                "id": "bab5ca58-f272-4c06-4b3f-f9661e45a22b",
                "identifier": [
                    {
                        "value": "10006579",
                        "type": {
                            "coding": [
                                {
                                    "code": "MR",
                                    "system": "http://terminology.hl7.org/CodeSystem/v2-0203",
                                    "display": "Medical record number"
                                }
                            ]
                        },
                        "system": "http://example.com/v2-to-fhir-converter/Identifier/1"
                    },
                    {
                        "value": "123121234",
                        "type": {
                            "coding": [
                                {
                                    "code": "SB",
                                    "system": "http://terminology.hl7.org/CodeSystem/v2-0203"
                                }
                            ]
                        },
                        "system": "http://hl7.org/fhir/sid/us-ssn"
                    }
                ],
                "name": [
                    {
                        "family": "DUCK",
                        "given": [
                            "DONALD",
                            "D"
                        ]
                    }
                ],
                "birthDate": "1924-10-10",
                "gender": "male",
                "address": [
                    {
                        "line": [
                            "111 DUCK ST"
                        ],
                        "city": "FOWL",
                        "state": "CA",
                        "postalCode": "999990000",
                        "type": "postal"
                    },
                    {
                        "district": "1"
                    }
                ],
                "telecom": [
                    {
                        "value": "8885551212",
                        "use": "home"
                    },
                    {
                        "value": "8885551212",
                        "use": "work"
                    }
                ],
                "communication": [
                    {
                        "language": {
                            "coding": [
                                {
                                    "code": "1",
                                    "display": "1"
                                }
                            ]
                        },
                        "preferred": true
                    }
                ],
                "maritalStatus": {
                    "coding": [
                        {
                            "code": "2",
                            "display": "2"
                        }
                    ]
                },
                "deceasedBoolean": false,
                "extension": [
                    {
                        "url": "http://hl7.org/fhir/us/core/StructureDefinition/us-core-race",
                        "extension": [
                            {
                                "url": "ombCategory",
                                "valueCoding": {
                                    "code": "1",
                                    "display": "1"
                                }
                            },
                            {
                                "url": "text",
                                "valueString": "1"
                            }
                        ]
                    }
                ]
            },
            "request": {
                "method": "PUT",
                "url": "Patient/bab5ca58-f272-4c06-4b3f-f9661e45a22b"
            }
        },
        {
            "fullUrl": "urn:uuid:58bd65b3-7fe0-55cf-19e9-b3cfbc026fbf",
            "resource": {
                "resourceType": "Account",
                "id": "58bd65b3-7fe0-55cf-19e9-b3cfbc026fbf",
                "identifier": [
                    {
                        "value": "40007716",
                        "type": {
                            "coding": [
                                {
                                    "code": "VN",
                                    "system": "http://terminology.hl7.org/CodeSystem/v2-0203",
                                    "display": "Visit number"
                                }
                            ]
                        },
                        "system": "http://example.com/v2-to-fhir-converter/Identifier/AccMgr"
                    }
                ],
                "status": "active",
                "subject": [
                    {
                        "reference": "Patient/bab5ca58-f272-4c06-4b3f-f9661e45a22b"
                    }
                ]
            },
            "request": {
                "method": "PUT",
                "url": "Account/58bd65b3-7fe0-55cf-19e9-b3cfbc026fbf"
            }
        },
        {
            "fullUrl": "urn:uuid:f736fbb2-aafc-4e52-abb9-20d77d01d302",
            "resource": {
                "resourceType": "Observation",
                "id": "f736fbb2-aafc-4e52-abb9-20d77d01d302",
                "status": "unknown",
                "code": {
                    "coding": [
                        {
                            "code": "11156-7",
                            "display": "LEUKOCYTES",
                            "system": "http://loinc.org"
                        }
                    ]
                },
                "subject": {
                    "reference": "Patient/bab5ca58-f272-4c06-4b3f-f9661e45a22b"
                },
                "extension": [
                    {
                        "url": "http://example.com/v2-to-fhir-converter/Observation_Status",
                        "valueCodeableConcept": {
                            "coding": [
                                {
                                    "code": "I",
                                    "display": "In Process",
                                    "system": "http://terminology.hl7.org/CodeSystem/v2-0085"
                                }
                            ],
                            "text": "In Process"
                        }
                    }
                ],
                "basedOn": [
                    {
                        "reference": "ServiceRequest/5c4619c4-2cf9-44bb-a2cd-262665709d4a"
                    }
                ]
            },
            "request": {
                "method": "PUT",
                "url": "Observation/f736fbb2-aafc-4e52-abb9-20d77d01d302"
            }
        },
        {
            "fullUrl": "urn:uuid:a3d33254-dd17-6444-46af-27da3fad4375",
            "resource": {
                "resourceType": "Observation",
                "id": "a3d33254-dd17-6444-46af-27da3fad4375",
                "status": "preliminary",
                "code": {
                    "coding": [
                        {
                            "code": "11273-0",
                            "display": "ERYTHROCYTES",
                            "system": "http://loinc.org"
                        }
                    ]
                },
                "valueQuantity": {
                    "value": 4.06,
                    "unit": "tera.l-1"
                },
                "effectiveDateTime": "2014-10-06T06:27:00+07:00",
                "interpretation": [
                    {
                        "coding": [
                            {
                                "code": "N",
                                "display": "Normal",
                                "system": "http://terminology.hl7.org/CodeSystem/v3-ObservationInterpretation"
                            }
                        ]
                    }
                ],
                "subject": {
                    "reference": "Patient/bab5ca58-f272-4c06-4b3f-f9661e45a22b"
                },
                "extension": [
                    {
                        "url": "http://example.com/v2-to-fhir-converter/Observation_Status",
                        "valueCodeableConcept": {
                            "coding": [
                                {
                                    "code": "P",
                                    "display": "Preliminary",
                                    "system": "http://terminology.hl7.org/CodeSystem/v2-0085"
                                }
                            ],
                            "text": "Preliminary"
                        }
                    }
                ],
                "basedOn": [
                    {
                        "reference": "ServiceRequest/5c4619c4-2cf9-44bb-a2cd-262665709d4a"
                    }
                ]
            },
            "request": {
                "method": "PUT",
                "url": "Observation/a3d33254-dd17-6444-46af-27da3fad4375"
            }
        },
        {
            "fullUrl": "urn:uuid:fa77427d-7606-99a5-ae91-f316de160668",
            "resource": {
                "resourceType": "Observation",
                "id": "fa77427d-7606-99a5-ae91-f316de160668",
                "status": "unknown",
                "code": {
                    "coding": [
                        {
                            "code": "20509-6",
                            "display": "HEMOGLOBIN",
                            "system": "http://loinc.org"
                        }
                    ]
                },
                "subject": {
                    "reference": "Patient/bab5ca58-f272-4c06-4b3f-f9661e45a22b"
                },
                "extension": [
                    {
                        "url": "http://example.com/v2-to-fhir-converter/Observation_Status",
                        "valueCodeableConcept": {
                            "coding": [
                                {
                                    "code": "I",
                                    "display": "In Process",
                                    "system": "http://terminology.hl7.org/CodeSystem/v2-0085"
                                }
                            ],
                            "text": "In Process"
                        }
                    }
                ],
                "basedOn": [
                    {
                        "reference": "ServiceRequest/5c4619c4-2cf9-44bb-a2cd-262665709d4a"
                    }
                ]
            },
            "request": {
                "method": "PUT",
                "url": "Observation/fa77427d-7606-99a5-ae91-f316de160668"
            }
        },
        {
            "fullUrl": "urn:uuid:80304ffa-efa5-5991-39a2-73f550a5b63c",
            "resource": {
                "resourceType": "Observation",
                "id": "80304ffa-efa5-5991-39a2-73f550a5b63c",
                "status": "preliminary",
                "code": {
                    "coding": [
                        {
                            "code": "20570-8",
                            "display": "HEMATOCRIT",
                            "system": "http://loinc.org"
                        }
                    ]
                },
                "valueQuantity": {
                    "value": 40.1,
                    "unit": "%"
                },
                "effectiveDateTime": "2014-10-06T08:30:00+07:00",
                "interpretation": [
                    {
                        "coding": [
                            {
                                "code": "N",
                                "display": "Normal",
                                "system": "http://terminology.hl7.org/CodeSystem/v3-ObservationInterpretation"
                            }
                        ]
                    }
                ],
                "subject": {
                    "reference": "Patient/bab5ca58-f272-4c06-4b3f-f9661e45a22b"
                },
                "extension": [
                    {
                        "url": "http://example.com/v2-to-fhir-converter/Observation_Status",
                        "valueCodeableConcept": {
                            "coding": [
                                {
                                    "code": "P",
                                    "display": "Preliminary",
                                    "system": "http://terminology.hl7.org/CodeSystem/v2-0085"
                                }
                            ],
                            "text": "Preliminary"
                        }
                    }
                ],
                "basedOn": [
                    {
                        "reference": "ServiceRequest/5c4619c4-2cf9-44bb-a2cd-262665709d4a"
                    }
                ]
            },
            "request": {
                "method": "PUT",
                "url": "Observation/80304ffa-efa5-5991-39a2-73f550a5b63c"
            }
        },
        {
            "fullUrl": "urn:uuid:947491bb-638d-32ea-2296-c89032c9c9eb",
            "resource": {
                "resourceType": "Observation",
                "id": "947491bb-638d-32ea-2296-c89032c9c9eb",
                "status": "final",
                "code": {
                    "coding": [
                        {
                            "code": "11125-2",
                            "display": "PLATELETS",
                            "system": "http://loinc.org"
                        }
                    ]
                },
                "valueQuantity": {
                    "value": 221,
                    "unit": "giga.l-1"
                },
                "effectiveDateTime": "2014-10-06T08:30:00+07:00",
                "interpretation": [
                    {
                        "coding": [
                            {
                                "code": "N",
                                "display": "Normal",
                                "system": "http://terminology.hl7.org/CodeSystem/v3-ObservationInterpretation"
                            }
                        ]
                    }
                ],
                "subject": {
                    "reference": "Patient/bab5ca58-f272-4c06-4b3f-f9661e45a22b"
                },
                "extension": [
                    {
                        "url": "http://example.com/v2-to-fhir-converter/Observation_Status",
                        "valueCodeableConcept": {
                            "coding": [
                                {
                                    "code": "F",
                                    "display": "Final",
                                    "system": "http://terminology.hl7.org/CodeSystem/v2-0085"
                                }
                            ],
                            "text": "Final"
                        }
                    }
                ],
                "basedOn": [
                    {
                        "reference": "ServiceRequest/5c4619c4-2cf9-44bb-a2cd-262665709d4a"
                    }
                ]
            },
            "request": {
                "method": "PUT",
                "url": "Observation/947491bb-638d-32ea-2296-c89032c9c9eb"
            }
        },
        {
            "fullUrl": "urn:uuid:5c4619c4-2cf9-44bb-a2cd-262665709d4a",
            "resource": {
                "resourceType": "ServiceRequest",
                "id": "5c4619c4-2cf9-44bb-a2cd-262665709d4a",
                "status": "active",
                "intent": "filler-order",
                "identifier": [
                    {
                        "value": "88502218",
                        "type": {
                            "coding": [
                                {
                                    "code": "PLAC",
                                    "system": "http://terminology.hl7.org/CodeSystem/v2-0203"
                                }
                            ]
                        }
                    },
                    {
                        "value": "82503246",
                        "type": {
                            "coding": [
                                {
                                    "code": "FILL",
                                    "system": "http://terminology.hl7.org/CodeSystem/v2-0203"
                                }
                            ]
                        }
                    }
                ],
                "code": {
                    "coding": [
                        {
                            "code": "24317-0",
                            "display": "Hemogram and platelet count, automated",
                            "system": "http://loinc.org"
                        }
                    ]
                },
                "subject": {
                    "reference": "Patient/bab5ca58-f272-4c06-4b3f-f9661e45a22b"
                },
                "requester": {
                    "reference": "PractitionerRole/907170a0-a8af-89c5-5a30-6b78cdb227c5"
                },
                "specimen": [
                    {
                        "reference": "Specimen/fc0a00ac-9ad6-ec0e-d885-e78d41a9baaa"
                    }
                ]
            },
            "request": {
                "method": "PUT",
                "url": "ServiceRequest/5c4619c4-2cf9-44bb-a2cd-262665709d4a"
            }
        },
        {
            "fullUrl": "urn:uuid:15decf11-00dc-6867-9c35-ffd79977d5b9",
            "resource": {
                "resourceType": "Practitioner",
                "id": "15decf11-00dc-6867-9c35-ffd79977d5b9",
                "name": [
                    {
                        "family": "URO",
                        "prefix": [
                            "DR"
                        ]
                    }
                ]
            },
            "request": {
                "method": "PUT",
                "url": "Practitioner/15decf11-00dc-6867-9c35-ffd79977d5b9"
            }
        },
        {
            "fullUrl": "urn:uuid:907170a0-a8af-89c5-5a30-6b78cdb227c5",
            "resource": {
                "resourceType": "PractitionerRole",
                "id": "907170a0-a8af-89c5-5a30-6b78cdb227c5",
                "code": [
                    {
                        "coding": [
                            {
                                "code": "OP",
                                "display": "Ordering Provider",
                                "system": "http://terminology.hl7.org/CodeSystem/v2-0443"
                            }
                        ]
                    }
                ],
                "practitioner": {
                    "reference": "Practitioner/15decf11-00dc-6867-9c35-ffd79977d5b9"
                }
            },
            "request": {
                "method": "PUT",
                "url": "PractitionerRole/907170a0-a8af-89c5-5a30-6b78cdb227c5"
            }
        },
        {
            "fullUrl": "urn:uuid:5a5a146f-0b8b-1073-d43b-d032897b97b5",
            "resource": {
                "resourceType": "DiagnosticReport",
                "id": "5a5a146f-0b8b-1073-d43b-d032897b97b5",
                "identifier": [
                    {
                        "value": "88502218",
                        "type": {
                            "coding": [
                                {
                                    "code": "PLAC",
                                    "system": "http://terminology.hl7.org/CodeSystem/v2-0203"
                                }
                            ]
                        }
                    },
                    {
                        "value": "82503246",
                        "type": {
                            "coding": [
                                {
                                    "code": "FILL",
                                    "system": "http://terminology.hl7.org/CodeSystem/v2-0203"
                                }
                            ]
                        }
                    }
                ],
                "code": {
                    "coding": [
                        {
                            "code": "24317-0",
                            "display": "Hemogram and platelet count, automated",
                            "system": "http://loinc.org"
                        }
                    ]
                },
                "status": "final",
                "subject": {
                    "reference": "Patient/bab5ca58-f272-4c06-4b3f-f9661e45a22b"
                },
                "basedOn": [
                    {
                        "reference": "ServiceRequest/5c4619c4-2cf9-44bb-a2cd-262665709d4a"
                    }
                ],
                "specimen": [
                    {
                        "reference": "Specimen/fc0a00ac-9ad6-ec0e-d885-e78d41a9baaa"
                    }
                ],
                "result": [
                    {
                        "reference": "Observation/f736fbb2-aafc-4e52-abb9-20d77d01d302"
                    },
                    {
                        "reference": "Observation/a3d33254-dd17-6444-46af-27da3fad4375"
                    },
                    {
                        "reference": "Observation/fa77427d-7606-99a5-ae91-f316de160668"
                    },
                    {
                        "reference": "Observation/80304ffa-efa5-5991-39a2-73f550a5b63c"
                    },
                    {
                        "reference": "Observation/947491bb-638d-32ea-2296-c89032c9c9eb"
                    }
                ]
            },
            "request": {
                "method": "PUT",
                "url": "DiagnosticReport/5a5a146f-0b8b-1073-d43b-d032897b97b5"
            }
        },
        {
            "fullUrl": "urn:uuid:fc0a00ac-9ad6-ec0e-d885-e78d41a9baaa",
            "resource": {
                "resourceType": "Specimen",
                "id": "fc0a00ac-9ad6-ec0e-d885-e78d41a9baaa",
                "identifier": [
                    {
                        "value": "88502218",
                        "type": {
                            "coding": [
                                {
                                    "code": "PLAC",
                                    "system": "http://terminology.hl7.org/CodeSystem/v2-0203"
                                }
                            ]
                        }
                    },
                    {
                        "value": "82503246",
                        "type": {
                            "coding": [
                                {
                                    "code": "FILL",
                                    "system": "http://terminology.hl7.org/CodeSystem/v2-0203"
                                }
                            ]
                        }
                    }
                ],
                "collection": {
                    "collector": {
                        "reference": "PractitionerRole/be571888-010e-9a32-e87f-f1ee1bd631a8"
                    }
                }
            },
            "request": {
                "method": "PUT",
                "url": "Specimen/fc0a00ac-9ad6-ec0e-d885-e78d41a9baaa"
            }
        },
        {
            "fullUrl": "urn:uuid:da437276-fd7c-eb21-1885-4041aa59c483",
            "resource": {
                "resourceType": "Practitioner",
                "id": "da437276-fd7c-eb21-1885-4041aa59c483",
                "name": [
                    {
                        "family": "COLLECT",
                        "given": [
                            "JOHN"
                        ]
                    }
                ]
            },
            "request": {
                "method": "PUT",
                "url": "Practitioner/da437276-fd7c-eb21-1885-4041aa59c483"
            }
        },
        {
            "fullUrl": "urn:uuid:be571888-010e-9a32-e87f-f1ee1bd631a8",
            "resource": {
                "resourceType": "PractitionerRole",
                "id": "be571888-010e-9a32-e87f-f1ee1bd631a8",
                "practitioner": {
                    "reference": "Practitioner/da437276-fd7c-eb21-1885-4041aa59c483"
                }
            },
            "request": {
                "method": "PUT",
                "url": "PractitionerRole/be571888-010e-9a32-e87f-f1ee1bd631a8"
            }
        },
        {
            "fullUrl": "urn:uuid:5828dc7f-d6a2-f902-89b4-769dab523813",
            "resource": {
                "resourceType": "Specimen",
                "id": "5828dc7f-d6a2-f902-89b4-769dab523813",
                "identifier": [
                    {
                        "value": "SpecimenID",
                        "type": {
                            "coding": [
                                {
                                    "code": "PGN",
                                    "system": "http://terminology.hl7.org/CodeSystem/v2-0203"
                                }
                            ]
                        }
                    }
                ],
                "type": {
                    "coding": [
                        {
                            "code": "BLD",
                            "system": "http://terminology.hl7.org/CodeSystem/v2-0487"
                        }
                    ]
                },
                "collection": {
                    "collectedDateTime": "2014-10-06T05:35:00+07:00"
                },
                "receivedTime": "2014-10-06T08:21:00+07:00",
                "status": "available"
            },
            "request": {
                "method": "PUT",
                "url": "Specimen/5828dc7f-d6a2-f902-89b4-769dab523813"
            }
        },
        {
            "fullUrl": "urn:uuid:1b6f9b12-9569-0734-ee26-0ff71bd83117",
            "resource": {
                "resourceType": "Observation",
                "id": "1b6f9b12-9569-0734-ee26-0ff71bd83117",
                "status": "preliminary",
                "code": {
                    "coding": [
                        {
                            "code": "23761-0",
                            "display": "NEUTROPHILS/100 LEUKOCYTES",
                            "system": "http://loinc.org"
                        }
                    ]
                },
                "valueQuantity": {
                    "value": 72,
                    "unit": "%"
                },
                "effectiveDateTime": "2014-10-06T06:27:00+07:00",
                "interpretation": [
                    {
                        "coding": [
                            {
                                "code": "N",
                                "display": "Normal",
                                "system": "http://terminology.hl7.org/CodeSystem/v3-ObservationInterpretation"
                            }
                        ]
                    }
                ],
                "subject": {
                    "reference": "Patient/bab5ca58-f272-4c06-4b3f-f9661e45a22b"
                },
                "specimen": {
                    "reference": "Specimen/5828dc7f-d6a2-f902-89b4-769dab523813"
                },
                "extension": [
                    {
                        "url": "http://example.com/v2-to-fhir-converter/Observation_Status",
                        "valueCodeableConcept": {
                            "coding": [
                                {
                                    "code": "P",
                                    "display": "Preliminary",
                                    "system": "http://terminology.hl7.org/CodeSystem/v2-0085"
                                }
                            ],
                            "text": "Preliminary"
                        }
                    }
                ],
                "basedOn": [
                    {
                        "reference": "ServiceRequest/425b6ad3-9304-3f7b-2771-0aa0dcd954ca"
                    }
                ]
            },
            "request": {
                "method": "PUT",
                "url": "Observation/1b6f9b12-9569-0734-ee26-0ff71bd83117"
            }
        },
        {
            "fullUrl": "urn:uuid:29d186ea-b8bd-ebc4-4cc5-0c5025d0ffa3",
            "resource": {
                "resourceType": "Observation",
                "id": "29d186ea-b8bd-ebc4-4cc5-0c5025d0ffa3",
                "status": "preliminary",
                "code": {
                    "coding": [
                        {
                            "code": "26450-7",
                            "display": "EOSINOPHILS/100 LEUKOCYTES",
                            "system": "http://loinc.org"
                        }
                    ]
                },
                "valueQuantity": {
                    "value": 2,
                    "unit": "%"
                },
                "effectiveDateTime": "2014-10-06T06:27:00+07:00",
                "interpretation": [
                    {
                        "coding": [
                            {
                                "code": "N",
                                "display": "Normal",
                                "system": "http://terminology.hl7.org/CodeSystem/v3-ObservationInterpretation"
                            }
                        ]
                    }
                ],
                "subject": {
                    "reference": "Patient/bab5ca58-f272-4c06-4b3f-f9661e45a22b"
                },
                "specimen": {
                    "reference": "Specimen/5828dc7f-d6a2-f902-89b4-769dab523813"
                },
                "extension": [
                    {
                        "url": "http://example.com/v2-to-fhir-converter/Observation_Status",
                        "valueCodeableConcept": {
                            "coding": [
                                {
                                    "code": "P",
                                    "display": "Preliminary",
                                    "system": "http://terminology.hl7.org/CodeSystem/v2-0085"
                                }
                            ],
                            "text": "Preliminary"
                        }
                    }
                ],
                "basedOn": [
                    {
                        "reference": "ServiceRequest/425b6ad3-9304-3f7b-2771-0aa0dcd954ca"
                    }
                ]
            },
            "request": {
                "method": "PUT",
                "url": "Observation/29d186ea-b8bd-ebc4-4cc5-0c5025d0ffa3"
            }
        },
        {
            "fullUrl": "urn:uuid:2dea599b-9831-c349-80f4-ca17461d60bd",
            "resource": {
                "resourceType": "Observation",
                "id": "2dea599b-9831-c349-80f4-ca17461d60bd",
                "status": "preliminary",
                "code": {
                    "coding": [
                        {
                            "code": "26478-8",
                            "display": "LYMPHOCYTES/100 LEUKOCYTES",
                            "system": "http://loinc.org"
                        }
                    ]
                },
                "valueQuantity": {
                    "value": 20,
                    "unit": "%"
                },
                "effectiveDateTime": "2014-10-06T06:27:00+07:00",
                "interpretation": [
                    {
                        "coding": [
                            {
                                "code": "N",
                                "display": "Normal",
                                "system": "http://terminology.hl7.org/CodeSystem/v3-ObservationInterpretation"
                            }
                        ]
                    }
                ],
                "subject": {
                    "reference": "Patient/bab5ca58-f272-4c06-4b3f-f9661e45a22b"
                },
                "specimen": {
                    "reference": "Specimen/5828dc7f-d6a2-f902-89b4-769dab523813"
                },
                "extension": [
                    {
                        "url": "http://example.com/v2-to-fhir-converter/Observation_Status",
                        "valueCodeableConcept": {
                            "coding": [
                                {
                                    "code": "P",
                                    "display": "Preliminary",
                                    "system": "http://terminology.hl7.org/CodeSystem/v2-0085"
                                }
                            ],
                            "text": "Preliminary"
                        }
                    }
                ],
                "basedOn": [
                    {
                        "reference": "ServiceRequest/425b6ad3-9304-3f7b-2771-0aa0dcd954ca"
                    }
                ]
            },
            "request": {
                "method": "PUT",
                "url": "Observation/2dea599b-9831-c349-80f4-ca17461d60bd"
            }
        },
        {
            "fullUrl": "urn:uuid:965dbaca-8556-c484-544c-c4b0f92e1f56",
            "resource": {
                "resourceType": "Observation",
                "id": "965dbaca-8556-c484-544c-c4b0f92e1f56",
                "status": "preliminary",
                "code": {
                    "coding": [
                        {
                            "code": "26485-3",
                            "display": "MONOCYTES/100 LEUKOCYTES",
                            "system": "http://loinc.org"
                        }
                    ]
                },
                "valueQuantity": {
                    "value": 6,
                    "unit": "%"
                },
                "effectiveDateTime": "2014-10-06T06:27:00+07:00",
                "interpretation": [
                    {
                        "coding": [
                            {
                                "code": "N",
                                "display": "Normal",
                                "system": "http://terminology.hl7.org/CodeSystem/v3-ObservationInterpretation"
                            }
                        ]
                    }
                ],
                "subject": {
                    "reference": "Patient/bab5ca58-f272-4c06-4b3f-f9661e45a22b"
                },
                "specimen": {
                    "reference": "Specimen/5828dc7f-d6a2-f902-89b4-769dab523813"
                },
                "extension": [
                    {
                        "url": "http://example.com/v2-to-fhir-converter/Observation_Status",
                        "valueCodeableConcept": {
                            "coding": [
                                {
                                    "code": "P",
                                    "display": "Preliminary",
                                    "system": "http://terminology.hl7.org/CodeSystem/v2-0085"
                                }
                            ],
                            "text": "Preliminary"
                        }
                    }
                ],
                "basedOn": [
                    {
                        "reference": "ServiceRequest/425b6ad3-9304-3f7b-2771-0aa0dcd954ca"
                    }
                ]
            },
            "request": {
                "method": "PUT",
                "url": "Observation/965dbaca-8556-c484-544c-c4b0f92e1f56"
            }
        },
        {
            "fullUrl": "urn:uuid:1f37c106-9ad2-6a9b-895b-6bde5e913dcc",
            "resource": {
                "resourceType": "Observation",
                "id": "1f37c106-9ad2-6a9b-895b-6bde5e913dcc",
                "status": "preliminary",
                "code": {
                    "coding": [
                        {
                            "code": "30180-4",
                            "display": "BASOPHILS/100 LEUKOCYTES",
                            "system": "http://loinc.org"
                        }
                    ]
                },
                "valueQuantity": {
                    "value": 0,
                    "unit": "%"
                },
                "effectiveDateTime": "2014-10-06T06:27:00+07:00",
                "interpretation": [
                    {
                        "coding": [
                            {
                                "code": "N",
                                "display": "Normal",
                                "system": "http://terminology.hl7.org/CodeSystem/v3-ObservationInterpretation"
                            }
                        ]
                    }
                ],
                "subject": {
                    "reference": "Patient/bab5ca58-f272-4c06-4b3f-f9661e45a22b"
                },
                "specimen": {
                    "reference": "Specimen/5828dc7f-d6a2-f902-89b4-769dab523813"
                },
                "extension": [
                    {
                        "url": "http://example.com/v2-to-fhir-converter/Observation_Status",
                        "valueCodeableConcept": {
                            "coding": [
                                {
                                    "code": "P",
                                    "display": "Preliminary",
                                    "system": "http://terminology.hl7.org/CodeSystem/v2-0085"
                                }
                            ],
                            "text": "Preliminary"
                        }
                    }
                ],
                "basedOn": [
                    {
                        "reference": "ServiceRequest/425b6ad3-9304-3f7b-2771-0aa0dcd954ca"
                    }
                ]
            },
            "request": {
                "method": "PUT",
                "url": "Observation/1f37c106-9ad2-6a9b-895b-6bde5e913dcc"
            }
        },
        {
            "fullUrl": "urn:uuid:425b6ad3-9304-3f7b-2771-0aa0dcd954ca",
            "resource": {
                "resourceType": "ServiceRequest",
                "id": "425b6ad3-9304-3f7b-2771-0aa0dcd954ca",
                "status": "active",
                "intent": "filler-order",
                "identifier": [
                    {
                        "value": "855238581",
                        "type": {
                            "coding": [
                                {
                                    "code": "PLAC",
                                    "system": "http://terminology.hl7.org/CodeSystem/v2-0203"
                                }
                            ]
                        }
                    },
                    {
                        "value": "890775544",
                        "type": {
                            "coding": [
                                {
                                    "code": "FILL",
                                    "system": "http://terminology.hl7.org/CodeSystem/v2-0203"
                                }
                            ]
                        }
                    }
                ],
                "code": {
                    "coding": [
                        {
                            "code": "26464-8",
                            "display": "Differential WBC Count, buffy coat",
                            "system": "http://loinc.org"
                        }
                    ]
                },
                "subject": {
                    "reference": "Patient/bab5ca58-f272-4c06-4b3f-f9661e45a22b"
                },
                "requester": {
                    "reference": "PractitionerRole/907170a0-a8af-89c5-5a30-6b78cdb227c5"
                },
                "specimen": [
                    {
                        "reference": "Specimen/3644f3d2-3b43-9382-c98b-b9f6b77e5295"
                    }
                ]
            },
            "request": {
                "method": "PUT",
                "url": "ServiceRequest/425b6ad3-9304-3f7b-2771-0aa0dcd954ca"
            }
        },
        {
            "fullUrl": "urn:uuid:5ed89514-c68e-db01-9339-9576de3c485a",
            "resource": {
                "resourceType": "DiagnosticReport",
                "id": "5ed89514-c68e-db01-9339-9576de3c485a",
                "identifier": [
                    {
                        "value": "855238581",
                        "type": {
                            "coding": [
                                {
                                    "code": "PLAC",
                                    "system": "http://terminology.hl7.org/CodeSystem/v2-0203"
                                }
                            ]
                        }
                    },
                    {
                        "value": "890775544",
                        "type": {
                            "coding": [
                                {
                                    "code": "FILL",
                                    "system": "http://terminology.hl7.org/CodeSystem/v2-0203"
                                }
                            ]
                        }
                    }
                ],
                "code": {
                    "coding": [
                        {
                            "code": "26464-8",
                            "display": "Differential WBC Count, buffy coat",
                            "system": "http://loinc.org"
                        }
                    ]
                },
                "status": "unknown",
                "subject": {
                    "reference": "Patient/bab5ca58-f272-4c06-4b3f-f9661e45a22b"
                },
                "basedOn": [
                    {
                        "reference": "ServiceRequest/425b6ad3-9304-3f7b-2771-0aa0dcd954ca"
                    }
                ],
                "specimen": [
                    {
                        "reference": "Specimen/3644f3d2-3b43-9382-c98b-b9f6b77e5295"
                    }
                ],
                "result": [
                    {
                        "reference": "Observation/1b6f9b12-9569-0734-ee26-0ff71bd83117"
                    },
                    {
                        "reference": "Observation/29d186ea-b8bd-ebc4-4cc5-0c5025d0ffa3"
                    },
                    {
                        "reference": "Observation/2dea599b-9831-c349-80f4-ca17461d60bd"
                    },
                    {
                        "reference": "Observation/965dbaca-8556-c484-544c-c4b0f92e1f56"
                    },
                    {
                        "reference": "Observation/1f37c106-9ad2-6a9b-895b-6bde5e913dcc"
                    }
                ]
            },
            "request": {
                "method": "PUT",
                "url": "DiagnosticReport/5ed89514-c68e-db01-9339-9576de3c485a"
            }
        },
        {
            "fullUrl": "urn:uuid:3644f3d2-3b43-9382-c98b-b9f6b77e5295",
            "resource": {
                "resourceType": "Specimen",
                "id": "3644f3d2-3b43-9382-c98b-b9f6b77e5295",
                "identifier": [
                    {
                        "value": "855238581",
                        "type": {
                            "coding": [
                                {
                                    "code": "PLAC",
                                    "system": "http://terminology.hl7.org/CodeSystem/v2-0203"
                                }
                            ]
                        }
                    },
                    {
                        "value": "890775544",
                        "type": {
                            "coding": [
                                {
                                    "code": "FILL",
                                    "system": "http://terminology.hl7.org/CodeSystem/v2-0203"
                                }
                            ]
                        }
                    }
                ],
                "collection": {
                    "collector": {
                        "reference": "PractitionerRole/be571888-010e-9a32-e87f-f1ee1bd631a8"
                    }
                }
            },
            "request": {
                "method": "PUT",
                "url": "Specimen/3644f3d2-3b43-9382-c98b-b9f6b77e5295"
            }
        }
    ]
}