{
  "resourceType": "Bundle",
  "type": "batch",
  "timestamp": "2011-06-01T00:35:51+05:30",
  "identifier": {
      "value": "NIST-LRI-NG-002.00"
  },
  "id": "7cbc05b1-9589-f624-6bb7-edea632acfeb",
  "entry": [
      {
          "fullUrl": "urn:uuid:15cde54f-eadb-4bee-fe4c-0e8dbe4f4959",
          "resource": {
              "resourceType": "MessageHeader",
              "id": "15cde54f-eadb-4bee-fe4c-0e8dbe4f4959",
              "source": {
                  "name": "NIST Test Lab APP",
                  "_endpoint": {
                      "extension": [
                          {
                              "url": "http://hl7.org/fhir/StructureDefinition/data-absent-reason",
                              "valueCode": "unknown"
                          }
                      ]
                  }
              },
              "destination": [
                  {
                      "_endpoint": {
                          "extension": [
                              {
                                  "url": "http://hl7.org/fhir/StructureDefinition/data-absent-reason",
                                  "valueCode": "unknown"
                              }
                          ]
                      },
                      "receiver": {
                          "reference": "Organization/c828b9d8-dc07-4b58-af67-705a38d1fa4d"
                      }
                  }
              ],
              "meta": {
                  "tag": [
                      {
                          "code": "T",
                          "system": "http://terminology.hl7.org/CodeSystem/v2-0103"
                      }
                  ]
              },
              "eventCoding": {
                  "code": "R01",
                  "system": "http://terminology.hl7.org/CodeSystem/v2-0003",
                  "display": "ORU^R01^ORU_R01"
              },
              "sender": {
                  "reference": "Organization/aa0cf9ae-78b3-73ec-0ef7-234369f8a10c"
              }
          },
          "request": {
              "method": "PUT",
              "url": "MessageHeader/15cde54f-eadb-4bee-fe4c-0e8dbe4f4959"
          }
      },
      {
          "fullUrl": "urn:uuid:69d21cff-2d4e-b89f-1109-5fb744517c1f",
          "resource": {
              "resourceType": "Provenance",
              "id": "69d21cff-2d4e-b89f-1109-5fb744517c1f",
              "text": {
                  "status": "generated",
                  "div": "<div xmlns=\"http://www.w3.org/1999/xhtml\"><p><span>Resource bundle generated on 2022-03-28T09:31:46.084Z using Microsoft FHIR Converter.</span><span>Template Version: TEMPLATE_VERSION_PLACEHOLDER.</span><span>Template URL: https://github.com/microsoft/FHIR-Converter/releases/download/vTEMPLATE_VERSION_PLACEHOLDER/Hl7v2DefaultTemplates.tar.gz.</span><span>Root template: ORU_R01.</span></p></div>"
              },
              "occurredDateTime": "2011-06-01T00:35:51+05:30",
              "recorded": "2011-06-01T00:35:51+05:30",
              "agent": [
                  {
                      "type": {
                          "coding": [
                              {
                                  "code": "author",
                                  "system": "http://terminology.hl7.org/CodeSystem/provenance-participant-type"
                              }
                          ]
                      },
                      "who": {
                          "reference": "Organization/aa0cf9ae-78b3-73ec-0ef7-234369f8a10c"
                      }
                  }
              ],
              "activity": {
                  "coding": [
                      {
                          "display": "ORU^R01^ORU_R01"
                      }
                  ]
              },
              "target": [
                  {
                      "reference": "Bundle/7cbc05b1-9589-f624-6bb7-edea632acfeb"
                  }
              ]
          },
          "request": {
              "method": "PUT",
              "url": "Provenance/69d21cff-2d4e-b89f-1109-5fb744517c1f"
          }
      },
      {
          "fullUrl": "urn:uuid:aa0cf9ae-78b3-73ec-0ef7-234369f8a10c",
          "resource": {
              "resourceType": "Organization",
              "id": "aa0cf9ae-78b3-73ec-0ef7-234369f8a10c",
              "identifier": [
                  {
                      "value": "NIST Lab Facility",
                      "system": "http://example.com/v2-to-fhir-converter/Identifier/NIST-Lab-Facility"
                  }
              ]
          },
          "request": {
              "method": "PUT",
              "url": "Organization/aa0cf9ae-78b3-73ec-0ef7-234369f8a10c"
          }
      },
      {
          "fullUrl": "urn:uuid:c828b9d8-dc07-4b58-af67-705a38d1fa4d",
          "resource": {
              "resourceType": "Organization",
              "id": "c828b9d8-dc07-4b58-af67-705a38d1fa4d",
              "identifier": [
                  {
                      "value": "NIST EHR Facility",
                      "system": "http://example.com/v2-to-fhir-converter/Identifier/NIST-EHR-Facility"
                  }
              ]
          },
          "request": {
              "method": "PUT",
              "url": "Organization/c828b9d8-dc07-4b58-af67-705a38d1fa4d"
          }
      },
      {
          "fullUrl": "urn:uuid:397de93b-65e0-b3b6-7a79-d7869d57a8aa",
          "resource": {
              "resourceType": "Patient",
              "id": "397de93b-65e0-b3b6-7a79-d7869d57a8aa",
              "identifier": [
                  {
                      "value": "PATID1234",
                      "type": {
                          "coding": [
                              {
                                  "code": "MR",
                                  "system": "http://terminology.hl7.org/CodeSystem/v2-0203",
                                  "display": "Medical record number"
                              }
                          ]
                      },
                      "system": "http://example.com/v2-to-fhir-converter/Identifier/NIST-MPI"
                  }
              ],
              "name": [
                  {
                      "family": "Jones",
                      "given": [
                          "William",
                          "A"
                      ]
                  }
              ],
              "birthDate": "1961-06-15",
              "gender": "male",
              "extension": [
                  {
                      "url": "http://hl7.org/fhir/us/core/StructureDefinition/us-core-race",
                      "extension": [
                          {
                              "url": "ombCategory",
                              "valueCoding": {
                                  "code": "2106-3",
                                  "display": "White",
                                  "system": "urn:oid:2.16.840.1.113883.6.238"
                              }
                          },
                          {
                              "url": "text",
                              "valueString": "White"
                          }
                      ]
                  }
              ]
          },
          "request": {
              "method": "PUT",
              "url": "Patient/397de93b-65e0-b3b6-7a79-d7869d57a8aa"
          }
      },
      {
          "fullUrl": "urn:uuid:9f988649-6c25-7f5f-f25c-65f3042e23b6",
          "resource": {
              "resourceType": "Practitioner",
              "id": "9f988649-6c25-7f5f-f25c-65f3042e23b6",
              "identifier": [
                  {
                      "type": {
                          "coding": [
                              {
                                  "code": "2343242"
                              }
                          ]
                      }
                  }
              ]
          },
          "request": {
              "method": "PUT",
              "url": "Practitioner/9f988649-6c25-7f5f-f25c-65f3042e23b6"
          }
      },
      {
          "fullUrl": "urn:uuid:fbbaa96a-8a5d-f670-0fcf-838b21d4c6a8",
          "resource": {
              "resourceType": "PractitionerRole",
              "id": "fbbaa96a-8a5d-f670-0fcf-838b21d4c6a8",
              "code": [
                  {
                      "coding": [
                          {
                              "code": "MDIR",
                              "display": "Medical Director",
                              "system": "http://terminology.hl7.org/CodeSystem/v2-0443"
                          }
                      ]
                  }
              ],
              "practitioner": {
                  "reference": "Practitioner/9f988649-6c25-7f5f-f25c-65f3042e23b6"
              },
              "organization": {
                  "reference": "Organization/4134770e-37a2-6447-4497-d73ddee6412d"
              }
          },
          "request": {
              "method": "PUT",
              "url": "PractitionerRole/fbbaa96a-8a5d-f670-0fcf-838b21d4c6a8"
          }
      },
      {
          "fullUrl": "urn:uuid:4134770e-37a2-6447-4497-d73ddee6412d",
          "resource": {
              "resourceType": "Organization",
              "id": "4134770e-37a2-6447-4497-d73ddee6412d",
              "name": "Century Hospital",
              "identifier": [
                  {
                      "value": "987",
                      "type": {
                          "coding": [
                              {
                                  "code": "XX",
                                  "system": "http://terminology.hl7.org/CodeSystem/v2-0203"
                              }
                          ]
                      }
                  }
              ],
              "address": [
                  {
                      "line": [
                          "2070 Test Park"
                      ],
                      "city": "Los Angeles",
                      "state": "CA",
                      "postalCode": "90067",
                      "use": "work"
                  }
              ]
          },
          "request": {
              "method": "PUT",
              "url": "Organization/4134770e-37a2-6447-4497-d73ddee6412d"
          }
      },
      {
          "fullUrl": "urn:uuid:86b13b68-64ca-4bf2-8f9d-524c127b445f",
          "resource": {
              "resourceType": "Observation",
              "id": "86b13b68-64ca-4bf2-8f9d-524c127b445f",
              "status": "final",
              "code": {
                  "coding": [
                      {
                          "code": "26453-1",
                          "display": "Erythrocytes [#/volume] in Blood",
                          "system": "http://loinc.org"
                      }
                  ],
                  "text": "Erythrocytes [#/volume] in Blood"
              },
              "valueQuantity": {
                  "value": 4.41,
                  "code": "10*6/uL",
                  "unit": "million per microliter",
                  "system": "http://unitsofmeasure.org"
              },
              "referenceRange": [
                  {
                      "text": "4.3 to 6.2"
                  }
              ],
              "effectiveDateTime": "2011-01-04T04:04:28+05:30",
              "performer": [
                  {
                      "reference": "PractitionerRole/fbbaa96a-8a5d-f670-0fcf-838b21d4c6a8"
                  }
              ],
              "interpretation": [
                  {
                      "coding": [
                          {
                              "code": "N",
                              "display": "Normal",
                              "system": "http://terminology.hl7.org/CodeSystem/v3-ObservationInterpretation"
                          }
                      ]
                  }
              ],
              "subject": {
                  "reference": "Patient/397de93b-65e0-b3b6-7a79-d7869d57a8aa"
              },
              "extension": [
                  {
                      "url": "http://example.com/v2-to-fhir-converter/Observation_Status",
                      "valueCodeableConcept": {
                          "coding": [
                              {
                                  "code": "F",
                                  "display": "Final",
                                  "system": "http://terminology.hl7.org/CodeSystem/v2-0085"
                              }
                          ],
                          "text": "Final"
                      }
                  }
              ],
              "basedOn": [
                  {
                      "reference": "ServiceRequest/be7b96d7-8880-3116-f8e3-328359c8e8b1"
                  }
              ]
          },
          "request": {
              "method": "PUT",
              "url": "Observation/86b13b68-64ca-4bf2-8f9d-524c127b445f"
          }
      },
      {
          "fullUrl": "urn:uuid:e950bf40-a65b-1565-b77a-9e409335894c",
          "resource": {
              "resourceType": "Observation",
              "id": "e950bf40-a65b-1565-b77a-9e409335894c",
              "status": "final",
              "code": {
                  "coding": [
                      {
                          "code": "718-7",
                          "display": "Hemoglobin [Mass/volume] in Blood",
                          "system": "http://loinc.org"
                      }
                  ],
                  "text": "Hemoglobin [Mass/volume] in Blood"
              },
              "valueQuantity": {
                  "value": 12.5,
                  "code": "g/mL",
                  "unit": "grams per milliliter",
                  "system": "http://unitsofmeasure.org"
              },
              "referenceRange": [
                  {
                      "text": "13 to 18"
                  }
              ],
              "effectiveDateTime": "2011-01-04T04:04:28+05:30",
              "performer": [
                  {
                      "reference": "PractitionerRole/fbbaa96a-8a5d-f670-0fcf-838b21d4c6a8"
                  }
              ],
              "interpretation": [
                  {
                      "coding": [
                          {
                              "code": "L",
                              "display": "Low",
                              "system": "http://terminology.hl7.org/CodeSystem/v3-ObservationInterpretation"
                          }
                      ]
                  }
              ],
              "subject": {
                  "reference": "Patient/397de93b-65e0-b3b6-7a79-d7869d57a8aa"
              },
              "extension": [
                  {
                      "url": "http://example.com/v2-to-fhir-converter/Observation_Status",
                      "valueCodeableConcept": {
                          "coding": [
                              {
                                  "code": "F",
                                  "display": "Final",
                                  "system": "http://terminology.hl7.org/CodeSystem/v2-0085"
                              }
                          ],
                          "text": "Final"
                      }
                  }
              ],
              "basedOn": [
                  {
                      "reference": "ServiceRequest/be7b96d7-8880-3116-f8e3-328359c8e8b1"
                  }
              ]
          },
          "request": {
              "method": "PUT",
              "url": "Observation/e950bf40-a65b-1565-b77a-9e409335894c"
          }
      },
      {
          "fullUrl": "urn:uuid:57d75a50-68d1-42d2-23c7-85a2737939c3",
          "resource": {
              "resourceType": "Observation",
              "id": "57d75a50-68d1-42d2-23c7-85a2737939c3",
              "status": "final",
              "code": {
                  "coding": [
                      {
                          "code": "20570-8",
                          "display": "Hematocrit [Volume Fraction] of Blood",
                          "system": "http://loinc.org"
                      }
                  ],
                  "text": "Hematocrit [Volume Fraction] of Blood"
              },
              "valueQuantity": {
                  "value": 41,
                  "code": "%",
                  "unit": "percent",
                  "system": "http://unitsofmeasure.org"
              },
              "referenceRange": [
                  {
                      "text": "40 to 52"
                  }
              ],
              "effectiveDateTime": "2011-01-04T04:04:28+05:30",
              "performer": [
                  {
                      "reference": "PractitionerRole/fbbaa96a-8a5d-f670-0fcf-838b21d4c6a8"
                  }
              ],
              "interpretation": [
                  {
                      "coding": [
                          {
                              "code": "N",
                              "display": "Normal",
                              "system": "http://terminology.hl7.org/CodeSystem/v3-ObservationInterpretation"
                          }
                      ]
                  }
              ],
              "subject": {
                  "reference": "Patient/397de93b-65e0-b3b6-7a79-d7869d57a8aa"
              },
              "extension": [
                  {
                      "url": "http://example.com/v2-to-fhir-converter/Observation_Status",
                      "valueCodeableConcept": {
                          "coding": [
                              {
                                  "code": "F",
                                  "display": "Final",
                                  "system": "http://terminology.hl7.org/CodeSystem/v2-0085"
                              }
                          ],
                          "text": "Final"
                      }
                  }
              ],
              "basedOn": [
                  {
                      "reference": "ServiceRequest/be7b96d7-8880-3116-f8e3-328359c8e8b1"
                  }
              ]
          },
          "request": {
              "method": "PUT",
              "url": "Observation/57d75a50-68d1-42d2-23c7-85a2737939c3"
          }
      },
      {
          "fullUrl": "urn:uuid:d0fbf918-54d1-7ba3-5412-43a57a7f18b1",
          "resource": {
              "resourceType": "Observation",
              "id": "d0fbf918-54d1-7ba3-5412-43a57a7f18b1",
              "status": "final",
              "code": {
                  "coding": [
                      {
                          "code": "26464-8",
                          "display": "Leukocytes [#/volume] in Blood",
                          "system": "http://loinc.org"
                      }
                  ],
                  "text": "Leukocytes [#/volume] in Blood"
              },
              "valueQuantity": {
                  "value": 105600,
                  "code": "{cells}/uL",
                  "unit": "cells per microliter",
                  "system": "http://unitsofmeasure.org"
              },
              "referenceRange": [
                  {
                      "text": "4300 to 10800"
                  }
              ],
              "effectiveDateTime": "2011-01-04T04:04:28+05:30",
              "performer": [
                  {
                      "reference": "PractitionerRole/fbbaa96a-8a5d-f670-0fcf-838b21d4c6a8"
                  }
              ],
              "interpretation": [
                  {
                      "coding": [
                          {
                              "code": "HH",
                              "display": "Critical high",
                              "system": "http://terminology.hl7.org/CodeSystem/v3-ObservationInterpretation"
                          }
                      ]
                  }
              ],
              "subject": {
                  "reference": "Patient/397de93b-65e0-b3b6-7a79-d7869d57a8aa"
              },
              "extension": [
                  {
                      "url": "http://example.com/v2-to-fhir-converter/Observation_Status",
                      "valueCodeableConcept": {
                          "coding": [
                              {
                                  "code": "F",
                                  "display": "Final",
                                  "system": "http://terminology.hl7.org/CodeSystem/v2-0085"
                              }
                          ],
                          "text": "Final"
                      }
                  }
              ],
              "basedOn": [
                  {
                      "reference": "ServiceRequest/be7b96d7-8880-3116-f8e3-328359c8e8b1"
                  }
              ]
          },
          "request": {
              "method": "PUT",
              "url": "Observation/d0fbf918-54d1-7ba3-5412-43a57a7f18b1"
          }
      },
      {
          "fullUrl": "urn:uuid:7067c914-c96b-8595-60f3-2e7df530e7f0",
          "resource": {
              "resourceType": "Observation",
              "id": "7067c914-c96b-8595-60f3-2e7df530e7f0",
              "status": "final",
              "code": {
                  "coding": [
                      {
                          "code": "26515-7",
                          "display": "Platelets [#/volume] in Blood",
                          "system": "http://loinc.org"
                      }
                  ],
                  "text": "Platelets [#/volume] in Blood"
              },
              "valueQuantity": {
                  "value": 210000,
                  "code": "{cells}/uL",
                  "unit": "cells per microliter",
                  "system": "http://unitsofmeasure.org"
              },
              "referenceRange": [
                  {
                      "text": "150000 to 350000"
                  }
              ],
              "effectiveDateTime": "2011-01-04T04:04:28+05:30",
              "performer": [
                  {
                      "reference": "PractitionerRole/fbbaa96a-8a5d-f670-0fcf-838b21d4c6a8"
                  }
              ],
              "interpretation": [
                  {
                      "coding": [
                          {
                              "code": "N",
                              "display": "Normal",
                              "system": "http://terminology.hl7.org/CodeSystem/v3-ObservationInterpretation"
                          }
                      ]
                  }
              ],
              "subject": {
                  "reference": "Patient/397de93b-65e0-b3b6-7a79-d7869d57a8aa"
              },
              "extension": [
                  {
                      "url": "http://example.com/v2-to-fhir-converter/Observation_Status",
                      "valueCodeableConcept": {
                          "coding": [
                              {
                                  "code": "F",
                                  "display": "Final",
                                  "system": "http://terminology.hl7.org/CodeSystem/v2-0085"
                              }
                          ],
                          "text": "Final"
                      }
                  }
              ],
              "basedOn": [
                  {
                      "reference": "ServiceRequest/be7b96d7-8880-3116-f8e3-328359c8e8b1"
                  }
              ]
          },
          "request": {
              "method": "PUT",
              "url": "Observation/7067c914-c96b-8595-60f3-2e7df530e7f0"
          }
      },
      {
          "fullUrl": "urn:uuid:992117b5-5929-6b7c-5570-199ffa437877",
          "resource": {
              "resourceType": "Observation",
              "id": "992117b5-5929-6b7c-5570-199ffa437877",
              "status": "final",
              "code": {
                  "coding": [
                      {
                          "code": "30428-7",
                          "display": "Erythrocyte mean corpuscular volume [Entitic volume]",
                          "system": "http://loinc.org"
                      }
                  ],
                  "text": "Erythrocyte mean corpuscular volume [Entitic volume]"
              },
              "valueQuantity": {
                  "value": 91,
                  "code": "fL",
                  "unit": "femtoliter",
                  "system": "http://unitsofmeasure.org"
              },
              "referenceRange": [
                  {
                      "text": "80 to 95"
                  }
              ],
              "effectiveDateTime": "2011-01-04T04:04:28+05:30",
              "performer": [
                  {
                      "reference": "PractitionerRole/fbbaa96a-8a5d-f670-0fcf-838b21d4c6a8"
                  }
              ],
              "interpretation": [
                  {
                      "coding": [
                          {
                              "code": "N",
                              "display": "Normal",
                              "system": "http://terminology.hl7.org/CodeSystem/v3-ObservationInterpretation"
                          }
                      ]
                  }
              ],
              "subject": {
                  "reference": "Patient/397de93b-65e0-b3b6-7a79-d7869d57a8aa"
              },
              "extension": [
                  {
                      "url": "http://example.com/v2-to-fhir-converter/Observation_Status",
                      "valueCodeableConcept": {
                          "coding": [
                              {
                                  "code": "F",
                                  "display": "Final",
                                  "system": "http://terminology.hl7.org/CodeSystem/v2-0085"
                              }
                          ],
                          "text": "Final"
                      }
                  }
              ],
              "basedOn": [
                  {
                      "reference": "ServiceRequest/be7b96d7-8880-3116-f8e3-328359c8e8b1"
                  }
              ]
          },
          "request": {
              "method": "PUT",
              "url": "Observation/992117b5-5929-6b7c-5570-199ffa437877"
          }
      },
      {
          "fullUrl": "urn:uuid:444f2073-1f9b-5ccb-4c6f-225668686427",
          "resource": {
              "resourceType": "Observation",
              "id": "444f2073-1f9b-5ccb-4c6f-225668686427",
              "status": "final",
              "code": {
                  "coding": [
                      {
                          "code": "28539-5",
                          "display": "Erythrocyte mean corpuscular hemoglobin [Entitic mass]",
                          "system": "http://loinc.org"
                      }
                  ],
                  "text": "Erythrocyte mean corpuscular hemoglobin [Entitic mass]"
              },
              "valueQuantity": {
                  "value": 29,
                  "code": "pg/{cell}",
                  "unit": "picograms per cell",
                  "system": "http://unitsofmeasure.org"
              },
              "referenceRange": [
                  {
                      "text": "27 to 31"
                  }
              ],
              "effectiveDateTime": "2011-01-04T04:04:28+05:30",
              "performer": [
                  {
                      "reference": "PractitionerRole/fbbaa96a-8a5d-f670-0fcf-838b21d4c6a8"
                  }
              ],
              "interpretation": [
                  {
                      "coding": [
                          {
                              "code": "N",
                              "display": "Normal",
                              "system": "http://terminology.hl7.org/CodeSystem/v3-ObservationInterpretation"
                          }
                      ]
                  }
              ],
              "subject": {
                  "reference": "Patient/397de93b-65e0-b3b6-7a79-d7869d57a8aa"
              },
              "extension": [
                  {
                      "url": "http://example.com/v2-to-fhir-converter/Observation_Status",
                      "valueCodeableConcept": {
                          "coding": [
                              {
                                  "code": "F",
                                  "display": "Final",
                                  "system": "http://terminology.hl7.org/CodeSystem/v2-0085"
                              }
                          ],
                          "text": "Final"
                      }
                  }
              ],
              "basedOn": [
                  {
                      "reference": "ServiceRequest/be7b96d7-8880-3116-f8e3-328359c8e8b1"
                  }
              ]
          },
          "request": {
              "method": "PUT",
              "url": "Observation/444f2073-1f9b-5ccb-4c6f-225668686427"
          }
      },
      {
          "fullUrl": "urn:uuid:e00ac64f-ef49-92be-5d5c-2d6c7c0a99c1",
          "resource": {
              "resourceType": "Observation",
              "id": "e00ac64f-ef49-92be-5d5c-2d6c7c0a99c1",
              "status": "final",
              "code": {
                  "coding": [
                      {
                          "code": "28540-3",
                          "display": "Erythrocyte mean corpuscular hemoglobin concentration [Mass/volume]",
                          "system": "http://loinc.org"
                      }
                  ],
                  "text": "Erythrocyte mean corpuscular hemoglobin concentration [Mass/volume]"
              },
              "valueQuantity": {
                  "value": 32.4,
                  "code": "g/dL",
                  "unit": "grams per deciliter",
                  "system": "http://unitsofmeasure.org"
              },
              "referenceRange": [
                  {
                      "text": "32 to 36"
                  }
              ],
              "effectiveDateTime": "2011-01-04T04:04:28+05:30",
              "performer": [
                  {
                      "reference": "PractitionerRole/fbbaa96a-8a5d-f670-0fcf-838b21d4c6a8"
                  }
              ],
              "interpretation": [
                  {
                      "coding": [
                          {
                              "code": "N",
                              "display": "Normal",
                              "system": "http://terminology.hl7.org/CodeSystem/v3-ObservationInterpretation"
                          }
                      ]
                  }
              ],
              "subject": {
                  "reference": "Patient/397de93b-65e0-b3b6-7a79-d7869d57a8aa"
              },
              "extension": [
                  {
                      "url": "http://example.com/v2-to-fhir-converter/Observation_Status",
                      "valueCodeableConcept": {
                          "coding": [
                              {
                                  "code": "F",
                                  "display": "Final",
                                  "system": "http://terminology.hl7.org/CodeSystem/v2-0085"
                              }
                          ],
                          "text": "Final"
                      }
                  }
              ],
              "basedOn": [
                  {
                      "reference": "ServiceRequest/be7b96d7-8880-3116-f8e3-328359c8e8b1"
                  }
              ]
          },
          "request": {
              "method": "PUT",
              "url": "Observation/e00ac64f-ef49-92be-5d5c-2d6c7c0a99c1"
          }
      },
      {
          "fullUrl": "urn:uuid:5b437ecc-2c30-8c06-133f-465771b904ad",
          "resource": {
              "resourceType": "Observation",
              "id": "5b437ecc-2c30-8c06-133f-465771b904ad",
              "status": "final",
              "code": {
                  "coding": [
                      {
                          "code": "30385-9",
                          "display": "Erythrocyte distribution width [Ratio]",
                          "system": "http://loinc.org"
                      }
                  ],
                  "text": "Erythrocyte distribution width [Ratio]"
              },
              "valueQuantity": {
                  "value": 10.5,
                  "code": "%",
                  "unit": "percent",
                  "system": "http://unitsofmeasure.org"
              },
              "referenceRange": [
                  {
                      "text": "10.2 to 14.5"
                  }
              ],
              "effectiveDateTime": "2011-01-04T04:04:28+05:30",
              "performer": [
                  {
                      "reference": "PractitionerRole/fbbaa96a-8a5d-f670-0fcf-838b21d4c6a8"
                  }
              ],
              "interpretation": [
                  {
                      "coding": [
                          {
                              "code": "N",
                              "display": "Normal",
                              "system": "http://terminology.hl7.org/CodeSystem/v3-ObservationInterpretation"
                          }
                      ]
                  }
              ],
              "subject": {
                  "reference": "Patient/397de93b-65e0-b3b6-7a79-d7869d57a8aa"
              },
              "extension": [
                  {
                      "url": "http://example.com/v2-to-fhir-converter/Observation_Status",
                      "valueCodeableConcept": {
                          "coding": [
                              {
                                  "code": "F",
                                  "display": "Final",
                                  "system": "http://terminology.hl7.org/CodeSystem/v2-0085"
                              }
                          ],
                          "text": "Final"
                      }
                  }
              ],
              "basedOn": [
                  {
                      "reference": "ServiceRequest/be7b96d7-8880-3116-f8e3-328359c8e8b1"
                  }
              ]
          },
          "request": {
              "method": "PUT",
              "url": "Observation/5b437ecc-2c30-8c06-133f-465771b904ad"
          }
      },
      {
          "fullUrl": "urn:uuid:911e4e3a-2cbc-7a98-00d7-c84848cf5089",
          "resource": {
              "resourceType": "Observation",
              "id": "911e4e3a-2cbc-7a98-00d7-c84848cf5089",
              "status": "final",
              "code": {
                  "coding": [
                      {
                          "code": "26444-0",
                          "display": "Basophils [#/volume] in Blood",
                          "system": "http://loinc.org"
                      }
                  ],
                  "text": "Basophils [#/volume] in Blood"
              },
              "valueQuantity": {
                  "value": 0.1,
                  "code": "10*3/uL",
                  "unit": "thousand per microliter",
                  "system": "http://unitsofmeasure.org"
              },
              "referenceRange": [
                  {
                      "text": "0 to 0.3"
                  }
              ],
              "effectiveDateTime": "2011-01-04T04:04:28+05:30",
              "performer": [
                  {
                      "reference": "PractitionerRole/fbbaa96a-8a5d-f670-0fcf-838b21d4c6a8"
                  }
              ],
              "interpretation": [
                  {
                      "coding": [
                          {
                              "code": "N",
                              "display": "Normal",
                              "system": "http://terminology.hl7.org/CodeSystem/v3-ObservationInterpretation"
                          }
                      ]
                  }
              ],
              "subject": {
                  "reference": "Patient/397de93b-65e0-b3b6-7a79-d7869d57a8aa"
              },
              "extension": [
                  {
                      "url": "http://example.com/v2-to-fhir-converter/Observation_Status",
                      "valueCodeableConcept": {
                          "coding": [
                              {
                                  "code": "F",
                                  "display": "Final",
                                  "system": "http://terminology.hl7.org/CodeSystem/v2-0085"
                              }
                          ],
                          "text": "Final"
                      }
                  }
              ],
              "basedOn": [
                  {
                      "reference": "ServiceRequest/be7b96d7-8880-3116-f8e3-328359c8e8b1"
                  }
              ]
          },
          "request": {
              "method": "PUT",
              "url": "Observation/911e4e3a-2cbc-7a98-00d7-c84848cf5089"
          }
      },
      {
          "fullUrl": "urn:uuid:56ced431-5315-0916-1416-28535869cf35",
          "resource": {
              "resourceType": "Observation",
              "id": "56ced431-5315-0916-1416-28535869cf35",
              "status": "final",
              "code": {
                  "coding": [
                      {
                          "code": "30180-4",
                          "display": "Basophils/100 leukocytes in Blood",
                          "system": "http://loinc.org"
                      }
                  ],
                  "text": "Basophils/100 leukocytes in Blood"
              },
              "valueQuantity": {
                  "value": 0.1,
                  "code": "%",
                  "unit": "percent",
                  "system": "http://unitsofmeasure.org"
              },
              "referenceRange": [
                  {
                      "text": "0 to 2"
                  }
              ],
              "effectiveDateTime": "2011-01-04T04:04:28+05:30",
              "performer": [
                  {
                      "reference": "PractitionerRole/fbbaa96a-8a5d-f670-0fcf-838b21d4c6a8"
                  }
              ],
              "interpretation": [
                  {
                      "coding": [
                          {
                              "code": "N",
                              "display": "Normal",
                              "system": "http://terminology.hl7.org/CodeSystem/v3-ObservationInterpretation"
                          }
                      ]
                  }
              ],
              "subject": {
                  "reference": "Patient/397de93b-65e0-b3b6-7a79-d7869d57a8aa"
              },
              "extension": [
                  {
                      "url": "http://example.com/v2-to-fhir-converter/Observation_Status",
                      "valueCodeableConcept": {
                          "coding": [
                              {
                                  "code": "F",
                                  "display": "Final",
                                  "system": "http://terminology.hl7.org/CodeSystem/v2-0085"
                              }
                          ],
                          "text": "Final"
                      }
                  }
              ],
              "basedOn": [
                  {
                      "reference": "ServiceRequest/be7b96d7-8880-3116-f8e3-328359c8e8b1"
                  }
              ]
          },
          "request": {
              "method": "PUT",
              "url": "Observation/56ced431-5315-0916-1416-28535869cf35"
          }
      },
      {
          "fullUrl": "urn:uuid:a66c4fde-e0f8-969f-26fa-302858c57c3e",
          "resource": {
              "resourceType": "Observation",
              "id": "a66c4fde-e0f8-969f-26fa-302858c57c3e",
              "status": "final",
              "code": {
                  "coding": [
                      {
                          "code": "26484-6",
                          "display": "Monocytes [#/volume] in Blood",
                          "system": "http://loinc.org"
                      }
                  ],
                  "text": "Monocytes [#/volume] in Blood"
              },
              "valueQuantity": {
                  "value": 3,
                  "code": "10*3/uL",
                  "unit": "thousand per microliter",
                  "system": "http://unitsofmeasure.org"
              },
              "referenceRange": [
                  {
                      "text": "0.0 to 13.0"
                  }
              ],
              "effectiveDateTime": "2011-01-04T04:04:28+05:30",
              "performer": [
                  {
                      "reference": "PractitionerRole/fbbaa96a-8a5d-f670-0fcf-838b21d4c6a8"
                  }
              ],
              "interpretation": [
                  {
                      "coding": [
                          {
                              "code": "N",
                              "display": "Normal",
                              "system": "http://terminology.hl7.org/CodeSystem/v3-ObservationInterpretation"
                          }
                      ]
                  }
              ],
              "subject": {
                  "reference": "Patient/397de93b-65e0-b3b6-7a79-d7869d57a8aa"
              },
              "extension": [
                  {
                      "url": "http://example.com/v2-to-fhir-converter/Observation_Status",
                      "valueCodeableConcept": {
                          "coding": [
                              {
                                  "code": "F",
                                  "display": "Final",
                                  "system": "http://terminology.hl7.org/CodeSystem/v2-0085"
                              }
                          ],
                          "text": "Final"
                      }
                  }
              ],
              "basedOn": [
                  {
                      "reference": "ServiceRequest/be7b96d7-8880-3116-f8e3-328359c8e8b1"
                  }
              ]
          },
          "request": {
              "method": "PUT",
              "url": "Observation/a66c4fde-e0f8-969f-26fa-302858c57c3e"
          }
      },
      {
          "fullUrl": "urn:uuid:a6f52e45-f836-4fc8-8c16-aae3d4e2ed16",
          "resource": {
              "resourceType": "Observation",
              "id": "a6f52e45-f836-4fc8-8c16-aae3d4e2ed16",
              "status": "final",
              "code": {
                  "coding": [
                      {
                          "code": "26485-3",
                          "display": "Monocytes/100 leukocytes in Blood",
                          "system": "http://loinc.org"
                      }
                  ],
                  "text": "Monocytes/100 leukocytes in Blood"
              },
              "valueQuantity": {
                  "value": 3,
                  "code": "%",
                  "unit": "percent",
                  "system": "http://unitsofmeasure.org"
              },
              "referenceRange": [
                  {
                      "text": "0 to 10"
                  }
              ],
              "effectiveDateTime": "2011-01-04T04:04:28+05:30",
              "performer": [
                  {
                      "reference": "PractitionerRole/fbbaa96a-8a5d-f670-0fcf-838b21d4c6a8"
                  }
              ],
              "interpretation": [
                  {
                      "coding": [
                          {
                              "code": "N",
                              "display": "Normal",
                              "system": "http://terminology.hl7.org/CodeSystem/v3-ObservationInterpretation"
                          }
                      ]
                  }
              ],
              "subject": {
                  "reference": "Patient/397de93b-65e0-b3b6-7a79-d7869d57a8aa"
              },
              "extension": [
                  {
                      "url": "http://example.com/v2-to-fhir-converter/Observation_Status",
                      "valueCodeableConcept": {
                          "coding": [
                              {
                                  "code": "F",
                                  "display": "Final",
                                  "system": "http://terminology.hl7.org/CodeSystem/v2-0085"
                              }
                          ],
                          "text": "Final"
                      }
                  }
              ],
              "basedOn": [
                  {
                      "reference": "ServiceRequest/be7b96d7-8880-3116-f8e3-328359c8e8b1"
                  }
              ]
          },
          "request": {
              "method": "PUT",
              "url": "Observation/a6f52e45-f836-4fc8-8c16-aae3d4e2ed16"
          }
      },
      {
          "fullUrl": "urn:uuid:003b8354-4e8a-c413-7904-a5827158c46b",
          "resource": {
              "resourceType": "Observation",
              "id": "003b8354-4e8a-c413-7904-a5827158c46b",
              "status": "final",
              "code": {
                  "coding": [
                      {
                          "code": "26449-9",
                          "display": "Eosinophils [#/volume] in Blood",
                          "system": "http://loinc.org"
                      }
                  ],
                  "text": "Eosinophils [#/volume] in Blood"
              },
              "valueQuantity": {
                  "value": 2.1,
                  "code": "10*3/uL",
                  "unit": "thousand per microliter",
                  "system": "http://unitsofmeasure.org"
              },
              "referenceRange": [
                  {
                      "text": "0.0 to 0.45"
                  }
              ],
              "effectiveDateTime": "2011-01-04T04:04:28+05:30",
              "performer": [
                  {
                      "reference": "PractitionerRole/fbbaa96a-8a5d-f670-0fcf-838b21d4c6a8"
                  }
              ],
              "interpretation": [
                  {
                      "coding": [
                          {
                              "code": "HH",
                              "display": "Critical high",
                              "system": "http://terminology.hl7.org/CodeSystem/v3-ObservationInterpretation"
                          }
                      ]
                  }
              ],
              "subject": {
                  "reference": "Patient/397de93b-65e0-b3b6-7a79-d7869d57a8aa"
              },
              "extension": [
                  {
                      "url": "http://example.com/v2-to-fhir-converter/Observation_Status",
                      "valueCodeableConcept": {
                          "coding": [
                              {
                                  "code": "F",
                                  "display": "Final",
                                  "system": "http://terminology.hl7.org/CodeSystem/v2-0085"
                              }
                          ],
                          "text": "Final"
                      }
                  }
              ],
              "basedOn": [
                  {
                      "reference": "ServiceRequest/be7b96d7-8880-3116-f8e3-328359c8e8b1"
                  }
              ]
          },
          "request": {
              "method": "PUT",
              "url": "Observation/003b8354-4e8a-c413-7904-a5827158c46b"
          }
      },
      {
          "fullUrl": "urn:uuid:201f8c4b-0e9a-ca62-aedd-5baf37822777",
          "resource": {
              "resourceType": "Observation",
              "id": "201f8c4b-0e9a-ca62-aedd-5baf37822777",
              "status": "final",
              "code": {
                  "coding": [
                      {
                          "code": "26450-7",
                          "display": "Eosinophils/100 leukocytes in Blood",
                          "system": "http://loinc.org"
                      }
                  ],
                  "text": "Eosinophils/100 leukocytes in Blood"
              },
              "valueQuantity": {
                  "value": 2,
                  "code": "%",
                  "unit": "percent",
                  "system": "http://unitsofmeasure.org"
              },
              "referenceRange": [
                  {
                      "text": "0 to 6"
                  }
              ],
              "effectiveDateTime": "2011-01-04T04:04:28+05:30",
              "performer": [
                  {
                      "reference": "PractitionerRole/fbbaa96a-8a5d-f670-0fcf-838b21d4c6a8"
                  }
              ],
              "interpretation": [
                  {
                      "coding": [
                          {
                              "code": "N",
                              "display": "Normal",
                              "system": "http://terminology.hl7.org/CodeSystem/v3-ObservationInterpretation"
                          }
                      ]
                  }
              ],
              "subject": {
                  "reference": "Patient/397de93b-65e0-b3b6-7a79-d7869d57a8aa"
              },
              "extension": [
                  {
                      "url": "http://example.com/v2-to-fhir-converter/Observation_Status",
                      "valueCodeableConcept": {
                          "coding": [
                              {
                                  "code": "F",
                                  "display": "Final",
                                  "system": "http://terminology.hl7.org/CodeSystem/v2-0085"
                              }
                          ],
                          "text": "Final"
                      }
                  }
              ],
              "basedOn": [
                  {
                      "reference": "ServiceRequest/be7b96d7-8880-3116-f8e3-328359c8e8b1"
                  }
              ]
          },
          "request": {
              "method": "PUT",
              "url": "Observation/201f8c4b-0e9a-ca62-aedd-5baf37822777"
          }
      },
      {
          "fullUrl": "urn:uuid:82489f84-cccb-c095-eb55-42ed77eb1c94",
          "resource": {
              "resourceType": "Observation",
              "id": "82489f84-cccb-c095-eb55-42ed77eb1c94",
              "status": "final",
              "code": {
                  "coding": [
                      {
                          "code": "26474-7",
                          "display": "Lymphocytes [#/volume] in Blood",
                          "system": "http://loinc.org"
                      }
                  ],
                  "text": "Lymphocytes [#/volume] in Blood"
              },
              "valueQuantity": {
                  "value": 41.2,
                  "code": "10*3/uL",
                  "unit": "thousand per microliter",
                  "system": "http://unitsofmeasure.org"
              },
              "referenceRange": [
                  {
                      "text": "1.0 to 4.8"
                  }
              ],
              "effectiveDateTime": "2011-01-04T04:04:28+05:30",
              "performer": [
                  {
                      "reference": "PractitionerRole/fbbaa96a-8a5d-f670-0fcf-838b21d4c6a8"
                  }
              ],
              "interpretation": [
                  {
                      "coding": [
                          {
                              "code": "HH",
                              "display": "Critical high",
                              "system": "http://terminology.hl7.org/CodeSystem/v3-ObservationInterpretation"
                          }
                      ]
                  }
              ],
              "subject": {
                  "reference": "Patient/397de93b-65e0-b3b6-7a79-d7869d57a8aa"
              },
              "extension": [
                  {
                      "url": "http://example.com/v2-to-fhir-converter/Observation_Status",
                      "valueCodeableConcept": {
                          "coding": [
                              {
                                  "code": "F",
                                  "display": "Final",
                                  "system": "http://terminology.hl7.org/CodeSystem/v2-0085"
                              }
                          ],
                          "text": "Final"
                      }
                  }
              ],
              "basedOn": [
                  {
                      "reference": "ServiceRequest/be7b96d7-8880-3116-f8e3-328359c8e8b1"
                  }
              ]
          },
          "request": {
              "method": "PUT",
              "url": "Observation/82489f84-cccb-c095-eb55-42ed77eb1c94"
          }
      },
      {
          "fullUrl": "urn:uuid:452e4d56-c770-85d2-56d5-b8831f428ece",
          "resource": {
              "resourceType": "Observation",
              "id": "452e4d56-c770-85d2-56d5-b8831f428ece",
              "status": "final",
              "code": {
                  "coding": [
                      {
                          "code": "26478-8",
                          "display": "Lymphocytes/100 leukocytes in Blood",
                          "system": "http://loinc.org"
                      }
                  ],
                  "text": "Lymphocytes/100 leukocytes in Blood"
              },
              "valueQuantity": {
                  "value": 39,
                  "code": "%",
                  "unit": "percent",
                  "system": "http://unitsofmeasure.org"
              },
              "referenceRange": [
                  {
                      "text": "15.0 to 45.0"
                  }
              ],
              "effectiveDateTime": "2011-01-04T04:04:28+05:30",
              "performer": [
                  {
                      "reference": "PractitionerRole/fbbaa96a-8a5d-f670-0fcf-838b21d4c6a8"
                  }
              ],
              "interpretation": [
                  {
                      "coding": [
                          {
                              "code": "N",
                              "display": "Normal",
                              "system": "http://terminology.hl7.org/CodeSystem/v3-ObservationInterpretation"
                          }
                      ]
                  }
              ],
              "subject": {
                  "reference": "Patient/397de93b-65e0-b3b6-7a79-d7869d57a8aa"
              },
              "extension": [
                  {
                      "url": "http://example.com/v2-to-fhir-converter/Observation_Status",
                      "valueCodeableConcept": {
                          "coding": [
                              {
                                  "code": "F",
                                  "display": "Final",
                                  "system": "http://terminology.hl7.org/CodeSystem/v2-0085"
                              }
                          ],
                          "text": "Final"
                      }
                  }
              ],
              "basedOn": [
                  {
                      "reference": "ServiceRequest/be7b96d7-8880-3116-f8e3-328359c8e8b1"
                  }
              ]
          },
          "request": {
              "method": "PUT",
              "url": "Observation/452e4d56-c770-85d2-56d5-b8831f428ece"
          }
      },
      {
          "fullUrl": "urn:uuid:2a2a40ab-094b-5c4f-ed4c-06da5b795adb",
          "resource": {
              "resourceType": "Observation",
              "id": "2a2a40ab-094b-5c4f-ed4c-06da5b795adb",
              "status": "final",
              "code": {
                  "coding": [
                      {
                          "code": "26499-4",
                          "display": "Neutrophils [#/volume] in Blood",
                          "system": "http://loinc.org"
                      }
                  ],
                  "text": "Neutrophils [#/volume] in Blood"
              },
              "valueQuantity": {
                  "value": 58,
                  "code": "10*3/uL",
                  "unit": "thousand per microliter",
                  "system": "http://unitsofmeasure.org"
              },
              "referenceRange": [
                  {
                      "text": "1.5 to 7.0"
                  }
              ],
              "effectiveDateTime": "2011-01-04T04:04:28+05:30",
              "performer": [
                  {
                      "reference": "PractitionerRole/fbbaa96a-8a5d-f670-0fcf-838b21d4c6a8"
                  }
              ],
              "interpretation": [
                  {
                      "coding": [
                          {
                              "code": "HH",
                              "display": "Critical high",
                              "system": "http://terminology.hl7.org/CodeSystem/v3-ObservationInterpretation"
                          }
                      ]
                  }
              ],
              "subject": {
                  "reference": "Patient/397de93b-65e0-b3b6-7a79-d7869d57a8aa"
              },
              "extension": [
                  {
                      "url": "http://example.com/v2-to-fhir-converter/Observation_Status",
                      "valueCodeableConcept": {
                          "coding": [
                              {
                                  "code": "F",
                                  "display": "Final",
                                  "system": "http://terminology.hl7.org/CodeSystem/v2-0085"
                              }
                          ],
                          "text": "Final"
                      }
                  }
              ],
              "basedOn": [
                  {
                      "reference": "ServiceRequest/be7b96d7-8880-3116-f8e3-328359c8e8b1"
                  }
              ]
          },
          "request": {
              "method": "PUT",
              "url": "Observation/2a2a40ab-094b-5c4f-ed4c-06da5b795adb"
          }
      },
      {
          "fullUrl": "urn:uuid:50ff46fb-efee-ee90-4005-de5f705b3e05",
          "resource": {
              "resourceType": "Observation",
              "id": "50ff46fb-efee-ee90-4005-de5f705b3e05",
              "status": "final",
              "code": {
                  "coding": [
                      {
                          "code": "26511-6",
                          "display": "Neutrophils/100 leukocytes in Blood",
                          "system": "http://loinc.org"
                      }
                  ],
                  "text": "Neutrophils/100 leukocytes in Blood"
              },
              "valueQuantity": {
                  "value": 55,
                  "code": "%",
                  "unit": "percent",
                  "system": "http://unitsofmeasure.org"
              },
              "referenceRange": [
                  {
                      "text": "50 to 73"
                  }
              ],
              "effectiveDateTime": "2011-01-04T04:04:28+05:30",
              "performer": [
                  {
                      "reference": "PractitionerRole/fbbaa96a-8a5d-f670-0fcf-838b21d4c6a8"
                  }
              ],
              "interpretation": [
                  {
                      "coding": [
                          {
                              "code": "N",
                              "display": "Normal",
                              "system": "http://terminology.hl7.org/CodeSystem/v3-ObservationInterpretation"
                          }
                      ]
                  }
              ],
              "subject": {
                  "reference": "Patient/397de93b-65e0-b3b6-7a79-d7869d57a8aa"
              },
              "extension": [
                  {
                      "url": "http://example.com/v2-to-fhir-converter/Observation_Status",
                      "valueCodeableConcept": {
                          "coding": [
                              {
                                  "code": "F",
                                  "display": "Final",
                                  "system": "http://terminology.hl7.org/CodeSystem/v2-0085"
                              }
                          ],
                          "text": "Final"
                      }
                  }
              ],
              "basedOn": [
                  {
                      "reference": "ServiceRequest/be7b96d7-8880-3116-f8e3-328359c8e8b1"
                  }
              ]
          },
          "request": {
              "method": "PUT",
              "url": "Observation/50ff46fb-efee-ee90-4005-de5f705b3e05"
          }
      },
      {
          "fullUrl": "urn:uuid:acd9efe2-e488-9629-4ee4-7381dd2f033a",
          "resource": {
              "resourceType": "Observation",
              "id": "acd9efe2-e488-9629-4ee4-7381dd2f033a",
              "status": "final",
              "code": {
                  "coding": [
                      {
                          "code": "38892-6",
                          "display": "Anisocytosis [Presence] in Blood",
                          "system": "http://loinc.org"
                      }
                  ],
                  "text": "Anisocytosis [Presence] in Blood"
              },
              "valueCodeableConcept": {
                  "coding": [
                      {
                          "code": "260348001",
                          "display": "Present ++ out of ++++",
                          "system": "http://snomed.info/sct"
                      }
                  ],
                  "text": "Moderate Anisocytosis"
              },
              "effectiveDateTime": "2011-01-04T04:04:28+05:30",
              "performer": [
                  {
                      "reference": "PractitionerRole/fbbaa96a-8a5d-f670-0fcf-838b21d4c6a8"
                  }
              ],
              "interpretation": [
                  {
                      "coding": [
                          {
                              "code": "A",
                              "display": "Abnormal",
                              "system": "http://terminology.hl7.org/CodeSystem/v3-ObservationInterpretation"
                          }
                      ]
                  }
              ],
              "subject": {
                  "reference": "Patient/397de93b-65e0-b3b6-7a79-d7869d57a8aa"
              },
              "extension": [
                  {
                      "url": "http://example.com/v2-to-fhir-converter/Observation_Status",
                      "valueCodeableConcept": {
                          "coding": [
                              {
                                  "code": "F",
                                  "display": "Final",
                                  "system": "http://terminology.hl7.org/CodeSystem/v2-0085"
                              }
                          ],
                          "text": "Final"
                      }
                  }
              ],
              "basedOn": [
                  {
                      "reference": "ServiceRequest/be7b96d7-8880-3116-f8e3-328359c8e8b1"
                  }
              ]
          },
          "request": {
              "method": "PUT",
              "url": "Observation/acd9efe2-e488-9629-4ee4-7381dd2f033a"
          }
      },
      {
          "fullUrl": "urn:uuid:7590df32-4991-c5ec-defe-e0dc2c2eaf1e",
          "resource": {
              "resourceType": "Observation",
              "id": "7590df32-4991-c5ec-defe-e0dc2c2eaf1e",
              "status": "final",
              "code": {
                  "coding": [
                      {
                          "code": "30400-6",
                          "display": "Hypochromia [Presence] in Blood",
                          "system": "http://loinc.org"
                      }
                  ],
                  "text": "Hypochromia [Presence] in Blood"
              },
              "valueCodeableConcept": {
                  "coding": [
                      {
                          "code": "260415000",
                          "display": "not detected",
                          "system": "http://snomed.info/sct"
                      }
                  ],
                  "text": "None seen"
              },
              "effectiveDateTime": "2011-01-04T04:04:28+05:30",
              "performer": [
                  {
                      "reference": "PractitionerRole/fbbaa96a-8a5d-f670-0fcf-838b21d4c6a8"
                  }
              ],
              "interpretation": [
                  {
                      "coding": [
                          {
                              "code": "N",
                              "display": "Normal",
                              "system": "http://terminology.hl7.org/CodeSystem/v3-ObservationInterpretation"
                          }
                      ]
                  }
              ],
              "subject": {
                  "reference": "Patient/397de93b-65e0-b3b6-7a79-d7869d57a8aa"
              },
              "extension": [
                  {
                      "url": "http://example.com/v2-to-fhir-converter/Observation_Status",
                      "valueCodeableConcept": {
                          "coding": [
                              {
                                  "code": "F",
                                  "display": "Final",
                                  "system": "http://terminology.hl7.org/CodeSystem/v2-0085"
                              }
                          ],
                          "text": "Final"
                      }
                  }
              ],
              "basedOn": [
                  {
                      "reference": "ServiceRequest/be7b96d7-8880-3116-f8e3-328359c8e8b1"
                  }
              ]
          },
          "request": {
              "method": "PUT",
              "url": "Observation/7590df32-4991-c5ec-defe-e0dc2c2eaf1e"
          }
      },
      {
          "fullUrl": "urn:uuid:9309af3c-7981-ab3a-916e-39e0c93849e1",
          "resource": {
              "resourceType": "Observation",
              "id": "9309af3c-7981-ab3a-916e-39e0c93849e1",
              "status": "final",
              "code": {
                  "coding": [
                      {
                          "code": "30424-6",
                          "display": "Macrocytes [Presence] in Blood",
                          "system": "http://loinc.org"
                      }
                  ],
                  "text": "Macrocytes [Presence] in Blood"
              },
              "valueCodeableConcept": {
                  "coding": [
                      {
                          "code": "260415000",
                          "display": "not detected",
                          "system": "http://snomed.info/sct"
                      }
                  ],
                  "text": "None seen"
              },
              "effectiveDateTime": "2011-01-04T04:04:28+05:30",
              "performer": [
                  {
                      "reference": "PractitionerRole/fbbaa96a-8a5d-f670-0fcf-838b21d4c6a8"
                  }
              ],
              "interpretation": [
                  {
                      "coding": [
                          {
                              "code": "N",
                              "display": "Normal",
                              "system": "http://terminology.hl7.org/CodeSystem/v3-ObservationInterpretation"
                          }
                      ]
                  }
              ],
              "subject": {
                  "reference": "Patient/397de93b-65e0-b3b6-7a79-d7869d57a8aa"
              },
              "extension": [
                  {
                      "url": "http://example.com/v2-to-fhir-converter/Observation_Status",
                      "valueCodeableConcept": {
                          "coding": [
                              {
                                  "code": "F",
                                  "display": "Final",
                                  "system": "http://terminology.hl7.org/CodeSystem/v2-0085"
                              }
                          ],
                          "text": "Final"
                      }
                  }
              ],
              "basedOn": [
                  {
                      "reference": "ServiceRequest/be7b96d7-8880-3116-f8e3-328359c8e8b1"
                  }
              ]
          },
          "request": {
              "method": "PUT",
              "url": "Observation/9309af3c-7981-ab3a-916e-39e0c93849e1"
          }
      },
      {
          "fullUrl": "urn:uuid:7a7a84ca-efac-1264-4b89-afcb99a042d3",
          "resource": {
              "resourceType": "Observation",
              "id": "7a7a84ca-efac-1264-4b89-afcb99a042d3",
              "status": "final",
              "code": {
                  "coding": [
                      {
                          "code": "30434-5",
                          "display": "Microcytes [Presence] in Blood",
                          "system": "http://loinc.org"
                      }
                  ],
                  "text": "Microcytes [Presence] in Blood"
              },
              "valueCodeableConcept": {
                  "coding": [
                      {
                          "code": "260415000",
                          "display": "not detected",
                          "system": "http://snomed.info/sct"
                      }
                  ],
                  "text": "None seen"
              },
              "effectiveDateTime": "2011-01-04T04:04:28+05:30",
              "performer": [
                  {
                      "reference": "PractitionerRole/fbbaa96a-8a5d-f670-0fcf-838b21d4c6a8"
                  }
              ],
              "interpretation": [
                  {
                      "coding": [
                          {
                              "code": "N",
                              "display": "Normal",
                              "system": "http://terminology.hl7.org/CodeSystem/v3-ObservationInterpretation"
                          }
                      ]
                  }
              ],
              "subject": {
                  "reference": "Patient/397de93b-65e0-b3b6-7a79-d7869d57a8aa"
              },
              "extension": [
                  {
                      "url": "http://example.com/v2-to-fhir-converter/Observation_Status",
                      "valueCodeableConcept": {
                          "coding": [
                              {
                                  "code": "F",
                                  "display": "Final",
                                  "system": "http://terminology.hl7.org/CodeSystem/v2-0085"
                              }
                          ],
                          "text": "Final"
                      }
                  }
              ],
              "basedOn": [
                  {
                      "reference": "ServiceRequest/be7b96d7-8880-3116-f8e3-328359c8e8b1"
                  }
              ]
          },
          "request": {
              "method": "PUT",
              "url": "Observation/7a7a84ca-efac-1264-4b89-afcb99a042d3"
          }
      },
      {
          "fullUrl": "urn:uuid:cbf7415b-71cd-2693-d05f-729ad10cab5b",
          "resource": {
              "resourceType": "Observation",
              "id": "cbf7415b-71cd-2693-d05f-729ad10cab5b",
              "status": "final",
              "code": {
                  "coding": [
                      {
                          "code": "779-9",
                          "display": "Poikilocytosis [Presence] in Blood by Light microscopy",
                          "system": "http://loinc.org"
                      }
                  ],
                  "text": "Poikilocytosis [Presence] in Blood by Light microscopy"
              },
              "valueCodeableConcept": {
                  "coding": [
                      {
                          "code": "260415000",
                          "display": "not detected",
                          "system": "http://snomed.info/sct"
                      }
                  ],
                  "text": "None seen"
              },
              "effectiveDateTime": "2011-01-04T04:04:28+05:30",
              "performer": [
                  {
                      "reference": "PractitionerRole/fbbaa96a-8a5d-f670-0fcf-838b21d4c6a8"
                  }
              ],
              "interpretation": [
                  {
                      "coding": [
                          {
                              "code": "N",
                              "display": "Normal",
                              "system": "http://terminology.hl7.org/CodeSystem/v3-ObservationInterpretation"
                          }
                      ]
                  }
              ],
              "subject": {
                  "reference": "Patient/397de93b-65e0-b3b6-7a79-d7869d57a8aa"
              },
              "extension": [
                  {
                      "url": "http://example.com/v2-to-fhir-converter/Observation_Status",
                      "valueCodeableConcept": {
                          "coding": [
                              {
                                  "code": "F",
                                  "display": "Final",
                                  "system": "http://terminology.hl7.org/CodeSystem/v2-0085"
                              }
                          ],
                          "text": "Final"
                      }
                  }
              ],
              "basedOn": [
                  {
                      "reference": "ServiceRequest/be7b96d7-8880-3116-f8e3-328359c8e8b1"
                  }
              ]
          },
          "request": {
              "method": "PUT",
              "url": "Observation/cbf7415b-71cd-2693-d05f-729ad10cab5b"
          }
      },
      {
          "fullUrl": "urn:uuid:f0e1d14d-8b98-c494-88da-2ccc76244df2",
          "resource": {
              "resourceType": "Observation",
              "id": "f0e1d14d-8b98-c494-88da-2ccc76244df2",
              "status": "final",
              "code": {
                  "coding": [
                      {
                          "code": "10378-8",
                          "display": "Polychromasia [Presence] in Blood by Light microscopy",
                          "system": "http://loinc.org"
                      }
                  ],
                  "text": "Polychromasia [Presence] in Blood by Light microscopy"
              },
              "valueCodeableConcept": {
                  "coding": [
                      {
                          "code": "260415000",
                          "display": "not detected",
                          "system": "http://snomed.info/sct"
                      }
                  ],
                  "text": "None seen"
              },
              "effectiveDateTime": "2011-01-04T04:04:28+05:30",
              "performer": [
                  {
                      "reference": "PractitionerRole/fbbaa96a-8a5d-f670-0fcf-838b21d4c6a8"
                  }
              ],
              "interpretation": [
                  {
                      "coding": [
                          {
                              "code": "N",
                              "display": "Normal",
                              "system": "http://terminology.hl7.org/CodeSystem/v3-ObservationInterpretation"
                          }
                      ]
                  }
              ],
              "subject": {
                  "reference": "Patient/397de93b-65e0-b3b6-7a79-d7869d57a8aa"
              },
              "extension": [
                  {
                      "url": "http://example.com/v2-to-fhir-converter/Observation_Status",
                      "valueCodeableConcept": {
                          "coding": [
                              {
                                  "code": "F",
                                  "display": "Final",
                                  "system": "http://terminology.hl7.org/CodeSystem/v2-0085"
                              }
                          ],
                          "text": "Final"
                      }
                  }
              ],
              "basedOn": [
                  {
                      "reference": "ServiceRequest/be7b96d7-8880-3116-f8e3-328359c8e8b1"
                  }
              ]
          },
          "request": {
              "method": "PUT",
              "url": "Observation/f0e1d14d-8b98-c494-88da-2ccc76244df2"
          }
      },
      {
          "fullUrl": "urn:uuid:04f6146a-df8b-3d11-aac2-5f003cbc41eb",
          "resource": {
              "resourceType": "Observation",
              "id": "04f6146a-df8b-3d11-aac2-5f003cbc41eb",
              "status": "final",
              "code": {
                  "coding": [
                      {
                          "code": "6742-1",
                          "display": "Erythrocyte morphology finding [Identifier] in Blood",
                          "system": "http://loinc.org"
                      }
                  ],
                  "text": "Erythrocyte morphology finding [Identifier] in Blood"
              },
              "valueString": "Many spherocytes present.",
              "effectiveDateTime": "2011-01-04T04:04:28+05:30",
              "performer": [
                  {
                      "reference": "PractitionerRole/fbbaa96a-8a5d-f670-0fcf-838b21d4c6a8"
                  }
              ],
              "interpretation": [
                  {
                      "coding": [
                          {
                              "code": "A",
                              "display": "Abnormal",
                              "system": "http://terminology.hl7.org/CodeSystem/v3-ObservationInterpretation"
                          }
                      ]
                  }
              ],
              "subject": {
                  "reference": "Patient/397de93b-65e0-b3b6-7a79-d7869d57a8aa"
              },
              "extension": [
                  {
                      "url": "http://example.com/v2-to-fhir-converter/Observation_Status",
                      "valueCodeableConcept": {
                          "coding": [
                              {
                                  "code": "F",
                                  "display": "Final",
                                  "system": "http://terminology.hl7.org/CodeSystem/v2-0085"
                              }
                          ],
                          "text": "Final"
                      }
                  }
              ],
              "basedOn": [
                  {
                      "reference": "ServiceRequest/be7b96d7-8880-3116-f8e3-328359c8e8b1"
                  }
              ]
          },
          "request": {
              "method": "PUT",
              "url": "Observation/04f6146a-df8b-3d11-aac2-5f003cbc41eb"
          }
      },
      {
          "fullUrl": "urn:uuid:d6dd70a5-58fa-39bc-c4c8-81398826e0bb",
          "resource": {
              "resourceType": "Observation",
              "id": "d6dd70a5-58fa-39bc-c4c8-81398826e0bb",
              "status": "final",
              "code": {
                  "coding": [
                      {
                          "code": "11156-7",
                          "display": "Leukocyte morphology finding [Identifier] in Blood",
                          "system": "http://loinc.org"
                      }
                  ],
                  "text": "Leukocyte morphology finding [Identifier] in Blood"
              },
              "valueString": "Reactive morphology in lymphoid cells.",
              "effectiveDateTime": "2011-01-04T04:04:28+05:30",
              "performer": [
                  {
                      "reference": "PractitionerRole/fbbaa96a-8a5d-f670-0fcf-838b21d4c6a8"
                  }
              ],
              "interpretation": [
                  {
                      "coding": [
                          {
                              "code": "A",
                              "display": "Abnormal",
                              "system": "http://terminology.hl7.org/CodeSystem/v3-ObservationInterpretation"
                          }
                      ]
                  }
              ],
              "subject": {
                  "reference": "Patient/397de93b-65e0-b3b6-7a79-d7869d57a8aa"
              },
              "extension": [
                  {
                      "url": "http://example.com/v2-to-fhir-converter/Observation_Status",
                      "valueCodeableConcept": {
                          "coding": [
                              {
                                  "code": "F",
                                  "display": "Final",
                                  "system": "http://terminology.hl7.org/CodeSystem/v2-0085"
                              }
                          ],
                          "text": "Final"
                      }
                  }
              ],
              "basedOn": [
                  {
                      "reference": "ServiceRequest/be7b96d7-8880-3116-f8e3-328359c8e8b1"
                  }
              ]
          },
          "request": {
              "method": "PUT",
              "url": "Observation/d6dd70a5-58fa-39bc-c4c8-81398826e0bb"
          }
      },
      {
          "fullUrl": "urn:uuid:f20f3493-d398-8740-ad5f-24421acdb6ad",
          "resource": {
              "resourceType": "Observation",
              "id": "f20f3493-d398-8740-ad5f-24421acdb6ad",
              "status": "final",
              "code": {
                  "coding": [
                      {
                          "code": "11125-2",
                          "display": "Platelet morphology finding [Identifier] in Blood",
                          "system": "http://loinc.org"
                      }
                  ],
                  "text": "Platelet morphology finding [Identifier] in Blood"
              },
              "valueString": "Platelets show defective granulation.",
              "effectiveDateTime": "2011-01-04T04:04:28+05:30",
              "performer": [
                  {
                      "reference": "PractitionerRole/fbbaa96a-8a5d-f670-0fcf-838b21d4c6a8"
                  }
              ],
              "interpretation": [
                  {
                      "coding": [
                          {
                              "code": "A",
                              "display": "Abnormal",
                              "system": "http://terminology.hl7.org/CodeSystem/v3-ObservationInterpretation"
                          }
                      ]
                  }
              ],
              "subject": {
                  "reference": "Patient/397de93b-65e0-b3b6-7a79-d7869d57a8aa"
              },
              "extension": [
                  {
                      "url": "http://example.com/v2-to-fhir-converter/Observation_Status",
                      "valueCodeableConcept": {
                          "coding": [
                              {
                                  "code": "F",
                                  "display": "Final",
                                  "system": "http://terminology.hl7.org/CodeSystem/v2-0085"
                              }
                          ],
                          "text": "Final"
                      }
                  }
              ],
              "basedOn": [
                  {
                      "reference": "ServiceRequest/be7b96d7-8880-3116-f8e3-328359c8e8b1"
                  }
              ]
          },
          "request": {
              "method": "PUT",
              "url": "Observation/f20f3493-d398-8740-ad5f-24421acdb6ad"
          }
      },
      {
          "fullUrl": "urn:uuid:be7b96d7-8880-3116-f8e3-328359c8e8b1",
          "resource": {
              "resourceType": "ServiceRequest",
              "id": "be7b96d7-8880-3116-f8e3-328359c8e8b1",
              "status": "unknown",
              "intent": "filler-order",
              "identifier": [
                  {
                      "value": "ORD666555",
                      "system": "http://example.com/v2-to-fhir-converter/Identifier/NIST-EHR",
                      "type": {
                          "coding": [
                              {
                                  "code": "PLAC",
                                  "system": "http://terminology.hl7.org/CodeSystem/v2-0203"
                              }
                          ]
                      }
                  },
                  {
                      "value": "R-991133",
                      "system": "http://example.com/v2-to-fhir-converter/Identifier/NIST-Lab-Filler",
                      "type": {
                          "coding": [
                              {
                                  "code": "FILL",
                                  "system": "http://terminology.hl7.org/CodeSystem/v2-0203"
                              }
                          ]
                      }
                  },
                  {
                      "value": "GORD874233",
                      "system": "http://example.com/v2-to-fhir-converter/Identifier/NIST-EHR",
                      "type": {
                          "coding": [
                              {
                                  "code": "PGN",
                                  "system": "http://terminology.hl7.org/CodeSystem/v2-0203"
                              }
                          ]
                      }
                  }
              ],
              "code": {
                  "coding": [
                      {
                          "code": "57021-8",
                          "display": "CBC W Auto Differential panel in Blood",
                          "system": "http://loinc.org"
                      },
                      {
                          "code": "4456544",
                          "display": "CBC",
                          "system": "http://example.com/v2-to-fhir-converter/CodeSystem/99USI"
                      }
                  ],
                  "text": "CBC W Auto Differential panel in Blood"
              },
              "subject": {
                  "reference": "Patient/397de93b-65e0-b3b6-7a79-d7869d57a8aa"
              },
              "requester": {
                  "reference": "PractitionerRole/3abddc6b-7cdf-a483-2997-914e226aa033"
              },
              "specimen": [
                  {
                      "reference": "Specimen/aa90eecf-8084-cda9-f937-6932c6bb4f79"
                  }
              ]
          },
          "request": {
              "method": "PUT",
              "url": "ServiceRequest/be7b96d7-8880-3116-f8e3-328359c8e8b1"
          }
      },
      {
          "fullUrl": "urn:uuid:cdc6a323-66a4-19cb-ff4e-a5c9a5f5fd1b",
          "resource": {
              "resourceType": "Practitioner",
              "id": "cdc6a323-66a4-19cb-ff4e-a5c9a5f5fd1b",
              "identifier": [
                  {
                      "value": "57422",
                      "system": "http://example.com/v2-to-fhir-converter/Identifier/NIST-AA-1",
                      "type": {
                          "coding": [
                              {
                                  "code": "NPI",
                                  "display": "National provider identifier",
                                  "system": "http://terminology.hl7.org/CodeSystem/v2-0203"
                              }
                          ]
                      }
                  }
              ],
              "name": [
                  {
                      "family": "Radon",
                      "given": [
                          "Nicholas"
                      ],
                      "use": "official"
                  }
              ]
          },
          "request": {
              "method": "PUT",
              "url": "Practitioner/cdc6a323-66a4-19cb-ff4e-a5c9a5f5fd1b"
          }
      },
      {
          "fullUrl": "urn:uuid:3abddc6b-7cdf-a483-2997-914e226aa033",
          "resource": {
              "resourceType": "PractitionerRole",
              "id": "3abddc6b-7cdf-a483-2997-914e226aa033",
              "code": [
                  {
                      "coding": [
                          {
                              "code": "OP",
                              "display": "Ordering Provider",
                              "system": "http://terminology.hl7.org/CodeSystem/v2-0443"
                          }
                      ]
                  }
              ],
              "practitioner": {
                  "reference": "Practitioner/cdc6a323-66a4-19cb-ff4e-a5c9a5f5fd1b"
              }
          },
          "request": {
              "method": "PUT",
              "url": "PractitionerRole/3abddc6b-7cdf-a483-2997-914e226aa033"
          }
      },
      {
          "fullUrl": "urn:uuid:617a0645-a45a-07a5-77e4-f40de55f8c42",
          "resource": {
              "resourceType": "DiagnosticReport",
              "id": "617a0645-a45a-07a5-77e4-f40de55f8c42",
              "identifier": [
                  {
                      "value": "ORD666555",
                      "system": "http://example.com/v2-to-fhir-converter/Identifier/NIST-EHR",
                      "type": {
                          "coding": [
                              {
                                  "code": "PLAC",
                                  "system": "http://terminology.hl7.org/CodeSystem/v2-0203"
                              }
                          ]
                      }
                  },
                  {
                      "value": "R-991133",
                      "system": "http://example.com/v2-to-fhir-converter/Identifier/NIST-Lab-Filler",
                      "type": {
                          "coding": [
                              {
                                  "code": "FILL",
                                  "system": "http://terminology.hl7.org/CodeSystem/v2-0203"
                              }
                          ]
                      }
                  },
                  {
                      "value": "GORD874233",
                      "system": "http://example.com/v2-to-fhir-converter/Identifier/NIST-EHR",
                      "type": {
                          "coding": [
                              {
                                  "code": "PGN",
                                  "system": "http://terminology.hl7.org/CodeSystem/v2-0203"
                              }
                          ]
                      }
                  }
              ],
              "effectiveDateTime": "2011-01-04T04:04:28+05:30",
              "code": {
                  "coding": [
                      {
                          "code": "57021-8",
                          "display": "CBC W Auto Differential panel in Blood",
                          "system": "http://loinc.org"
                      },
                      {
                          "code": "4456544",
                          "display": "CBC",
                          "system": "http://example.com/v2-to-fhir-converter/CodeSystem/99USI"
                      }
                  ],
                  "text": "CBC W Auto Differential panel in Blood"
              },
              "issued": "2011-01-05T06:30:28+05:30",
              "status": "final",
              "subject": {
                  "reference": "Patient/397de93b-65e0-b3b6-7a79-d7869d57a8aa"
              },
              "basedOn": [
                  {
                      "reference": "ServiceRequest/be7b96d7-8880-3116-f8e3-328359c8e8b1"
                  }
              ],
              "specimen": [
                  {
                      "reference": "Specimen/aa90eecf-8084-cda9-f937-6932c6bb4f79"
                  }
              ],
              "result": [
                  {
                      "reference": "Observation/86b13b68-64ca-4bf2-8f9d-524c127b445f"
                  },
                  {
                      "reference": "Observation/e950bf40-a65b-1565-b77a-9e409335894c"
                  },
                  {
                      "reference": "Observation/57d75a50-68d1-42d2-23c7-85a2737939c3"
                  },
                  {
                      "reference": "Observation/d0fbf918-54d1-7ba3-5412-43a57a7f18b1"
                  },
                  {
                      "reference": "Observation/7067c914-c96b-8595-60f3-2e7df530e7f0"
                  },
                  {
                      "reference": "Observation/992117b5-5929-6b7c-5570-199ffa437877"
                  },
                  {
                      "reference": "Observation/444f2073-1f9b-5ccb-4c6f-225668686427"
                  },
                  {
                      "reference": "Observation/e00ac64f-ef49-92be-5d5c-2d6c7c0a99c1"
                  },
                  {
                      "reference": "Observation/5b437ecc-2c30-8c06-133f-465771b904ad"
                  },
                  {
                      "reference": "Observation/911e4e3a-2cbc-7a98-00d7-c84848cf5089"
                  },
                  {
                      "reference": "Observation/56ced431-5315-0916-1416-28535869cf35"
                  },
                  {
                      "reference": "Observation/a66c4fde-e0f8-969f-26fa-302858c57c3e"
                  },
                  {
                      "reference": "Observation/a6f52e45-f836-4fc8-8c16-aae3d4e2ed16"
                  },
                  {
                      "reference": "Observation/003b8354-4e8a-c413-7904-a5827158c46b"
                  },
                  {
                      "reference": "Observation/201f8c4b-0e9a-ca62-aedd-5baf37822777"
                  },
                  {
                      "reference": "Observation/82489f84-cccb-c095-eb55-42ed77eb1c94"
                  },
                  {
                      "reference": "Observation/452e4d56-c770-85d2-56d5-b8831f428ece"
                  },
                  {
                      "reference": "Observation/2a2a40ab-094b-5c4f-ed4c-06da5b795adb"
                  },
                  {
                      "reference": "Observation/50ff46fb-efee-ee90-4005-de5f705b3e05"
                  },
                  {
                      "reference": "Observation/acd9efe2-e488-9629-4ee4-7381dd2f033a"
                  },
                  {
                      "reference": "Observation/7590df32-4991-c5ec-defe-e0dc2c2eaf1e"
                  },
                  {
                      "reference": "Observation/9309af3c-7981-ab3a-916e-39e0c93849e1"
                  },
                  {
                      "reference": "Observation/7a7a84ca-efac-1264-4b89-afcb99a042d3"
                  },
                  {
                      "reference": "Observation/cbf7415b-71cd-2693-d05f-729ad10cab5b"
                  },
                  {
                      "reference": "Observation/f0e1d14d-8b98-c494-88da-2ccc76244df2"
                  },
                  {
                      "reference": "Observation/04f6146a-df8b-3d11-aac2-5f003cbc41eb"
                  },
                  {
                      "reference": "Observation/d6dd70a5-58fa-39bc-c4c8-81398826e0bb"
                  },
                  {
                      "reference": "Observation/f20f3493-d398-8740-ad5f-24421acdb6ad"
                  }
              ]
          },
          "request": {
              "method": "PUT",
              "url": "DiagnosticReport/617a0645-a45a-07a5-77e4-f40de55f8c42"
          }
      },
      {
          "fullUrl": "urn:uuid:aa90eecf-8084-cda9-f937-6932c6bb4f79",
          "resource": {
              "resourceType": "Specimen",
              "id": "aa90eecf-8084-cda9-f937-6932c6bb4f79",
              "identifier": [
                  {
                      "value": "ORD666555",
                      "system": "http://example.com/v2-to-fhir-converter/Identifier/NIST-EHR",
                      "type": {
                          "coding": [
                              {
                                  "code": "PLAC",
                                  "system": "http://terminology.hl7.org/CodeSystem/v2-0203"
                              }
                          ]
                      }
                  },
                  {
                      "value": "R-991133",
                      "system": "http://example.com/v2-to-fhir-converter/Identifier/NIST-Lab-Filler",
                      "type": {
                          "coding": [
                              {
                                  "code": "FILL",
                                  "system": "http://terminology.hl7.org/CodeSystem/v2-0203"
                              }
                          ]
                      }
                  }
              ],
              "collection": {
                  "collectedDateTime": "2011-01-04T04:04:28+05:30"
              }
          },
          "request": {
              "method": "PUT",
              "url": "Specimen/aa90eecf-8084-cda9-f937-6932c6bb4f79"
          }
      },
      {
          "fullUrl": "urn:uuid:a1b19bd0-91c3-dbfa-4f1e-fdeb0eeb6963",
          "resource": {
              "resourceType": "Specimen",
              "id": "a1b19bd0-91c3-dbfa-4f1e-fdeb0eeb6963",
              "type": {
                  "coding": [
                      {
                          "code": "119297000",
                          "display": "BLD",
                          "system": "http://terminology.hl7.org/CodeSystem/v2-0487"
                      }
                  ],
                  "text": "Blood"
              },
              "collection": {
                  "collectedDateTime": "2011-01-04T04:04:28+05:30"
              }
          },
          "request": {
              "method": "PUT",
              "url": "Specimen/a1b19bd0-91c3-dbfa-4f1e-fdeb0eeb6963"
          }
      }
  ]
}