{
  "resourceType": "Bundle",
  "type": "batch",
  "timestamp": "2002-02-15T09:30:00",
  "identifier": {
      "value": "CNTRL-3456"
  },
  "entry": [
      {
          "fullUrl": "urn:uuid:59137ac2-b595-49c0-863e-df25b62bf2cd",
          "resource": {
              "resourceType": "MessageHeader",
              "id": "59137ac2-b595-49c0-863e-df25b62bf2cd",
              "source": {
                  "name": "GHH LAB",
                  "_endpoint": {
                      "extension": [
                          {
                              "url": "http://hl7.org/fhir/StructureDefinition/data-absent-reason",
                              "valueCode": "unknown"
                          }
                      ]
                  }
              },
              "destination": [
                  {
                      "name": "GHH OE",
                      "_endpoint": {
                          "extension": [
                              {
                                  "url": "http://hl7.org/fhir/StructureDefinition/data-absent-reason",
                                  "valueCode": "unknown"
                              }
                          ]
                      },
                      "receiver": {
                          "reference": "Organization/fe717593-882d-d154-271e-e93d5b114a0d"
                      }
                  }
              ],
              "meta": {
                  "tag": [
                      {
                          "code": "P",
                          "system": "http://terminology.hl7.org/CodeSystem/v2-0103"
                      }
                  ]
              },
              "eventCoding": {
                  "code": "R01",
                  "system": "http://terminology.hl7.org/CodeSystem/v2-0003",
                  "display": "ORU^R01"
              },
              "sender": {
                  "reference": "Organization/6ab73577-5e9f-5084-a3aa-5402773d5fbd"
              }
          },
          "request": {
              "method": "PUT",
              "url": "MessageHeader/59137ac2-b595-49c0-863e-df25b62bf2cd"
          }
      },
      {
          "fullUrl": "urn:uuid:92bee074-a5c5-3c79-1905-2ed380528150",
          "resource": {
              "resourceType": "Patient",
              "id": "92bee074-a5c5-3c79-1905-2ed380528150",
              "identifier": [
                  {
                      "value": "555-44-4444"
                  },
                  {
                      "value": "67-A4335",
                      "type": {
                          "coding": [
                              {
                                  "code": "DL"
                              }
                          ]
                      },
                      "system": "http://example.com/v2-to-fhir-converter/CodeSystem/OH",
                      "period": {
                          "end": "2003-05-20"
                      }
                  }
              ],
              "name": [
                  {
                      "family": "EVERYWOMAN",
                      "given": [
                          "EVE",
                          "E"
                      ],
                      "use": "official"
                  }
              ],
              "birthDate": "1962-03-20",
              "gender": "female",
              "address": [
                  {
                      "line": [
                          "153 FERNWOOD DR."
                      ],
                      "city": "STATESVILLE",
                      "state": "OH",
                      "postalCode": "35292"
                  }
              ],
              "telecom": [
                  {
                      "value": "(206)3345232",
                      "use": "home"
                  },
                  {
                      "value": "(206)752-121",
                      "use": "work"
                  }
              ],
              "extension": [
                  {
                      "url": "http://hl7.org/fhir/StructureDefinition/patient-mothersMaidenName",
                      "valueString": "JONES"
                  }
              ]
          },
          "request": {
              "method": "PUT",
              "url": "Patient/92bee074-a5c5-3c79-1905-2ed380528150"
          }
      },
      {
          "fullUrl": "urn:uuid:",
          "resource": {
              "resourceType": "Practitioner"
          },
          "request": {
              "method": "PUT",
              "url": "Practitioner/"
          }
      },
      {
          "fullUrl": "urn:uuid:",
          "resource": {
              "resourceType": "Location"
          },
          "request": {
              "method": "PUT",
              "url": "Location/"
          }
      },
      {
          "fullUrl": "urn:uuid:98cfa049-8565-6edd-d53e-b98ee8bcf59d",
          "resource": {
              "resourceType": "Provenance",
              "id": "98cfa049-8565-6edd-d53e-b98ee8bcf59d",
              "text": {
                  "status": "generated",
                  "div": "<div xmlns=\"http://www.w3.org/1999/xhtml\"><p><span>Resource bundle generated on 2021-09-27T04:22:20.607Z using Microsoft FHIR Converter.</span><span>Template Version: TEMPLATE_VERSION_PLACEHOLDER.</span><span>Template URL: https://github.com/microsoft/FHIR-Converter/releases/download/vTEMPLATE_VERSION_PLACEHOLDER/Hl7v2DefaultTemplates.tar.gz.</span><span>Root template: ORU_R01.</span></p></div>"
              },
              "occurredDateTime": "2002-02-15T09:30:00",
              "recorded": "2002-02-15T09:30:00",
              "agent": [
                  {
                      "type": {
                          "coding": [
                              {
                                  "code": "author",
                                  "system": "http://terminology.hl7.org/CodeSystem/provenance-participant-type"
                              }
                          ]
                      },
                      "who": {
                          "reference": "Organization/6ab73577-5e9f-5084-a3aa-5402773d5fbd"
                      }
                  }
              ],
              "activity": {
                  "coding": [
                      {
                          "display": "ORU^R01^"
                      }
                  ]
              },
              "target": [
                  {
                      "reference": "MessageHeader/"
                  }
              ]
          },
          "request": {
              "method": "PUT",
              "url": "Provenance/98cfa049-8565-6edd-d53e-b98ee8bcf59d"
          }
      },
      {
          "fullUrl": "urn:uuid:4af7a7fb-e594-e5b3-43b9-969188e0c692",
          "resource": {
              "resourceType": "Account",
              "id": "4af7a7fb-e594-e5b3-43b9-969188e0c692",
              "identifier": [
                  {
                      "value": "AC555444444"
                  }
              ],
              "status": "active",
              "subject": [
                  {
                      "reference": "Patient/92bee074-a5c5-3c79-1905-2ed380528150"
                  }
              ]
          },
          "request": {
              "method": "PUT",
              "url": "Account/4af7a7fb-e594-e5b3-43b9-969188e0c692"
          }
      },
      {
          "fullUrl": "urn:uuid:",
          "resource": {
              "resourceType": "Encounter",
              "text": {
                  "status": "generated",
                  "div": "<div xmlns=\"http://www.w3.org/1999/xhtml\"><p><span>Visit Description: </span></p></div>"
              },
              "subject": {
                  "reference": "Patient/92bee074-a5c5-3c79-1905-2ed380528150"
              }
          },
          "request": {
              "method": "PUT",
              "url": "Encounter/"
          }
      },
      {
          "fullUrl": "urn:uuid:0ca81c8f-6cb0-10b0-91e8-7528b98f5691",
          "resource": {
              "resourceType": "DiagnosticReport",
              "id": "0ca81c8f-6cb0-10b0-91e8-7528b98f5691",
              "identifier": [
                  {
                      "type": {
                          "coding": [
                              {
                                  "code": "FILL",
                                  "system": "http://terminology.hl7.org/CodeSystem/v2-0203"
                              }
                          ]
                      }
                  },
                  {
                      "value": "845439",
                      "system": "http://example.com/v2-to-fhir-converter/local-entity-identifier-GHH OE"
                  },
                  {
                      "value": "1045813",
                      "system": "http://example.com/v2-to-fhir-converter/local-entity-identifier-GHH LAB"
                  }
              ],
              "effectiveDateTime": "2002-02-15T07:30:00",
              "code": {
                  "coding": [
                      {
                          "code": "15545",
                          "display": "GLUCOSE"
                      }
                  ]
              },
              "status": "final",
              "result": [
                  {
                      "reference": "Observation/209c8566-dafa-22b6-31f6-e4c00e649c61"
                  }
              ]
          },
          "request": {
              "method": "PUT",
              "url": "DiagnosticReport/0ca81c8f-6cb0-10b0-91e8-7528b98f5691"
          }
      },
      {
          "fullUrl": "urn:uuid:209c8566-dafa-22b6-31f6-e4c00e649c61",
          "resource": {
              "resourceType": "Observation",
              "id": "209c8566-dafa-22b6-31f6-e4c00e649c61",
              "status": "final",
              "code": {
                  "coding": [
                      {
                          "code": "1554-5",
                          "display": "GLUCOSE",
                          "system": "http://example.com/v2-to-fhir-converter/CodeSystem/POST 12H CFST:MCNC:PT:SER/PLAS:QN"
                      }
                  ]
              },
              "valueQuantity": {
                  "value": 182,
                  "unit": "mg/dl"
              },
              "referenceRange": [
                  {
                      "text": "70_105"
                  }
              ],
              "interpretation": [
                  {
                      "coding": [
                          {
                              "code": "H",
                              "display": "High",
                              "system": "http://terminology.hl7.org/CodeSystem/v3-ObservationInterpretation"
                          }
                      ]
                  }
              ]
          },
          "request": {
              "method": "PUT",
              "url": "Observation/209c8566-dafa-22b6-31f6-e4c00e649c61"
          }
      }
  ]
}