{
    "resourceType": "Bundle",
    "type": "batch",
    "timestamp": "2012-03-14T20:44:00+05:30",
    "identifier": {
        "value": "2.16.840.1.114222.4.3.3.5.1.2-20120314235954.325"
    },
    "id": "3294d4fe-4d33-61e3-310f-3078b6bb0264",
    "entry": [
        {
            "fullUrl": "urn:uuid:bb2c62d5-a5ee-37cf-332d-bd928e8586f4",
            "resource": {
                "resourceType": "MessageHeader",
                "id": "bb2c62d5-a5ee-37cf-332d-bd928e8586f4",
                "source": {
                    "name": "IA PHIMS Stage",
                    "endpoint": "urn:oid:2.16.840.1.114222.4.3.3.5.1.2",
                    "version": "2.4.3.52854",
                    "software": "Rhapsody"
                },
                "destination": [
                    {
                        "name": "IA.DOH.IDSS",
                        "endpoint": "urn:oid:2.16.840.1.114222.4.3.3.19",
                        "receiver": {
                            "reference": "Organization/6930f42d-f2d4-5b0d-9cf8-a2108c0a4811"
                        }
                    }
                ],
                "meta": {
                    "tag": [
                        {
                            "code": "T",
                            "system": "http://terminology.hl7.org/CodeSystem/v2-0103"
                        }
                    ]
                },
                "eventCoding": {
                    "code": "R01",
                    "system": "http://terminology.hl7.org/CodeSystem/v2-0003",
                    "display": "ORU^R01^ORU_R01"
                },
                "sender": {
                    "reference": "Organization/353c3718-dc57-7a15-8660-7aeed24b4f7e"
                }
            },
            "request": {
                "method": "PUT",
                "url": "MessageHeader/bb2c62d5-a5ee-37cf-332d-bd928e8586f4"
            }
        },
        {
            "fullUrl": "urn:uuid:4b8e3786-de8b-c12f-345b-3c83fc1c4a0d",
            "resource": {
                "resourceType": "Provenance",
                "id": "4b8e3786-de8b-c12f-345b-3c83fc1c4a0d",
                "text": {
                    "status": "generated",
                    "div": "<div xmlns=\"http://www.w3.org/1999/xhtml\"><p><span>Resource bundle generated on 2021-10-29T08:48:50.118Z using Microsoft FHIR Converter.</span><span>Template Version: TEMPLATE_VERSION_PLACEHOLDER.</span><span>Template URL: https://github.com/microsoft/FHIR-Converter/releases/download/vTEMPLATE_VERSION_PLACEHOLDER/Hl7v2DefaultTemplates.tar.gz.</span><span>Root template: ORU_R01.</span></p></div>"
                },
                "occurredDateTime": "2012-03-14T20:44:00+05:30",
                "recorded": "2012-03-14T20:44:00+05:30",
                "agent": [
                    {
                        "type": {
                            "coding": [
                                {
                                    "code": "author",
                                    "system": "http://terminology.hl7.org/CodeSystem/provenance-participant-type"
                                }
                            ]
                        },
                        "who": {
                            "reference": "Organization/353c3718-dc57-7a15-8660-7aeed24b4f7e"
                        }
                    }
                ],
                "activity": {
                    "coding": [
                        {
                            "display": "ORU^R01^ORU_R01"
                        }
                    ]
                },
                "target": [
                    {
                        "reference": "Bundle/3294d4fe-4d33-61e3-310f-3078b6bb0264"
                    }
                ]
            },
            "request": {
                "method": "PUT",
                "url": "Provenance/4b8e3786-de8b-c12f-345b-3c83fc1c4a0d"
            }
        },
        {
            "fullUrl": "urn:uuid:353c3718-dc57-7a15-8660-7aeed24b4f7e",
            "resource": {
                "resourceType": "Organization",
                "id": "353c3718-dc57-7a15-8660-7aeed24b4f7e",
                "identifier": [
                    {
                        "value": "IA Public Health Lab",
                        "system": "http://example.com/v2-to-fhir-converter/assigning-authority-local-system-IA-Public-Health-Lab"
                    },
                    {
                        "value": "urn:oid:2.16.840.1.114222.4.1.10411",
                        "system": "urn:ietf:rfc:3986",
                        "type": {
                            "coding": [
                                {
                                    "code": "ISO",
                                    "display": "An International Standards Organization Object Identifier (OID), in accordance with ISO/IEC 8824. Formatted as decimal digits separated by periods; recommended limit of 64 characters",
                                    "system": "http://terminology.hl7.org/CodeSystem/v2-0301"
                                }
                            ]
                        }
                    }
                ],
                "address": [
                    {
                        "country": "USA"
                    }
                ]
            },
            "request": {
                "method": "PUT",
                "url": "Organization/353c3718-dc57-7a15-8660-7aeed24b4f7e"
            }
        },
        {
            "fullUrl": "urn:uuid:6930f42d-f2d4-5b0d-9cf8-a2108c0a4811",
            "resource": {
                "resourceType": "Organization",
                "id": "6930f42d-f2d4-5b0d-9cf8-a2108c0a4811",
                "identifier": [
                    {
                        "value": "IA DOH",
                        "system": "http://example.com/v2-to-fhir-converter/assigning-authority-local-system-IA-DOH"
                    },
                    {
                        "value": "urn:oid:2.16.840.1.114222.4.1.3650",
                        "system": "urn:ietf:rfc:3986",
                        "type": {
                            "coding": [
                                {
                                    "code": "ISO",
                                    "display": "An International Standards Organization Object Identifier (OID), in accordance with ISO/IEC 8824. Formatted as decimal digits separated by periods; recommended limit of 64 characters",
                                    "system": "http://terminology.hl7.org/CodeSystem/v2-0301"
                                }
                            ]
                        }
                    }
                ],
                "address": [
                    {
                        "country": "USA"
                    }
                ]
            },
            "request": {
                "method": "PUT",
                "url": "Organization/6930f42d-f2d4-5b0d-9cf8-a2108c0a4811"
            }
        },
        {
            "fullUrl": "urn:uuid:4b549918-a84d-cdaf-e150-c773a5d306e5",
            "resource": {
                "resourceType": "Device",
                "id": "4b549918-a84d-cdaf-e150-c773a5d306e5",
                "manufacturer": "Orion Health",
                "deviceName": [
                    {
                        "name": "Rhapsody",
                        "type": "manufacturer-name"
                    }
                ],
                "version": [
                    {
                        "value": "2.4.3.52854"
                    }
                ],
                "modelNumber": "2.4.3.52854"
            },
            "request": {
                "method": "PUT",
                "url": "Device/4b549918-a84d-cdaf-e150-c773a5d306e5"
            }
        },
        {
            "fullUrl": "urn:uuid:389b3d01-dc6f-2c15-38c5-8c4e86a515c8",
            "resource": {
                "resourceType": "Patient",
                "id": "389b3d01-dc6f-2c15-38c5-8c4e86a515c8",
                "identifier": [
                    {
                        "value": "14",
                        "type": {
                            "coding": [
                                {
                                    "code": "PI",
                                    "system": "http://terminology.hl7.org/CodeSystem/v2-0203",
                                    "display": "Patient internal identifier"
                                }
                            ]
                        },
                        "system": "urn:oid:2.16.840.1.114222.4.3.3.5.1.2",
                        "assigner": {
                            "reference": "Organization/5263bd4f-69ed-d465-3e10-e79f2010bf12"
                        }
                    }
                ],
                "name": [
                    {
                        "family": "Finn",
                        "given": [
                            "Huckleberry"
                        ],
                        "use": "official"
                    }
                ],
                "birthDate": "1963-08-15",
                "gender": "male",
                "address": [
                    {
                        "line": [
                            "721 SPRING STREET"
                        ],
                        "city": "GRINNELL",
                        "state": "IA",
                        "postalCode": "50112",
                        "country": "USA",
                        "use": "home"
                    }
                ],
                "maritalStatus": {
                    "coding": [
                        {
                            "code": "M",
                            "display": "Married",
                            "system": "http://terminology.hl7.org/CodeSystem/v3-MaritalStatus",
                            "version": "2.5.1"
                        }
                    ]
                },
                "extension": [
                    {
                        "url": "http://hl7.org/fhir/us/core/StructureDefinition/us-core-race",
                        "extension": [
                            {
                                "url": "ombCategory",
                                "valueCoding": {
                                    "code": "2106-3",
                                    "display": "White",
                                    "system": "urn:oid:2.16.840.1.113883.6.238",
                                    "version": "04/24/2007"
                                }
                            },
                            {
                                "url": "ombCategory",
                                "valueCoding": {
                                    "code": "1002-5",
                                    "display": "American Indian or Alaska Native",
                                    "system": "urn:oid:2.16.840.1.113883.6.238",
                                    "version": "04/24/2007"
                                }
                            },
                            {
                                "url": "text",
                                "valueString": "White+American Indian or Alaska Native"
                            }
                        ]
                    },
                    {
                        "url": "http://hl7.org/fhir/us/core/StructureDefinition/us-core-ethnicity",
                        "extension": [
                            {
                                "url": "ombCategory",
                                "valueCoding": {
                                    "code": "2135-2",
                                    "display": "Hispanic or Latino",
                                    "system": "urn:oid:2.16.840.1.113883.6.238",
                                    "version": "2.5.1"
                                }
                            },
                            {
                                "url": "text",
                                "valueString": "Hispanic or Latino"
                            }
                        ]
                    }
                ],
                "contact": [
                    {
                        "name": {
                            "family": "Doe",
                            "given": [
                                "Rosallie"
                            ]
                        },
                        "address": {
                            "line": [
                                "115 MAINSTREET"
                            ],
                            "city": "GOODTOWN",
                            "state": "KY",
                            "postalCode": "42010",
                            "country": "USA"
                        },
                        "telecom": [
                            {
                                "value": "(608)271-9001",
                                "use": "work",
                                "system": "phone"
                            }
                        ],
                        "relationship": [
                            {
                                "coding": [
                                    {
                                        "code": "C",
                                        "display": "Emergency Contact",
                                        "system": "http://terminology.hl7.org/CodeSystem/v2-0131"
                                    }
                                ]
                            }
                        ]
                    }
                ]
            },
            "request": {
                "method": "PUT",
                "url": "Patient/389b3d01-dc6f-2c15-38c5-8c4e86a515c8"
            }
        },
        {
            "fullUrl": "urn:uuid:5263bd4f-69ed-d465-3e10-e79f2010bf12",
            "resource": {
                "resourceType": "Organization",
                "id": "5263bd4f-69ed-d465-3e10-e79f2010bf12",
                "identifier": [
                    {
                        "value": "IA PHIMS Stage",
                        "system": "http://example.com/v2-to-fhir-converter/assigning-authority-local-system-IA-PHIMS-Stage"
                    },
                    {
                        "value": "urn:oid:2.16.840.1.114222.4.3.3.5.1.2",
                        "system": "urn:ietf:rfc:3986",
                        "type": {
                            "coding": [
                                {
                                    "code": "ISO",
                                    "display": "An International Standards Organization Object Identifier (OID), in accordance with ISO/IEC 8824. Formatted as decimal digits separated by periods; recommended limit of 64 characters",
                                    "system": "http://terminology.hl7.org/CodeSystem/v2-0301"
                                }
                            ]
                        }
                    }
                ]
            },
            "request": {
                "method": "PUT",
                "url": "Organization/5263bd4f-69ed-d465-3e10-e79f2010bf12"
            }
        },
        {
            "fullUrl": "urn:uuid:2110f421-a2a2-e702-115a-490a55c8ce3f",
            "resource": {
                "resourceType": "Practitioner",
                "id": "2110f421-a2a2-e702-115a-490a55c8ce3f",
                "identifier": [
                    {
                        "value": "1111",
                        "system": "http://example.com/v2-to-fhir-converter/assigning-authority-local-system-PERLt",
                        "type": {
                            "coding": [
                                {
                                    "code": "BR",
                                    "display": "Birth registry number",
                                    "system": "http://terminology.hl7.org/CodeSystem/v2-0203"
                                }
                            ]
                        }
                    }
                ],
                "name": [
                    {
                        "given": [
                            "Zafar",
                            "Mahen"
                        ],
                        "suffix": [
                            "JR",
                            "MD"
                        ],
                        "prefix": [
                            "Dr."
                        ]
                    }
                ]
            },
            "request": {
                "method": "PUT",
                "url": "Practitioner/2110f421-a2a2-e702-115a-490a55c8ce3f"
            }
        },
        {
            "fullUrl": "urn:uuid:505c291e-5ae6-8346-bfe0-2587065e410e",
            "resource": {
                "resourceType": "PractitionerRole",
                "id": "505c291e-5ae6-8346-bfe0-2587065e410e",
                "code": [
                    {
                        "coding": [
                            {
                                "code": "ResponsibleObserver",
                                "system": "http://example.com/v2-to-fhir-converter/PractitionerRole"
                            }
                        ]
                    }
                ],
                "practitioner": {
                    "reference": "Practitioner/2110f421-a2a2-e702-115a-490a55c8ce3f"
                }
            },
            "request": {
                "method": "PUT",
                "url": "PractitionerRole/505c291e-5ae6-8346-bfe0-2587065e410e"
            }
        },
        {
            "fullUrl": "urn:uuid:e2f9615a-8a86-7a34-07b8-e75842da37f0",
            "resource": {
                "resourceType": "Organization",
                "id": "e2f9615a-8a86-7a34-07b8-e75842da37f0",
                "name": "ABC Hospital",
                "address": [
                    {
                        "line": [
                            "A city",
                            "Florida"
                        ],
                        "city": "VA",
                        "state": "22031",
                        "postalCode": "USA"
                    }
                ]
            },
            "request": {
                "method": "PUT",
                "url": "Organization/e2f9615a-8a86-7a34-07b8-e75842da37f0"
            }
        },
        {
            "fullUrl": "urn:uuid:c4c46dc5-e54b-dccd-4e40-c3c13c4a537b",
            "resource": {
                "resourceType": "DiagnosticReport",
                "id": "c4c46dc5-e54b-dccd-4e40-c3c13c4a537b",
                "identifier": [
                    {
                        "value": "EI21obx1",
                        "system": "http://example.com/v2-to-fhir-converter/local-entity-identifier-OII"
                    },
                    {
                        "type": {
                            "coding": [
                                {
                                    "code": "FILL"
                                }
                            ]
                        }
                    }
                ],
                "code": {
                    "coding": [
                        {
                            "code": "8867-4",
                            "display": "heartrate",
                            "system": "http://loinc.org"
                        }
                    ]
                },
                "effectiveDateTime": "1999-07-02",
                "status": "unknown",
                "performer": [
                    {
                        "reference": "PractitionerRole/505c291e-5ae6-8346-bfe0-2587065e410e"
                    },
                    {
                        "reference": "Organization/e2f9615a-8a86-7a34-07b8-e75842da37f0"
                    }
                ],
                "presentedForm": [
                    {
                        "contentType": "image/pict",
                        "url": "https://testurl.com"
                    }
                ],
                "subject": {
                    "reference": "Patient/389b3d01-dc6f-2c15-38c5-8c4e86a515c8"
                }
            },
            "request": {
                "method": "PUT",
                "url": "DiagnosticReport/c4c46dc5-e54b-dccd-4e40-c3c13c4a537b"
            }
        },
        {
            "fullUrl": "urn:uuid:c9562bfa-117f-9b25-6657-9b7cff7e1674",
            "resource": {
                "resourceType": "DocumentReference",
                "id": "c9562bfa-117f-9b25-6657-9b7cff7e1674",
                "type": {
                    "coding": [
                        {
                            "code": "DIS"
                        }
                    ]
                },
                "context": {
                    "period": {
                        "start": "2010-11-10T21:33:00+05:30"
                    },
                    "related": [
                        {
                            "reference": "Practitioner/947f0d75-9af8-89a8-95bd-ff52ff01c0ca"
                        }
                    ]
                },
                "content": [
                    {
                        "attachment": {
                            "creation": "2010-11-03T03:15:00+05:30",
                            "contentType": "image/jpeg"
                        }
                    }
                ],
                "meta": {
                    "lastUpdated": "2010-11-03T17:01:00+05:30"
                },
                "author": [
                    {
                        "reference": "PractitionerRole/ad4f4bb2-0d02-6ca5-aa3b-ec7536350534"
                    }
                ],
                "authenticator": {
                    "reference": "PractitionerRole/d584ea61-be76-cc13-dd34-14aacfeec6ce"
                },
                "masterIdentifier": {
                    "value": "018840"
                },
                "identifier": [
                    {
                        "value": "54302-DEX",
                        "type": {
                            "coding": [
                                {
                                    "system": "http://example.com/v2-to-fhir-converter/CodeSystem/additional-identifertype",
                                    "code": "DOCI",
                                    "display": "Document unique identifier"
                                }
                            ],
                            "text": "Document unique file name"
                        }
                    }
                ],
                "relatesTo": [
                    {
                        "code": "appends",
                        "target": {
                            "identifier": {
                                "value": "1307506",
                                "system": "http://example.com/v2-to-fhir-converter/local-entity-identifier-test"
                            }
                        }
                    }
                ],
                "docStatus": "preliminary",
                "securityLabel": [
                    {
                        "coding": [
                            {
                                "code": "R",
                                "system": "http://terminology.hl7.org/CodeSystem/v3-Confidentiality"
                            }
                        ]
                    }
                ],
                "status": "current",
                "category": [
                    {
                        "coding": [
                            {
                                "code": "radiology report"
                            }
                        ]
                    }
                ],
                "description": "string ofCharacters"
            },
            "request": {
                "method": "PUT",
                "url": "DocumentReference/c9562bfa-117f-9b25-6657-9b7cff7e1674"
            }
        },
        {
            "fullUrl": "urn:uuid:947f0d75-9af8-89a8-95bd-ff52ff01c0ca",
            "resource": {
                "resourceType": "Practitioner",
                "id": "947f0d75-9af8-89a8-95bd-ff52ff01c0ca",
                "identifier": [
                    {
                        "value": "John Smith"
                    }
                ]
            },
            "request": {
                "method": "PUT",
                "url": "Practitioner/947f0d75-9af8-89a8-95bd-ff52ff01c0ca"
            }
        },
        {
            "fullUrl": "urn:uuid:a0aa5af5-861a-b4eb-7cdf-7e307438caac",
            "resource": {
                "resourceType": "Practitioner",
                "id": "a0aa5af5-861a-b4eb-7cdf-7e307438caac",
                "identifier": [
                    {
                        "value": "Chris Rock"
                    }
                ]
            },
            "request": {
                "method": "PUT",
                "url": "Practitioner/a0aa5af5-861a-b4eb-7cdf-7e307438caac"
            }
        },
        {
            "fullUrl": "urn:uuid:ad4f4bb2-0d02-6ca5-aa3b-ec7536350534",
            "resource": {
                "resourceType": "PractitionerRole",
                "id": "ad4f4bb2-0d02-6ca5-aa3b-ec7536350534",
                "practitioner": {
                    "reference": "Practitioner/a0aa5af5-861a-b4eb-7cdf-7e307438caac"
                }
            },
            "request": {
                "method": "PUT",
                "url": "PractitionerRole/ad4f4bb2-0d02-6ca5-aa3b-ec7536350534"
            }
        },
        {
            "fullUrl": "urn:uuid:d7921b9f-42a0-6e35-cc6e-ca15c5af36bb",
            "resource": {
                "resourceType": "Practitioner",
                "id": "d7921b9f-42a0-6e35-cc6e-ca15c5af36bb",
                "identifier": [
                    {
                        "value": "Emma Watson"
                    }
                ]
            },
            "request": {
                "method": "PUT",
                "url": "Practitioner/d7921b9f-42a0-6e35-cc6e-ca15c5af36bb"
            }
        },
        {
            "fullUrl": "urn:uuid:d584ea61-be76-cc13-dd34-14aacfeec6ce",
            "resource": {
                "resourceType": "PractitionerRole",
                "id": "d584ea61-be76-cc13-dd34-14aacfeec6ce",
                "practitioner": {
                    "reference": "Practitioner/d7921b9f-42a0-6e35-cc6e-ca15c5af36bb"
                }
            },
            "request": {
                "method": "PUT",
                "url": "PractitionerRole/d584ea61-be76-cc13-dd34-14aacfeec6ce"
            }
        },
        {
            "fullUrl": "urn:uuid:8877e882-e573-a85d-7172-b48e78842771",
            "resource": {
                "resourceType": "ServiceRequest",
                "id": "8877e882-e573-a85d-7172-b48e78842771",
                "identifier": [
                    {
                        "value": "PAI-8.1",
                        "type": {
                            "coding": [
                                {
                                    "code": "PLAC",
                                    "system": "http://terminology.hl7.org/CodeSystem/v2-0203"
                                }
                            ]
                        }
                    },
                    {
                        "value": "FAI-8.2",
                        "type": {
                            "coding": [
                                {
                                    "code": "FILL",
                                    "system": "http://terminology.hl7.org/CodeSystem/v2-0203"
                                }
                            ]
                        }
                    },
                    {
                        "type": {
                            "coding": [
                                {
                                    "code": "PUSI",
                                    "display": "parent Identifier",
                                    "system": "http://example.com/v2-to-fhir-converter/CodeSystem/AR"
                                }
                            ]
                        }
                    }
                ],
                "status": "completed",
                "intent": "filler-order",
                "subject": {
                    "reference": "Patient/389b3d01-dc6f-2c15-38c5-8c4e86a515c8"
                }
            },
            "request": {
                "method": "PUT",
                "url": "ServiceRequest/8877e882-e573-a85d-7172-b48e78842771"
            }
        },
        {
            "fullUrl": "urn:uuid:e3f8a0a0-4237-82ce-d31d-1529c13ad523",
            "resource": {
                "resourceType": "ServiceRequest",
                "id": "e3f8a0a0-4237-82ce-d31d-1529c13ad523",
                "status": "completed",
                "intent": "filler-order",
                "orderDetail": [
                    {
                        "coding": [
                            {
                                "code": "PSS-46",
                                "display": "Placer service",
                                "system": "http://example.com/v2-to-fhir-converter/CodeSystem/L"
                            }
                        ]
                    },
                    {
                        "coding": [
                            {
                                "code": "FSS-47",
                                "display": "Filler service",
                                "system": "http://example.com/v2-to-fhir-converter/CodeSystem/L"
                            }
                        ]
                    }
                ],
                "identifier": [
                    {
                        "value": "845439",
                        "system": "http://example.com/v2-to-fhir-converter/local-entity-identifier-GHH-OE",
                        "type": {
                            "coding": [
                                {
                                    "code": "PLAC",
                                    "system": "http://terminology.hl7.org/CodeSystem/v2-0203"
                                }
                            ]
                        }
                    },
                    {
                        "value": "986",
                        "system": "urn:oid:2.16.840.1.114222.4.3.3.5.1.2",
                        "type": {
                            "coding": [
                                {
                                    "code": "FILL",
                                    "system": "http://terminology.hl7.org/CodeSystem/v2-0203"
                                }
                            ]
                        }
                    },
                    {
                        "value": "PGN-04",
                        "type": {
                            "coding": [
                                {
                                    "code": "PGN",
                                    "system": "http://terminology.hl7.org/CodeSystem/v2-0203"
                                }
                            ]
                        }
                    },
                    {
                        "value": "APON-53",
                        "type": {
                            "coding": [
                                {
                                    "code": "PLAC",
                                    "system": "http://terminology.hl7.org/CodeSystem/v2-0203"
                                }
                            ]
                        }
                    }
                ],
                "authoredOn": "2020-09-10T20:15:00+05:30",
                "basedOn": [
                    {
                        "reference": "ServiceRequest/8877e882-e573-a85d-7172-b48e78842771"
                    }
                ],
                "locationCode": [
                    {
                        "coding": [
                            {
                                "code": "BLB",
                                "system": "http://terminology.hl7.org/CodeSystem/v2-0074"
                            }
                        ]
                    },
                    {
                        "coding": [
                            {
                                "code": "OF",
                                "display": "Outpatient facility",
                                "system": "http://terminology.hl7.org/CodeSystem/v3-RoleCode"
                            }
                        ]
                    }
                ],
                "note": [
                    {
                        "text": "Placer 1",
                        "authorString": "Placer Field 1"
                    },
                    {
                        "text": "Placer 2",
                        "authorString": "Placer Field 2"
                    },
                    {
                        "text": "Filler 1",
                        "authorString": "Filler Field 1"
                    },
                    {
                        "text": "Filler 2",
                        "authorString": "Filler Field 2"
                    },
                    {
                        "text": "Enteric culture includes testing for Salmonella, Shigella, Campylobacter, Yersinia, E.coli O157:H7 & other STECs, and Aeromonas"
                    },
                    {
                        "text": "Allergy to peanuts observed.",
                        "time": "2020-10-10T19:15:00+05:30",
                        "authorReference": {
                            "reference": "Practitioner/6c9ea0f5-1b45-04f9-e07d-bae5096b7a4a"
                        }
                    },
                    {
                        "text": "Please follow the text instructions"
                    }
                ],
                "priority": "asap",
                "code": {
                    "coding": [
                        {
                            "code": "625-4",
                            "display": "Bacteria identified in Stool by Culture",
                            "system": "http://example.com/v2-to-fhir-converter/CodeSystem/XYZ",
                            "version": "2.33"
                        }
                    ],
                    "text": "Enteric Culture"
                },
                "reasonCode": [
                    {
                        "coding": [
                            {
                                "code": "444",
                                "display": "Reason for study",
                                "system": "http://example.com/v2-to-fhir-converter/CodeSystem/L",
                                "version": "MD"
                            }
                        ]
                    }
                ],
                "subject": {
                    "reference": "Patient/389b3d01-dc6f-2c15-38c5-8c4e86a515c8"
                },
                "reasonReference": [
                    {
                        "reference": "DocumentReference/c9562bfa-117f-9b25-6657-9b7cff7e1674"
                    }
                ],
                "requester": {
                    "reference": "PractitionerRole/beeb9a6e-29ec-7926-4f50-287c7ce3a1f5"
                },
                "specimen": [
                    {
                        "reference": "Specimen/95c9f253-3bac-cf73-202b-907e4e997489"
                    }
                ],
                "asNeededCodeableConcept": {
                    "text": "This is condition text"
                },
                "quantityQuantity": {
                    "value": 54,
                    "unit": "lbs"
                },
                "occurrenceTiming": {
                    "code": {
                        "coding": [
                            {
                                "code": "ACM",
                                "display": "Before Breakfast",
                                "system": "http://example.com/v2-to-fhir-converter/CodeSystem/HL7xxx"
                            }
                        ]
                    },
                    "repeat": {
                        "period": 12,
                        "periodUnit": "min",
                        "when": [
                            "ACM"
                        ],
                        "offset": 2,
                        "boundsPeriod": {
                            "start": "2021-10-10T05:30:00+05:30",
                            "end": "2021-11-10T05:30:00+05:30"
                        },
                        "duration": 2,
                        "durationUnit": "h",
                        "count": 5
                    }
                }
            },
            "request": {
                "method": "PUT",
                "url": "ServiceRequest/e3f8a0a0-4237-82ce-d31d-1529c13ad523"
            }
        },
        {
            "fullUrl": "urn:uuid:58e7269f-6c76-d387-8454-ff4b18a7fccd",
            "resource": {
                "resourceType": "Organization",
                "id": "58e7269f-6c76-d387-8454-ff4b18a7fccd",
                "name": "MISSOURI DEPARTMENT OF HEALTH LABORATORY - MISSOURI DEPARTMENT OF HEALTH LABORATORY",
                "address": [
                    {
                        "line": [
                            "307 W MCCARTY ST"
                        ],
                        "city": "JEFFERSON CITY",
                        "state": "MO",
                        "postalCode": "65101",
                        "country": "USA",
                        "use": "work"
                    }
                ],
                "contact": [
                    {
                        "telecom": [
                            {
                                "use": "work",
                                "system": "phone"
                            }
                        ]
                    }
                ]
            },
            "request": {
                "method": "PUT",
                "url": "Organization/58e7269f-6c76-d387-8454-ff4b18a7fccd"
            }
        },
        {
            "fullUrl": "urn:uuid:beeb9a6e-29ec-7926-4f50-287c7ce3a1f5",
            "resource": {
                "resourceType": "PractitionerRole",
                "id": "beeb9a6e-29ec-7926-4f50-287c7ce3a1f5",
                "organization": {
                    "reference": "Organization/58e7269f-6c76-d387-8454-ff4b18a7fccd"
                }
            },
            "request": {
                "method": "PUT",
                "url": "PractitionerRole/beeb9a6e-29ec-7926-4f50-287c7ce3a1f5"
            }
        },
        {
            "fullUrl": "urn:uuid:df03b003-6818-1abd-209e-0889025aad16",
            "resource": {
                "resourceType": "Organization",
                "id": "df03b003-6818-1abd-209e-0889025aad16",
                "identifier": [
                    {
                        "value": "NPIID",
                        "system": "http://example.com/v2-to-fhir-converter/assigning-authority-local-system-NPIID"
                    },
                    {
                        "value": "urn:oid:2.16.840.1.113883.4.6",
                        "system": "urn:ietf:rfc:3986",
                        "type": {
                            "coding": [
                                {
                                    "code": "ISO",
                                    "display": "An International Standards Organization Object Identifier (OID), in accordance with ISO/IEC 8824. Formatted as decimal digits separated by periods; recommended limit of 64 characters",
                                    "system": "http://terminology.hl7.org/CodeSystem/v2-0301"
                                }
                            ]
                        }
                    }
                ]
            },
            "request": {
                "method": "PUT",
                "url": "Organization/df03b003-6818-1abd-209e-0889025aad16"
            }
        },
        {
            "fullUrl": "urn:uuid:6c9ea0f5-1b45-04f9-e07d-bae5096b7a4a",
            "resource": {
                "resourceType": "Practitioner",
                "id": "6c9ea0f5-1b45-04f9-e07d-bae5096b7a4a",
                "identifier": [
                    {
                        "value": "9941339108",
                        "system": "urn:oid:2.16.840.1.113883.4.6",
                        "assigner": {
                            "reference": "Organization/df03b003-6818-1abd-209e-0889025aad16"
                        },
                        "type": {
                            "coding": [
                                {
                                    "code": "NPI",
                                    "display": "National provider identifier",
                                    "system": "http://terminology.hl7.org/CodeSystem/v2-0203"
                                }
                            ]
                        }
                    }
                ],
                "name": [
                    {
                        "family": "Smith",
                        "given": [
                            "Adam",
                            "Mellie"
                        ],
                        "suffix": [
                            "Jr",
                            "MD",
                            "GP"
                        ],
                        "prefix": [
                            "Dr"
                        ],
                        "use": "official",
                        "period": {
                            "start": "2010-01-15",
                            "end": "2020-01-15"
                        }
                    }
                ]
            },
            "request": {
                "method": "PUT",
                "url": "Practitioner/6c9ea0f5-1b45-04f9-e07d-bae5096b7a4a"
            }
        },
        {
            "fullUrl": "urn:uuid:dbcb1b2a-6b6c-3b26-2bd9-20dde24f9cdb",
            "resource": {
                "resourceType": "Practitioner",
                "id": "dbcb1b2a-6b6c-3b26-2bd9-20dde24f9cdb",
                "identifier": [
                    {
                        "value": "Harry"
                    }
                ],
                "name": [
                    {
                        "family": "Raud",
                        "given": [
                            "Geny"
                        ],
                        "suffix": [
                            "Mr."
                        ],
                        "prefix": [
                            "Dr."
                        ]
                    }
                ]
            },
            "request": {
                "method": "PUT",
                "url": "Practitioner/dbcb1b2a-6b6c-3b26-2bd9-20dde24f9cdb"
            }
        },
        {
            "fullUrl": "urn:uuid:8182cb21-0236-09c6-937c-c04615216e29",
            "resource": {
                "resourceType": "PractitionerRole",
                "id": "8182cb21-0236-09c6-937c-c04615216e29",
                "location": [
                    {
                        "reference": "Location/f120dcaf-8a79-00e0-4045-9383d82935b6"
                    }
                ],
                "practitioner": {
                    "reference": "Practitioner/dbcb1b2a-6b6c-3b26-2bd9-20dde24f9cdb"
                }
            },
            "request": {
                "method": "PUT",
                "url": "PractitionerRole/8182cb21-0236-09c6-937c-c04615216e29"
            }
        },
        {
            "fullUrl": "urn:uuid:f120dcaf-8a79-00e0-4045-9383d82935b6",
            "resource": {
                "resourceType": "Location",
                "id": "f120dcaf-8a79-00e0-4045-9383d82935b6",
                "partOf": {
                    "reference": "Location/f7028223-0ee3-7152-e027-07bb5b0224ac"
                },
                "name": "Poc-32",
                "mode": "instance",
                "description": "Harry--Raud--Geny--Mr.--Dr.--Poc-32--Room-4--Bed3--Facility-3--1.2--ISO--Building-4--FL-2",
                "physicalType": {
                    "coding": [
                        {
                            "system": "http://terminology.hl7.org/CodeSystem/location-physical-type",
                            "code": "lvl"
                        }
                    ]
                }
            },
            "request": {
                "method": "PUT",
                "url": "Location/f120dcaf-8a79-00e0-4045-9383d82935b6"
            }
        },
        {
            "fullUrl": "urn:uuid:2732e881-cd1e-fe71-a03e-521f112a1e7d",
            "resource": {
                "resourceType": "Location",
                "id": "2732e881-cd1e-fe71-a03e-521f112a1e7d",
                "partOf": {
                    "reference": "Location/f120dcaf-8a79-00e0-4045-9383d82935b6"
                },
                "name": "Room-4",
                "mode": "instance",
                "description": "Harry--Raud--Geny--Mr.--Dr.--Poc-32--Room-4--Bed3--Facility-3--1.2--ISO--Building-4--FL-2",
                "physicalType": {
                    "coding": [
                        {
                            "system": "http://terminology.hl7.org/CodeSystem/location-physical-type",
                            "code": "ro"
                        }
                    ]
                }
            },
            "request": {
                "method": "PUT",
                "url": "Location/2732e881-cd1e-fe71-a03e-521f112a1e7d"
            }
        },
        {
            "fullUrl": "urn:uuid:faa87bc6-7206-7406-fe54-24bab9877eb3",
            "resource": {
                "resourceType": "Location",
                "id": "faa87bc6-7206-7406-fe54-24bab9877eb3",
                "partOf": {
                    "reference": "Location/2732e881-cd1e-fe71-a03e-521f112a1e7d"
                },
                "name": "Bed3",
                "mode": "instance",
                "description": "Harry--Raud--Geny--Mr.--Dr.--Poc-32--Room-4--Bed3--Facility-3--1.2--ISO--Building-4--FL-2",
                "physicalType": {
                    "coding": [
                        {
                            "system": "http://terminology.hl7.org/CodeSystem/location-physical-type",
                            "code": "bd"
                        }
                    ]
                }
            },
            "request": {
                "method": "PUT",
                "url": "Location/faa87bc6-7206-7406-fe54-24bab9877eb3"
            }
        },
        {
            "fullUrl": "urn:uuid:739b2979-f712-b0f4-daad-acefae9b4feb",
            "resource": {
                "resourceType": "Location",
                "id": "739b2979-f712-b0f4-daad-acefae9b4feb",
                "name": "Facility-3",
                "identifier": [
                    {
                        "value": "urn:oid:1.2",
                        "system": "urn:ietf:rfc:3986"
                    }
                ],
                "mode": "instance",
                "description": "Harry--Raud--Geny--Mr.--Dr.--Poc-32--Room-4--Bed3--Facility-3--1.2--ISO--Building-4--FL-2",
                "physicalType": {
                    "coding": [
                        {
                            "system": "http://terminology.hl7.org/CodeSystem/location-physical-type",
                            "code": "si"
                        }
                    ]
                }
            },
            "request": {
                "method": "PUT",
                "url": "Location/739b2979-f712-b0f4-daad-acefae9b4feb"
            }
        },
        {
            "fullUrl": "urn:uuid:8f787230-6d25-6e0e-db3d-96fd13a2d66c",
            "resource": {
                "resourceType": "Location",
                "id": "8f787230-6d25-6e0e-db3d-96fd13a2d66c",
                "partOf": {
                    "reference": "Location/739b2979-f712-b0f4-daad-acefae9b4feb"
                },
                "name": "Building-4",
                "mode": "instance",
                "description": "Harry--Raud--Geny--Mr.--Dr.--Poc-32--Room-4--Bed3--Facility-3--1.2--ISO--Building-4--FL-2",
                "physicalType": {
                    "coding": [
                        {
                            "system": "http://terminology.hl7.org/CodeSystem/location-physical-type",
                            "code": "bu"
                        }
                    ]
                }
            },
            "request": {
                "method": "PUT",
                "url": "Location/8f787230-6d25-6e0e-db3d-96fd13a2d66c"
            }
        },
        {
            "fullUrl": "urn:uuid:f7028223-0ee3-7152-e027-07bb5b0224ac",
            "resource": {
                "resourceType": "Location",
                "id": "f7028223-0ee3-7152-e027-07bb5b0224ac",
                "partOf": {
                    "reference": "Location/8f787230-6d25-6e0e-db3d-96fd13a2d66c"
                },
                "name": "FL-2",
                "mode": "instance",
                "description": "Harry--Raud--Geny--Mr.--Dr.--Poc-32--Room-4--Bed3--Facility-3--1.2--ISO--Building-4--FL-2",
                "physicalType": {
                    "coding": [
                        {
                            "system": "http://terminology.hl7.org/CodeSystem/location-physical-type",
                            "code": "lvl"
                        }
                    ]
                }
            },
            "request": {
                "method": "PUT",
                "url": "Location/f7028223-0ee3-7152-e027-07bb5b0224ac"
            }
        },
        {
            "resource": {
                "resourceType": "DiagnosticReport",
                "id": "3c202c0c-e3eb-2262-23c1-e1f328a0bbe4",
                "resultsInterpreter": [
                    {
                        "reference": "PractitionerRole/8182cb21-0236-09c6-937c-c04615216e29"
                    }
                ],
                "identifier": [
                    {
                        "value": "845439",
                        "system": "http://example.com/v2-to-fhir-converter/local-entity-identifier-GHH-OE",
                        "type": {
                            "coding": [
                                {
                                    "code": "PLAC",
                                    "system": "http://terminology.hl7.org/CodeSystem/v2-0203"
                                }
                            ]
                        }
                    },
                    {
                        "value": "986",
                        "system": "urn:oid:2.16.840.1.114222.4.3.3.5.1.2",
                        "type": {
                            "coding": [
                                {
                                    "code": "FILL",
                                    "system": "http://terminology.hl7.org/CodeSystem/v2-0203"
                                }
                            ]
                        }
                    },
                    {
                        "value": "PGN-04",
                        "type": {
                            "coding": [
                                {
                                    "code": "PGN",
                                    "system": "http://terminology.hl7.org/CodeSystem/v2-0203"
                                }
                            ]
                        }
                    }
                ],
                "effectiveDateTime": "2002-02-15T10:45:00+05:30",
                "code": {
                    "coding": [
                        {
                            "code": "625-4",
                            "display": "Bacteria identified in Stool by Culture",
                            "system": "http://example.com/v2-to-fhir-converter/CodeSystem/XYZ",
                            "version": "2.33"
                        }
                    ],
                    "text": "Enteric Culture"
                },
                "issued": "2002-03-15T10:45:00+05:30",
                "category": [
                    {
                        "coding": [
                            {
                                "code": "BLB",
                                "system": "http://terminology.hl7.org/CodeSystem/v2-0074"
                            }
                        ]
                    }
                ],
                "status": "final",
                "performer": [
                    {
                        "reference": "PractitionerRole/6f4104a9-6928-bcaf-7719-2fb47f0c2df5"
                    },
                    {
                        "reference": "PractitionerRole/f035eb01-dd52-98c8-42f4-08d3a63e5aa2"
                    }
                ],
                "subject": {
                    "reference": "Patient/389b3d01-dc6f-2c15-38c5-8c4e86a515c8"
                },
                "basedOn": [
                    {
                        "reference": "ServiceRequest/e3f8a0a0-4237-82ce-d31d-1529c13ad523"
                    }
                ],
                "specimen": [
                    {
                        "reference": "Specimen/95c9f253-3bac-cf73-202b-907e4e997489"
                    }
                ],
                "result": [
                    {
                        "reference": "Observation/700b7d4e-2516-cae2-2f83-a0a85eab1025"
                    }
                ]
            },
            "fullUrl": "urn:uuid:3c202c0c-e3eb-2262-23c1-e1f328a0bbe4",
            "request": {
                "method": "PUT",
                "url": "DiagnosticReport/3c202c0c-e3eb-2262-23c1-e1f328a0bbe4"
            }
        },
        {
            "fullUrl": "urn:uuid:8c441677-2d13-b04b-260c-45f02d79bc0e",
            "resource": {
                "resourceType": "Practitioner",
                "id": "8c441677-2d13-b04b-260c-45f02d79bc0e",
                "identifier": [
                    {
                        "value": "Richa"
                    }
                ],
                "name": [
                    {
                        "suffix": [
                            "Mr."
                        ],
                        "prefix": [
                            "Md."
                        ]
                    }
                ]
            },
            "request": {
                "method": "PUT",
                "url": "Practitioner/8c441677-2d13-b04b-260c-45f02d79bc0e"
            }
        },
        {
            "fullUrl": "urn:uuid:6f4104a9-6928-bcaf-7719-2fb47f0c2df5",
            "resource": {
                "resourceType": "PractitionerRole",
                "id": "6f4104a9-6928-bcaf-7719-2fb47f0c2df5",
                "code": [
                    {
                        "coding": [
                            {
                                "code": "TECH"
                            }
                        ]
                    }
                ],
                "location": [
                    {
                        "reference": "Location/59b00d6f-7e90-a8a3-eec1-19d7f88514ea"
                    }
                ],
                "practitioner": {
                    "reference": "Practitioner/8c441677-2d13-b04b-260c-45f02d79bc0e"
                }
            },
            "request": {
                "method": "PUT",
                "url": "PractitionerRole/6f4104a9-6928-bcaf-7719-2fb47f0c2df5"
            }
        },
        {
            "fullUrl": "urn:uuid:59b00d6f-7e90-a8a3-eec1-19d7f88514ea",
            "resource": {
                "resourceType": "Location",
                "id": "59b00d6f-7e90-a8a3-eec1-19d7f88514ea",
                "partOf": {
                    "reference": "Location/419f9823-93d6-9783-fc89-e37418b9f4cb"
                },
                "name": "Poc-34",
                "mode": "instance",
                "description": "Richa--Mr.--Md.--Poc-34--Rm-4--Bed2--Facility-4--1.22--ISO--Building-3--FL-3",
                "physicalType": {
                    "coding": [
                        {
                            "system": "http://terminology.hl7.org/CodeSystem/location-physical-type",
                            "code": "lvl"
                        }
                    ]
                }
            },
            "request": {
                "method": "PUT",
                "url": "Location/59b00d6f-7e90-a8a3-eec1-19d7f88514ea"
            }
        },
        {
            "fullUrl": "urn:uuid:c5fb4a94-3953-175e-8c5f-af620ce4dab3",
            "resource": {
                "resourceType": "Location",
                "id": "c5fb4a94-3953-175e-8c5f-af620ce4dab3",
                "partOf": {
                    "reference": "Location/59b00d6f-7e90-a8a3-eec1-19d7f88514ea"
                },
                "name": "Rm-4",
                "mode": "instance",
                "description": "Richa--Mr.--Md.--Poc-34--Rm-4--Bed2--Facility-4--1.22--ISO--Building-3--FL-3",
                "physicalType": {
                    "coding": [
                        {
                            "system": "http://terminology.hl7.org/CodeSystem/location-physical-type",
                            "code": "ro"
                        }
                    ]
                }
            },
            "request": {
                "method": "PUT",
                "url": "Location/c5fb4a94-3953-175e-8c5f-af620ce4dab3"
            }
        },
        {
            "fullUrl": "urn:uuid:a66a65b5-fb3e-d5cc-deaa-2c7dd809fedb",
            "resource": {
                "resourceType": "Location",
                "id": "a66a65b5-fb3e-d5cc-deaa-2c7dd809fedb",
                "partOf": {
                    "reference": "Location/c5fb4a94-3953-175e-8c5f-af620ce4dab3"
                },
                "name": "Bed2",
                "mode": "instance",
                "description": "Richa--Mr.--Md.--Poc-34--Rm-4--Bed2--Facility-4--1.22--ISO--Building-3--FL-3",
                "physicalType": {
                    "coding": [
                        {
                            "system": "http://terminology.hl7.org/CodeSystem/location-physical-type",
                            "code": "bd"
                        }
                    ]
                }
            },
            "request": {
                "method": "PUT",
                "url": "Location/a66a65b5-fb3e-d5cc-deaa-2c7dd809fedb"
            }
        },
        {
            "fullUrl": "urn:uuid:6bfb18a9-f219-312a-ee80-9e291ef76221",
            "resource": {
                "resourceType": "Location",
                "id": "6bfb18a9-f219-312a-ee80-9e291ef76221",
                "name": "Facility-4",
                "identifier": [
                    {
                        "value": "urn:oid:1.22",
                        "system": "urn:ietf:rfc:3986"
                    }
                ],
                "mode": "instance",
                "description": "Richa--Mr.--Md.--Poc-34--Rm-4--Bed2--Facility-4--1.22--ISO--Building-3--FL-3",
                "physicalType": {
                    "coding": [
                        {
                            "system": "http://terminology.hl7.org/CodeSystem/location-physical-type",
                            "code": "si"
                        }
                    ]
                }
            },
            "request": {
                "method": "PUT",
                "url": "Location/6bfb18a9-f219-312a-ee80-9e291ef76221"
            }
        },
        {
            "fullUrl": "urn:uuid:0d82ce59-bb51-650a-f3fa-c6497491502f",
            "resource": {
                "resourceType": "Location",
                "id": "0d82ce59-bb51-650a-f3fa-c6497491502f",
                "partOf": {
                    "reference": "Location/6bfb18a9-f219-312a-ee80-9e291ef76221"
                },
                "name": "Building-3",
                "mode": "instance",
                "description": "Richa--Mr.--Md.--Poc-34--Rm-4--Bed2--Facility-4--1.22--ISO--Building-3--FL-3",
                "physicalType": {
                    "coding": [
                        {
                            "system": "http://terminology.hl7.org/CodeSystem/location-physical-type",
                            "code": "bu"
                        }
                    ]
                }
            },
            "request": {
                "method": "PUT",
                "url": "Location/0d82ce59-bb51-650a-f3fa-c6497491502f"
            }
        },
        {
            "fullUrl": "urn:uuid:419f9823-93d6-9783-fc89-e37418b9f4cb",
            "resource": {
                "resourceType": "Location",
                "id": "419f9823-93d6-9783-fc89-e37418b9f4cb",
                "partOf": {
                    "reference": "Location/0d82ce59-bb51-650a-f3fa-c6497491502f"
                },
                "name": "FL-3",
                "mode": "instance",
                "description": "Richa--Mr.--Md.--Poc-34--Rm-4--Bed2--Facility-4--1.22--ISO--Building-3--FL-3",
                "physicalType": {
                    "coding": [
                        {
                            "system": "http://terminology.hl7.org/CodeSystem/location-physical-type",
                            "code": "lvl"
                        }
                    ]
                }
            },
            "request": {
                "method": "PUT",
                "url": "Location/419f9823-93d6-9783-fc89-e37418b9f4cb"
            }
        },
        {
            "fullUrl": "urn:uuid:c6073275-8b6b-8315-211c-f96e9700b6ae",
            "resource": {
                "resourceType": "Practitioner",
                "id": "c6073275-8b6b-8315-211c-f96e9700b6ae",
                "identifier": [
                    {
                        "value": "35"
                    }
                ],
                "name": [
                    {
                        "family": "Samuel"
                    }
                ]
            },
            "request": {
                "method": "PUT",
                "url": "Practitioner/c6073275-8b6b-8315-211c-f96e9700b6ae"
            }
        },
        {
            "fullUrl": "urn:uuid:f035eb01-dd52-98c8-42f4-08d3a63e5aa2",
            "resource": {
                "resourceType": "PractitionerRole",
                "id": "f035eb01-dd52-98c8-42f4-08d3a63e5aa2",
                "code": [
                    {
                        "coding": [
                            {
                                "code": "TRANS"
                            }
                        ]
                    }
                ],
                "period": {
                    "start": "2002-11-11",
                    "end": "2002-11-12"
                },
                "location": [
                    {
                        "reference": "Location/ce40a46d-eaed-b5a4-ef6e-463cae637157"
                    }
                ],
                "practitioner": {
                    "reference": "Practitioner/c6073275-8b6b-8315-211c-f96e9700b6ae"
                }
            },
            "request": {
                "method": "PUT",
                "url": "PractitionerRole/f035eb01-dd52-98c8-42f4-08d3a63e5aa2"
            }
        },
        {
            "fullUrl": "urn:uuid:ce40a46d-eaed-b5a4-ef6e-463cae637157",
            "resource": {
                "resourceType": "Location",
                "id": "ce40a46d-eaed-b5a4-ef6e-463cae637157",
                "name": "Area23",
                "mode": "instance",
                "description": "35--Samuel--20021111--20021112--Area23",
                "physicalType": {
                    "coding": [
                        {
                            "system": "http://terminology.hl7.org/CodeSystem/location-physical-type",
                            "code": "lvl"
                        }
                    ]
                }
            },
            "request": {
                "method": "PUT",
                "url": "Location/ce40a46d-eaed-b5a4-ef6e-463cae637157"
            }
        },
        {
            "fullUrl": "urn:uuid:95c9f253-3bac-cf73-202b-907e4e997489",
            "resource": {
                "resourceType": "Specimen",
                "id": "95c9f253-3bac-cf73-202b-907e4e997489",
                "collection": {
                    "quantity": {
                        "value": 150,
                        "unit": "lb"
                    },
                    "collector": {
                        "reference": "PractitionerRole/9f64bd3b-d5e9-678b-2f14-b0d756a4e7f1"
                    },
                    "bodySite": {
                        "coding": [
                            {
                                "code": "BN",
                                "display": "223.3",
                                "system": "http://example.com/v2-to-fhir-converter/CodeSystem/L"
                            }
                        ]
                    },
                    "method": {
                        "text": "Collection Method"
                    },
                    "collectedDateTime": "2002-02-15T10:45:00+05:30"
                },
                "receivedTime": "2002-02-12T10:45:00+05:30",
                "identifier": [
                    {
                        "value": "845439",
                        "system": "http://example.com/v2-to-fhir-converter/local-entity-identifier-GHH-OE",
                        "type": {
                            "coding": [
                                {
                                    "code": "PLAC",
                                    "system": "http://terminology.hl7.org/CodeSystem/v2-0203"
                                }
                            ]
                        }
                    },
                    {
                        "value": "986",
                        "system": "urn:oid:2.16.840.1.114222.4.3.3.5.1.2",
                        "type": {
                            "coding": [
                                {
                                    "code": "FILL",
                                    "system": "http://terminology.hl7.org/CodeSystem/v2-0203"
                                }
                            ]
                        }
                    },
                    {
                        "value": "APON-53",
                        "type": {
                            "coding": [
                                {
                                    "code": "PLAC",
                                    "system": "http://terminology.hl7.org/CodeSystem/v2-0203"
                                }
                            ]
                        }
                    }
                ],
                "type": {
                    "coding": [
                        {
                            "code": "SP15",
                            "display": "1.2",
                            "system": "http://example.com/v2-to-fhir-converter/CodeSystem/L"
                        }
                    ]
                },
                "container": [
                    {
                        "additiveCodeableConcept": {
                            "coding": [
                                {
                                    "code": "ACDA"
                                }
                            ]
                        }
                    }
                ],
                "note": [
                    {
                        "text": "Collector's comment"
                    }
                ]
            },
            "request": {
                "method": "PUT",
                "url": "Specimen/95c9f253-3bac-cf73-202b-907e4e997489"
            }
        },
        {
            "fullUrl": "urn:uuid:ae62dffe-1a0f-c68b-e7a3-e33cfce7761e",
            "resource": {
                "resourceType": "Practitioner",
                "id": "ae62dffe-1a0f-c68b-e7a3-e33cfce7761e",
                "identifier": [
                    {
                        "value": "10535",
                        "system": "http://example.com/v2-to-fhir-converter/assigning-authority-universal-system-L",
                        "type": {
                            "coding": [
                                {
                                    "code": "MR",
                                    "display": "Medical record number",
                                    "system": "http://terminology.hl7.org/CodeSystem/v2-0203"
                                }
                            ]
                        }
                    }
                ],
                "name": [
                    {
                        "family": "van Beethoven",
                        "given": [
                            "Ludwig",
                            "A"
                        ],
                        "suffix": [
                            "III",
                            "PHD"
                        ],
                        "prefix": [
                            "Dr"
                        ],
                        "use": "official"
                    }
                ]
            },
            "request": {
                "method": "PUT",
                "url": "Practitioner/ae62dffe-1a0f-c68b-e7a3-e33cfce7761e"
            }
        },
        {
            "fullUrl": "urn:uuid:9f64bd3b-d5e9-678b-2f14-b0d756a4e7f1",
            "resource": {
                "resourceType": "PractitionerRole",
                "id": "9f64bd3b-d5e9-678b-2f14-b0d756a4e7f1",
                "practitioner": {
                    "reference": "Practitioner/ae62dffe-1a0f-c68b-e7a3-e33cfce7761e"
                }
            },
            "request": {
                "method": "PUT",
                "url": "PractitionerRole/9f64bd3b-d5e9-678b-2f14-b0d756a4e7f1"
            }
        },
        {
            "fullUrl": "urn:uuid:e82402a9-b2d1-2a28-3250-c099d5a77bf7",
            "resource": {
                "resourceType": "Organization",
                "id": "e82402a9-b2d1-2a28-3250-c099d5a77bf7",
                "identifier": [
                    {
                        "value": "PERSt",
                        "system": "http://example.com/v2-to-fhir-converter/assigning-authority-local-system-PERSt"
                    },
                    {
                        "value": "1.23",
                        "system": "http://example.com/v2-to-fhir-converter/assigning-authority-universal-system-HCD",
                        "type": {
                            "coding": [
                                {
                                    "code": "HCD",
                                    "display": "The CEN Healthcare Coding Scheme Designator",
                                    "system": "http://terminology.hl7.org/CodeSystem/v2-0301"
                                }
                            ]
                        }
                    }
                ]
            },
            "request": {
                "method": "PUT",
                "url": "Organization/e82402a9-b2d1-2a28-3250-c099d5a77bf7"
            }
        },
        {
            "fullUrl": "urn:uuid:ce70e6c3-c190-121d-c251-e4bae5cde6a1",
            "resource": {
                "resourceType": "Practitioner",
                "id": "ce70e6c3-c190-121d-c251-e4bae5cde6a1",
                "identifier": [
                    {
                        "value": "1134",
                        "system": "http://example.com/v2-to-fhir-converter/assigning-authority-universal-system-HCD",
                        "assigner": {
                            "reference": "Organization/e82402a9-b2d1-2a28-3250-c099d5a77bf7"
                        },
                        "type": {
                            "coding": [
                                {
                                    "code": "BR",
                                    "display": "Birth registry number",
                                    "system": "http://terminology.hl7.org/CodeSystem/v2-0203"
                                }
                            ]
                        }
                    }
                ],
                "name": [
                    {
                        "family": "Aly",
                        "given": [
                            "Zafar",
                            "Mahendra"
                        ],
                        "suffix": [
                            "JR",
                            "MD",
                            "Al"
                        ],
                        "prefix": [
                            "Dr."
                        ],
                        "period": {
                            "start": "1924-10-10",
                            "end": "1924-10-15"
                        }
                    }
                ]
            },
            "request": {
                "method": "PUT",
                "url": "Practitioner/ce70e6c3-c190-121d-c251-e4bae5cde6a1"
            }
        },
        {
            "fullUrl": "urn:uuid:88a53755-c972-6904-b4ce-8884b84ddc2e",
            "resource": {
                "resourceType": "PractitionerRole",
                "id": "88a53755-c972-6904-b4ce-8884b84ddc2e",
                "code": [
                    {
                        "coding": [
                            {
                                "code": "ResponsibleObserver",
                                "system": "http://example.com/v2-to-fhir-converter/PractitionerRole"
                            }
                        ]
                    }
                ],
                "practitioner": {
                    "reference": "Practitioner/ce70e6c3-c190-121d-c251-e4bae5cde6a1"
                }
            },
            "request": {
                "method": "PUT",
                "url": "PractitionerRole/88a53755-c972-6904-b4ce-8884b84ddc2e"
            }
        },
        {
            "fullUrl": "urn:uuid:fe0adb86-ebe9-6479-0055-9db8dc1ff99a",
            "resource": {
                "resourceType": "Device",
                "id": "fe0adb86-ebe9-6479-0055-9db8dc1ff99a",
                "identifier": [
                    {
                        "value": "EI12.3",
                        "system": "urn:uuid:UI2",
                        "type": {
                            "coding": [
                                {
                                    "code": "GUID",
                                    "display": "Same as UUID.",
                                    "system": "http://terminology.hl7.org/CodeSystem/v2-0301"
                                }
                            ]
                        }
                    },
                    {
                        "system": "urn:oid:UI1",
                        "type": {
                            "coding": [
                                {
                                    "code": "ISO",
                                    "display": "An International Standards Organization Object Identifier (OID), in accordance with ISO/IEC 8824. Formatted as decimal digits separated by periods; recommended limit of 64 characters",
                                    "system": "http://terminology.hl7.org/CodeSystem/v2-0301"
                                }
                            ]
                        }
                    }
                ]
            },
            "request": {
                "method": "PUT",
                "url": "Device/fe0adb86-ebe9-6479-0055-9db8dc1ff99a"
            }
        },
        {
            "fullUrl": "urn:uuid:45f65e47-46c4-1a54-f9fb-1321258e79b2",
            "resource": {
                "resourceType": "Practitioner",
                "id": "45f65e47-46c4-1a54-f9fb-1321258e79b2",
                "identifier": [
                    {
                        "type": {
                            "coding": [
                                {
                                    "code": "MD-25"
                                }
                            ]
                        }
                    }
                ]
            },
            "request": {
                "method": "PUT",
                "url": "Practitioner/45f65e47-46c4-1a54-f9fb-1321258e79b2"
            }
        },
        {
            "fullUrl": "urn:uuid:090ea2e4-0a3a-eb7f-8f9f-16dd7d13f7f3",
            "resource": {
                "resourceType": "PractitionerRole",
                "id": "090ea2e4-0a3a-eb7f-8f9f-16dd7d13f7f3",
                "code": [
                    {
                        "coding": [
                            {
                                "code": "LabMedicalDirector",
                                "system": "http://example.com/v2-to-fhir-converter/PractitionerRole"
                            }
                        ]
                    }
                ],
                "practitioner": {
                    "reference": "Practitioner/45f65e47-46c4-1a54-f9fb-1321258e79b2"
                },
                "organization": {
                    "reference": "Organization/08c155be-912e-af06-d464-5b6bb63d660f"
                }
            },
            "request": {
                "method": "PUT",
                "url": "PractitionerRole/090ea2e4-0a3a-eb7f-8f9f-16dd7d13f7f3"
            }
        },
        {
            "fullUrl": "urn:uuid:08c155be-912e-af06-d464-5b6bb63d660f",
            "resource": {
                "resourceType": "Organization",
                "id": "08c155be-912e-af06-d464-5b6bb63d660f",
                "name": "State Hygienic Laboratory",
                "identifier": [
                    {
                        "value": "16D0648109",
                        "type": {
                            "coding": [
                                {
                                    "code": "FI",
                                    "system": "http://terminology.hl7.org/CodeSystem/v2-0203"
                                }
                            ]
                        }
                    }
                ],
                "address": [
                    {
                        "line": [
                            "State Hygienic Laboratory",
                            "UI Research Park -Coralville"
                        ],
                        "city": "Iowa City",
                        "state": "IA",
                        "postalCode": "52242-5002",
                        "country": "USA",
                        "use": "work"
                    }
                ]
            },
            "request": {
                "method": "PUT",
                "url": "Organization/08c155be-912e-af06-d464-5b6bb63d660f"
            }
        },
        {
            "fullUrl": "urn:uuid:700b7d4e-2516-cae2-2f83-a0a85eab1025",
            "resource": {
                "resourceType": "Observation",
                "id": "700b7d4e-2516-cae2-2f83-a0a85eab1025",
                "identifier": [
                    {
                        "value": "EI21",
                        "system": "http://example.com/v2-to-fhir-converter/local-entity-identifier-OII"
                    },
                    {
                        "type": {
                            "coding": [
                                {
                                    "code": "FILL"
                                }
                            ]
                        }
                    }
                ],
                "status": "preliminary",
                "code": {
                    "coding": [
                        {
                            "code": "625-4",
                            "display": "Bacteria identified in Stool by Culture",
                            "system": "http://example.com/v2-to-fhir-converter/CodeSystem/XYZ",
                            "version": "2.33"
                        }
                    ],
                    "text": "result1"
                },
                "valueCodeableConcept": {
                    "coding": [
                        {
                            "code": "27268008",
                            "display": "Salmonella",
                            "system": "http://snomed.info/sct",
                            "version": "20090731"
                        }
                    ],
                    "text": "Salmonella species"
                },
                "referenceRange": [
                    {
                        "text": "70-80"
                    }
                ],
                "effectiveDateTime": "2012-03-01",
                "method": {
                    "text": "Bacterial Culture"
                },
                "device": {
                    "reference": "Device/fe0adb86-ebe9-6479-0055-9db8dc1ff99a"
                },
                "bodySite": {
                    "coding": [
                        {
                            "code": "BU",
                            "display": "Observation site",
                            "system": "http://example.com/v2-to-fhir-converter/CodeSystem/E5"
                        }
                    ]
                },
                "performer": [
                    {
                        "reference": "PractitionerRole/88a53755-c972-6904-b4ce-8884b84ddc2e"
                    },
                    {
                        "reference": "PractitionerRole/090ea2e4-0a3a-eb7f-8f9f-16dd7d13f7f3"
                    }
                ],
                "interpretation": [
                    {
                        "coding": [
                            {
                                "code": "A",
                                "display": "Abnormal",
                                "system": "http://terminology.hl7.org/CodeSystem/v3-ObservationInterpretation",
                                "version": "2.5"
                            }
                        ]
                    }
                ],
                "subject": {
                    "reference": "Patient/389b3d01-dc6f-2c15-38c5-8c4e86a515c8"
                },
                "basedOn": [
                    {
                        "reference": "ServiceRequest/e3f8a0a0-4237-82ce-d31d-1529c13ad523"
                    }
                ],
                "extension": [
                    {
                        "url": "http://example.com/v2-to-fhir-converter/Observation_Status",
                        "valueCodeableConcept": {
                            "coding": [
                                {
                                    "code": "P",
                                    "display": "Preliminary",
                                    "system": "http://terminology.hl7.org/CodeSystem/v2-0085"
                                }
                            ],
                            "text": "Preliminary"
                        }
                    }
                ],
                "note": [
                    {
                        "text": "Submission of serum",
                        "time": "2020-10-10T19:15:00+05:30",
                        "authorReference": {
                            "reference": "Practitioner/ca6d10cc-e8a7-9d21-bd61-ec6d1db557c2"
                        }
                    },
                    {
                        "text": "No Antibodies Detected",
                        "time": "2020-10-10T18:15:00+05:30",
                        "authorReference": {
                            "reference": "Practitioner/ca6d10cc-e8a7-9d21-bd61-ec6d1db557c2"
                        }
                    }
                ]
            },
            "request": {
                "method": "PUT",
                "url": "Observation/700b7d4e-2516-cae2-2f83-a0a85eab1025"
            }
        },
        {
            "fullUrl": "urn:uuid:ca6d10cc-e8a7-9d21-bd61-ec6d1db557c2",
            "resource": {
                "resourceType": "Practitioner",
                "id": "ca6d10cc-e8a7-9d21-bd61-ec6d1db557c2",
                "identifier": [
                    {
                        "value": "MLEE"
                    }
                ],
                "name": [
                    {
                        "family": "ATTEND",
                        "given": [
                            "AARON",
                            "A"
                        ],
                        "suffix": [
                            "MD"
                        ]
                    }
                ]
            },
            "request": {
                "method": "PUT",
                "url": "Practitioner/ca6d10cc-e8a7-9d21-bd61-ec6d1db557c2"
            }
        },
        {
            "fullUrl": "urn:uuid:ea6d5bd5-5c2e-227c-c792-f3f8eb46691b",
            "resource": {
                "resourceType": "Specimen",
                "id": "ea6d5bd5-5c2e-227c-c792-f3f8eb46691b",
                "collection": {
                    "quantity": {
                        "value": 40,
                        "unit": "lbs"
                    },
                    "bodySite": {
                        "coding": [
                            {
                                "code": "BAP",
                                "system": "http://example.com/v2-to-fhir-converter/CodeSystem/HL70488"
                            }
                        ],
                        "text": "Specimen source site"
                    },
                    "method": {
                        "coding": [
                            {
                                "code": "BCAE",
                                "system": "http://terminology.hl7.org/CodeSystem/v2-0488"
                            }
                        ]
                    },
                    "collectedPeriod": {
                        "start": "2011-01-04T04:04:28+05:30",
                        "end": "2011-11-04T04:04:28+05:30"
                    },
                    "extension": [
                        {
                            "url": "http://hl7.org/fhir/StructureDefinition/specimen-specialHandling",
                            "valueCodeableConcept": {
                                "coding": [
                                    {
                                        "code": "AMB",
                                        "display": "Ambient Temperature",
                                        "system": "http://terminology.hl7.org/CodeSystem/v2-0376"
                                    },
                                    {
                                        "code": "DRY",
                                        "display": "dry",
                                        "system": "http://terminology.hl7.org/CodeSystem/v2-0376"
                                    }
                                ]
                            }
                        }
                    ]
                },
                "receivedTime": "2012-03-01",
                "identifier": [
                    {
                        "value": "2012545",
                        "type": {
                            "coding": [
                                {
                                    "code": "PGN",
                                    "system": "http://terminology.hl7.org/CodeSystem/v2-0203"
                                }
                            ]
                        }
                    },
                    {
                        "value": "2012999999",
                        "type": {
                            "coding": [
                                {
                                    "code": "FGN",
                                    "system": "http://terminology.hl7.org/CodeSystem/v2-0203"
                                }
                            ]
                        }
                    },
                    {
                        "value": "OSI-31",
                        "type": {
                            "coding": [
                                {
                                    "code": "PI",
                                    "system": "http://terminology.hl7.org/CodeSystem/v2-0203",
                                    "display": "Patient internal identifier"
                                }
                            ]
                        },
                        "system": "urn:uuid:2.16.840.1.114222",
                        "assigner": {
                            "reference": "Organization/322ca8cf-e43e-973c-3149-9e499675ddca"
                        }
                    },
                    {
                        "value": "ShipID-32",
                        "system": "urn:oid:SID-32",
                        "type": {
                            "coding": [
                                {
                                    "code": "SHIP",
                                    "system": "http://example.com/v2-to-fhir-converter/CodeSystem/additional-identifierType"
                                }
                            ]
                        }
                    }
                ],
                "type": {
                    "coding": [
                        {
                            "code": "ASERU",
                            "display": "Serum",
                            "system": "http://terminology.hl7.org/CodeSystem/v2-0487"
                        },
                        {
                            "code": "FUR",
                            "system": "http://terminology.hl7.org/CodeSystem/v2-0487"
                        }
                    ],
                    "text": "Blood"
                },
                "container": [
                    {
                        "additiveCodeableConcept": {
                            "coding": [
                                {
                                    "code": "STUTM",
                                    "display": "Stuart transport medium",
                                    "system": "http://terminology.hl7.org/CodeSystem/v2-0371",
                                    "version": "20"
                                },
                                {
                                    "code": "PHENOL",
                                    "display": "Stool",
                                    "system": "http://terminology.hl7.org/CodeSystem/v2-0371"
                                }
                            ]
                        },
                        "type": {
                            "coding": [
                                {
                                    "code": "T-container",
                                    "display": "ContainerType",
                                    "system": "http://example.com/v2-to-fhir-converter/CodeSystem/ABC"
                                }
                            ]
                        }
                    }
                ],
                "status": "available",
                "condition": [
                    {
                        "coding": [
                            {
                                "code": "AUT",
                                "display": "Autolyzed",
                                "system": "http://terminology.hl7.org/CodeSystem/v2-0493"
                            },
                            {
                                "code": "CLOT",
                                "display": "CLOT",
                                "system": "http://terminology.hl7.org/CodeSystem/v2-0493"
                            }
                        ]
                    },
                    {
                        "coding": [
                            {
                                "code": "HEM",
                                "display": "HEM",
                                "system": "http://terminology.hl7.org/CodeSystem/v2-0493"
                            }
                        ]
                    }
                ],
                "accessionIdentifier": {
                    "value": "AI-30",
                    "type": {
                        "coding": [
                            {
                                "code": "PI",
                                "system": "http://terminology.hl7.org/CodeSystem/v2-0203",
                                "display": "Patient internal identifier"
                            }
                        ]
                    },
                    "system": "urn:oid:2.16.840.1.114222",
                    "assigner": {
                        "reference": "Organization/f210e7e3-f1e7-297a-9d54-9db2d312cb96"
                    }
                },
                "note": [
                    {
                        "text": "This is a specimen resource"
                    }
                ],
                "parent": [
                    {
                        "reference": "Specimen/0755f744-dafd-776b-bff7-2d023e54406e"
                    }
                ]
            },
            "request": {
                "method": "PUT",
                "url": "Specimen/ea6d5bd5-5c2e-227c-c792-f3f8eb46691b"
            }
        },
        {
            "fullUrl": "urn:uuid:0755f744-dafd-776b-bff7-2d023e54406e",
            "resource": {
                "resourceType": "Specimen",
                "id": "0755f744-dafd-776b-bff7-2d023e54406e",
                "identifier": [
                    {
                        "value": "PAI12",
                        "type": {
                            "coding": [
                                {
                                    "code": "PGN",
                                    "system": "http://terminology.hl7.org/CodeSystem/v2-0203"
                                }
                            ]
                        }
                    }
                ]
            },
            "request": {
                "method": "PUT",
                "url": "Specimen/0755f744-dafd-776b-bff7-2d023e54406e"
            }
        },
        {
            "fullUrl": "urn:uuid:f210e7e3-f1e7-297a-9d54-9db2d312cb96",
            "resource": {
                "resourceType": "Organization",
                "id": "f210e7e3-f1e7-297a-9d54-9db2d312cb96",
                "identifier": [
                    {
                        "value": "IA PHIMS Stage",
                        "system": "http://example.com/v2-to-fhir-converter/assigning-authority-local-system-IA-PHIMS-Stage"
                    },
                    {
                        "value": "urn:oid:2.16.840.1.114222",
                        "system": "urn:ietf:rfc:3986",
                        "type": {
                            "coding": [
                                {
                                    "code": "ISO",
                                    "display": "An International Standards Organization Object Identifier (OID), in accordance with ISO/IEC 8824. Formatted as decimal digits separated by periods; recommended limit of 64 characters",
                                    "system": "http://terminology.hl7.org/CodeSystem/v2-0301"
                                }
                            ]
                        }
                    }
                ]
            },
            "request": {
                "method": "PUT",
                "url": "Organization/f210e7e3-f1e7-297a-9d54-9db2d312cb96"
            }
        },
        {
            "fullUrl": "urn:uuid:322ca8cf-e43e-973c-3149-9e499675ddca",
            "resource": {
                "resourceType": "Organization",
                "id": "322ca8cf-e43e-973c-3149-9e499675ddca",
                "identifier": [
                    {
                        "value": "IPHIMS Stage",
                        "system": "http://example.com/v2-to-fhir-converter/assigning-authority-local-system-IPHIMS-Stage"
                    },
                    {
                        "value": "urn:uuid:2.16.840.1.114222",
                        "system": "urn:ietf:rfc:3986",
                        "type": {
                            "coding": [
                                {
                                    "code": "GUID",
                                    "display": "Same as UUID.",
                                    "system": "http://terminology.hl7.org/CodeSystem/v2-0301"
                                }
                            ]
                        }
                    }
                ]
            },
            "request": {
                "method": "PUT",
                "url": "Organization/322ca8cf-e43e-973c-3149-9e499675ddca"
            }
        },
        {
            "fullUrl": "urn:uuid:257786a3-0c2e-44c7-69ea-3456e7152e68",
            "resource": {
                "resourceType": "DiagnosticReport",
                "id": "257786a3-0c2e-44c7-69ea-3456e7152e68",
                "code": {
                    "coding": [
                        {
                            "code": "1063-7",
                            "display": "Serum or Plasma",
                            "system": "http://example.com/v2-to-fhir-converter/CodeSystem/XYZ",
                            "version": "2.33"
                        }
                    ],
                    "text": "result1"
                },
                "status": "unknown",
                "presentedForm": [
                    {
                        "contentType": "image/pict",
                        "url": "https://testurl.com"
                    }
                ],
                "subject": {
                    "reference": "Patient/389b3d01-dc6f-2c15-38c5-8c4e86a515c8"
                },
                "specimen": [
                    {
                        "reference": "Specimen/ea6d5bd5-5c2e-227c-c792-f3f8eb46691b"
                    }
                ]
            },
            "request": {
                "method": "PUT",
                "url": "DiagnosticReport/257786a3-0c2e-44c7-69ea-3456e7152e68"
            }
        },
        {
            "fullUrl": "urn:uuid:9d7eed34-b8fe-1a79-d3da-092a4d5f8775",
            "resource": {
                "resourceType": "Observation",
                "id": "9d7eed34-b8fe-1a79-d3da-092a4d5f8775",
                "status": "unknown",
                "code": {
                    "coding": [
                        {
                            "code": "8867-4",
                            "display": "Bacteria identified",
                            "system": "http://loinc.org",
                            "version": "2.33"
                        }
                    ],
                    "text": "result1"
                },
                "component": [
                    {
                        "code": {
                            "coding": [
                                {
                                    "code": "8867-4",
                                    "display": "Bacteria identified",
                                    "system": "http://loinc.org",
                                    "version": "2.33"
                                }
                            ],
                            "text": "result1"
                        },
                        "valueQuantity": {
                            "value": 27
                        }
                    },
                    {
                        "code": {
                            "coding": [
                                {
                                    "code": "8867-4",
                                    "display": "Bacteria identified",
                                    "system": "http://loinc.org",
                                    "version": "2.33"
                                }
                            ],
                            "text": "result1"
                        },
                        "valueQuantity": {
                            "value": 25
                        }
                    }
                ],
                "subject": {
                    "reference": "Patient/389b3d01-dc6f-2c15-38c5-8c4e86a515c8"
                },
                "specimen": {
                    "reference": "Specimen/ea6d5bd5-5c2e-227c-c792-f3f8eb46691b"
                },
                "extension": [
                    {
                        "url": "http://example.com/v2-to-fhir-converter/Observation_Status",
                        "valueCodeableConcept": {
                            "coding": [
                                {
                                    "code": "I",
                                    "display": "In Process",
                                    "system": "http://terminology.hl7.org/CodeSystem/v2-0085"
                                }
                            ],
                            "text": "In Process"
                        }
                    }
                ]
            },
            "request": {
                "method": "PUT",
                "url": "Observation/9d7eed34-b8fe-1a79-d3da-092a4d5f8775"
            }
        }
    ]
}