{
    "resourceType": "Bundle",
    "type": "batch",
    "timestamp": "2002-02-15T09:30:00+06:00",
    "identifier": {
        "value": "CNTRL-3456"
    },
    "id": "f4c2fce1-9221-9f62-2d08-4a865f73b29c",
    "entry": [
        {
            "fullUrl": "urn:uuid:59137ac2-b595-49c0-863e-df25b62bf2cd",
            "resource": {
                "resourceType": "MessageHeader",
                "id": "59137ac2-b595-49c0-863e-df25b62bf2cd",
                "source": {
                    "name": "GHH LAB",
                    "_endpoint": {
                        "extension": [
                            {
                                "url": "http://hl7.org/fhir/StructureDefinition/data-absent-reason",
                                "valueCode": "unknown"
                            }
                        ]
                    }
                },
                "destination": [
                    {
                        "name": "GHH OE",
                        "_endpoint": {
                            "extension": [
                                {
                                    "url": "http://hl7.org/fhir/StructureDefinition/data-absent-reason",
                                    "valueCode": "unknown"
                                }
                            ]
                        },
                        "receiver": {
                            "reference": "Organization/fe717593-882d-d154-271e-e93d5b114a0d"
                        }
                    }
                ],
                "meta": {
                    "tag": [
                        {
                            "code": "P",
                            "system": "http://terminology.hl7.org/CodeSystem/v2-0103"
                        }
                    ]
                },
                "eventCoding": {
                    "code": "R01",
                    "system": "http://terminology.hl7.org/CodeSystem/v2-0003",
                    "display": "ORU^R01"
                },
                "sender": {
                    "reference": "Organization/6ab73577-5e9f-5084-a3aa-5402773d5fbd"
                }
            },
            "request": {
                "method": "PUT",
                "url": "MessageHeader/59137ac2-b595-49c0-863e-df25b62bf2cd"
            }
        },
        {
            "fullUrl": "urn:uuid:1af3c547-cdab-c300-08bf-cc3836b6381a",
            "resource": {
                "resourceType": "Provenance",
                "id": "1af3c547-cdab-c300-08bf-cc3836b6381a",
                "text": {
                    "status": "generated",
                    "div": "<div xmlns=\"http://www.w3.org/1999/xhtml\"><p><span>Resource bundle generated on 2022-03-25T12:34:29.872Z using Microsoft FHIR Converter.</span><span>Template Version: TEMPLATE_VERSION_PLACEHOLDER.</span><span>Template URL: https://github.com/microsoft/FHIR-Converter/releases/download/vTEMPLATE_VERSION_PLACEHOLDER/Hl7v2DefaultTemplates.tar.gz.</span><span>Root template: ORU_R01.</span></p></div>"
                },
                "occurredDateTime": "2002-02-15T09:30:00+06:00",
                "recorded": "2002-02-15T09:30:00+06:00",
                "agent": [
                    {
                        "type": {
                            "coding": [
                                {
                                    "code": "author",
                                    "system": "http://terminology.hl7.org/CodeSystem/provenance-participant-type"
                                }
                            ]
                        },
                        "who": {
                            "reference": "Organization/6ab73577-5e9f-5084-a3aa-5402773d5fbd"
                        }
                    }
                ],
                "activity": {
                    "coding": [
                        {
                            "display": "ORU^R01^"
                        }
                    ]
                },
                "target": [
                    {
                        "reference": "Bundle/f4c2fce1-9221-9f62-2d08-4a865f73b29c"
                    }
                ]
            },
            "request": {
                "method": "PUT",
                "url": "Provenance/1af3c547-cdab-c300-08bf-cc3836b6381a"
            }
        },
        {
            "fullUrl": "urn:uuid:6ab73577-5e9f-5084-a3aa-5402773d5fbd",
            "resource": {
                "resourceType": "Organization",
                "id": "6ab73577-5e9f-5084-a3aa-5402773d5fbd",
                "identifier": [
                    {
                        "value": "ELAB-3",
                        "system": "http://example.com/v2-to-fhir-converter/Identifier/ELAB-3"
                    }
                ]
            },
            "request": {
                "method": "PUT",
                "url": "Organization/6ab73577-5e9f-5084-a3aa-5402773d5fbd"
            }
        },
        {
            "fullUrl": "urn:uuid:fe717593-882d-d154-271e-e93d5b114a0d",
            "resource": {
                "resourceType": "Organization",
                "id": "fe717593-882d-d154-271e-e93d5b114a0d",
                "identifier": [
                    {
                        "value": "BLDG4",
                        "system": "http://example.com/v2-to-fhir-converter/Identifier/BLDG4"
                    }
                ]
            },
            "request": {
                "method": "PUT",
                "url": "Organization/fe717593-882d-d154-271e-e93d5b114a0d"
            }
        },
        {
            "fullUrl": "urn:uuid:92bee074-a5c5-3c79-1905-2ed380528150",
            "resource": {
                "resourceType": "Patient",
                "id": "92bee074-a5c5-3c79-1905-2ed380528150",
                "identifier": [
                    {
                        "value": "555-44-4444"
                    },
                    {
                        "value": "67-A4335",
                        "type": {
                            "coding": [
                                {
                                    "code": "DL"
                                }
                            ]
                        },
                        "system": "http://example.com/v2-to-fhir-converter/CodeSystem/OH",
                        "period": {
                            "end": "2003-05-20"
                        }
                    }
                ],
                "name": [
                    {
                        "family": "EVERYWOMAN",
                        "given": [
                            "EVE",
                            "E"
                        ],
                        "use": "official"
                    }
                ],
                "birthDate": "1962-03-20",
                "gender": "female",
                "address": [
                    {
                        "line": [
                            "153 FERNWOOD DR."
                        ],
                        "city": "STATESVILLE",
                        "state": "OH",
                        "postalCode": "35292"
                    }
                ],
                "telecom": [
                    {
                        "value": "(206)3345232",
                        "use": "home"
                    },
                    {
                        "value": "(206)752-121",
                        "use": "work"
                    }
                ],
                "extension": [
                    {
                        "url": "http://hl7.org/fhir/StructureDefinition/patient-mothersMaidenName",
                        "valueString": "JONES"
                    }
                ]
            },
            "request": {
                "method": "PUT",
                "url": "Patient/92bee074-a5c5-3c79-1905-2ed380528150"
            }
        },
        {
            "fullUrl": "urn:uuid:8ce7c059-b284-2c5e-bc0f-c30b93fdaa8e",
            "resource": {
                "resourceType": "Account",
                "id": "8ce7c059-b284-2c5e-bc0f-c30b93fdaa8e",
                "identifier": [
                    {
                        "value": "AC555444444"
                    }
                ],
                "status": "active",
                "subject": [
                    {
                        "reference": "Patient/92bee074-a5c5-3c79-1905-2ed380528150"
                    }
                ]
            },
            "request": {
                "method": "PUT",
                "url": "Account/8ce7c059-b284-2c5e-bc0f-c30b93fdaa8e"
            }
        },
        {
            "fullUrl": "urn:uuid:209c8566-dafa-22b6-31f6-e4c00e649c61",
            "resource": {
                "resourceType": "Observation",
                "id": "209c8566-dafa-22b6-31f6-e4c00e649c61",
                "status": "final",
                "code": {
                    "coding": [
                        {
                            "code": "1554-5",
                            "display": "GLUCOSE",
                            "system": "http://example.com/v2-to-fhir-converter/CodeSystem/POST-12H-CFST:MCNC:PT:SER/PLAS:QN"
                        }
                    ]
                },
                "valueQuantity": {
                    "value": 182,
                    "unit": "mg/dl"
                },
                "referenceRange": [
                    {
                        "text": "70_105"
                    }
                ],
                "interpretation": [
                    {
                        "coding": [
                            {
                                "code": "H",
                                "display": "High",
                                "system": "http://terminology.hl7.org/CodeSystem/v3-ObservationInterpretation"
                            }
                        ]
                    }
                ],
                "subject": {
                    "reference": "Patient/92bee074-a5c5-3c79-1905-2ed380528150"
                },
                "extension": [
                    {
                        "url": "http://example.com/v2-to-fhir-converter/Observation_Status",
                        "valueCodeableConcept": {
                            "coding": [
                                {
                                    "code": "F",
                                    "display": "Final",
                                    "system": "http://terminology.hl7.org/CodeSystem/v2-0085"
                                }
                            ],
                            "text": "Final"
                        }
                    }
                ],
                "basedOn": [
                    {
                        "reference": "ServiceRequest/10ffaaff-1f45-e217-a589-672caec1153e"
                    }
                ]
            },
            "request": {
                "method": "PUT",
                "url": "Observation/209c8566-dafa-22b6-31f6-e4c00e649c61"
            }
        },
        {
            "fullUrl": "urn:uuid:10ffaaff-1f45-e217-a589-672caec1153e",
            "resource": {
                "resourceType": "ServiceRequest",
                "id": "10ffaaff-1f45-e217-a589-672caec1153e",
                "status": "active",
                "intent": "filler-order",
                "identifier": [
                    {
                        "value": "845439",
                        "system": "http://example.com/v2-to-fhir-converter/Identifier/GHH-OE",
                        "type": {
                            "coding": [
                                {
                                    "code": "PLAC",
                                    "system": "http://terminology.hl7.org/CodeSystem/v2-0203"
                                }
                            ]
                        }
                    },
                    {
                        "value": "1045813",
                        "system": "http://example.com/v2-to-fhir-converter/Identifier/GHH-LAB",
                        "type": {
                            "coding": [
                                {
                                    "code": "FILL",
                                    "system": "http://terminology.hl7.org/CodeSystem/v2-0203"
                                }
                            ]
                        }
                    }
                ],
                "code": {
                    "coding": [
                        {
                            "code": "15545",
                            "display": "GLUCOSE"
                        }
                    ]
                },
                "reasonCode": [
                    {
                        "coding": [
                            {
                                "code": "444-44-4444",
                                "display": "HIPPOCRATES",
                                "system": "http://example.com/v2-to-fhir-converter/CodeSystem/HOWARD-H",
                                "version": "MD"
                            }
                        ]
                    }
                ],
                "subject": {
                    "reference": "Patient/92bee074-a5c5-3c79-1905-2ed380528150"
                },
                "requester": {
                    "reference": "PractitionerRole/4fe9acb3-89ca-75f6-471d-59fdad148a9d"
                },
                "specimen": [
                    {
                        "reference": "Specimen/c965d3ae-f07a-1943-b184-9471ce1c3b44"
                    }
                ]
            },
            "request": {
                "method": "PUT",
                "url": "ServiceRequest/10ffaaff-1f45-e217-a589-672caec1153e"
            }
        },
        {
            "fullUrl": "urn:uuid:cb12815d-2663-5dcf-5f10-0f9e57083be1",
            "resource": {
                "resourceType": "Practitioner",
                "id": "cb12815d-2663-5dcf-5f10-0f9e57083be1",
                "identifier": [
                    {
                        "value": "555-55-5555"
                    }
                ],
                "name": [
                    {
                        "family": "PRIMARY",
                        "given": [
                            "PATRICIA P"
                        ],
                        "suffix": [
                            "MD"
                        ]
                    }
                ]
            },
            "request": {
                "method": "PUT",
                "url": "Practitioner/cb12815d-2663-5dcf-5f10-0f9e57083be1"
            }
        },
        {
            "fullUrl": "urn:uuid:4fe9acb3-89ca-75f6-471d-59fdad148a9d",
            "resource": {
                "resourceType": "PractitionerRole",
                "id": "4fe9acb3-89ca-75f6-471d-59fdad148a9d",
                "code": [
                    {
                        "coding": [
                            {
                                "code": "OP",
                                "display": "Ordering Provider",
                                "system": "http://terminology.hl7.org/CodeSystem/v2-0443"
                            }
                        ]
                    }
                ],
                "practitioner": {
                    "reference": "Practitioner/cb12815d-2663-5dcf-5f10-0f9e57083be1"
                }
            },
            "request": {
                "method": "PUT",
                "url": "PractitionerRole/4fe9acb3-89ca-75f6-471d-59fdad148a9d"
            }
        },
        {
            "fullUrl": "urn:uuid:3c202c0c-e3eb-2262-23c1-e1f328a0bbe4",
            "resource": {
                "resourceType": "DiagnosticReport",
                "id": "3c202c0c-e3eb-2262-23c1-e1f328a0bbe4",
                "identifier": [
                    {
                        "value": "845439",
                        "system": "http://example.com/v2-to-fhir-converter/Identifier/GHH-OE",
                        "type": {
                            "coding": [
                                {
                                    "code": "PLAC",
                                    "system": "http://terminology.hl7.org/CodeSystem/v2-0203"
                                }
                            ]
                        }
                    },
                    {
                        "value": "1045813",
                        "system": "http://example.com/v2-to-fhir-converter/Identifier/GHH-LAB",
                        "type": {
                            "coding": [
                                {
                                    "code": "FILL",
                                    "system": "http://terminology.hl7.org/CodeSystem/v2-0203"
                                }
                            ]
                        }
                    }
                ],
                "effectiveDateTime": "2002-02-15T07:30:00+06:00",
                "code": {
                    "coding": [
                        {
                            "code": "15545",
                            "display": "GLUCOSE"
                        }
                    ]
                },
                "status": "final",
                "subject": {
                    "reference": "Patient/92bee074-a5c5-3c79-1905-2ed380528150"
                },
                "basedOn": [
                    {
                        "reference": "ServiceRequest/10ffaaff-1f45-e217-a589-672caec1153e"
                    }
                ],
                "specimen": [
                    {
                        "reference": "Specimen/c965d3ae-f07a-1943-b184-9471ce1c3b44"
                    }
                ],
                "result": [
                    {
                        "reference": "Observation/209c8566-dafa-22b6-31f6-e4c00e649c61"
                    }
                ]
            },
            "request": {
                "method": "PUT",
                "url": "DiagnosticReport/3c202c0c-e3eb-2262-23c1-e1f328a0bbe4"
            }
        },
        {
            "fullUrl": "urn:uuid:c965d3ae-f07a-1943-b184-9471ce1c3b44",
            "resource": {
                "resourceType": "Specimen",
                "id": "c965d3ae-f07a-1943-b184-9471ce1c3b44",
                "identifier": [
                    {
                        "value": "845439",
                        "system": "http://example.com/v2-to-fhir-converter/Identifier/GHH-OE",
                        "type": {
                            "coding": [
                                {
                                    "code": "PLAC",
                                    "system": "http://terminology.hl7.org/CodeSystem/v2-0203"
                                }
                            ]
                        }
                    },
                    {
                        "value": "1045813",
                        "system": "http://example.com/v2-to-fhir-converter/Identifier/GHH-LAB",
                        "type": {
                            "coding": [
                                {
                                    "code": "FILL",
                                    "system": "http://terminology.hl7.org/CodeSystem/v2-0203"
                                }
                            ]
                        }
                    }
                ],
                "collection": {
                    "collectedDateTime": "2002-02-15T07:30:00+06:00"
                }
            },
            "request": {
                "method": "PUT",
                "url": "Specimen/c965d3ae-f07a-1943-b184-9471ce1c3b44"
            }
        }
    ]
}