{
  "resourceType": "Bundle",
  "type": "batch",
  "timestamp": "2012-03-14T20:44:00+05:30",
  "identifier": {
      "value": "2.16.840.1.114222.4.3.3.5.1.2-20120314235954.325"
  },
  "id": "3294d4fe-4d33-61e3-310f-3078b6bb0264",
  "entry": [
      {
          "fullUrl": "urn:uuid:bb2c62d5-a5ee-37cf-332d-bd928e8586f4",
          "resource": {
              "resourceType": "MessageHeader",
              "id": "bb2c62d5-a5ee-37cf-332d-bd928e8586f4",
              "source": {
                  "name": "IA PHIMS Stage",
                  "endpoint": "urn:oid:2.16.840.1.114222.4.3.3.5.1.2",
                  "version": "2.4.3.52854",
                  "software": "Rhapsody"
              },
              "destination": [
                  {
                      "name": "IA.DOH.IDSS",
                      "endpoint": "urn:oid:2.16.840.1.114222.4.3.3.19",
                      "receiver": {
                          "reference": "Organization/6930f42d-f2d4-5b0d-9cf8-a2108c0a4811"
                      }
                  }
              ],
              "meta": {
                  "tag": [
                      {
                          "code": "T",
                          "system": "http://terminology.hl7.org/CodeSystem/v2-0103"
                      }
                  ]
              },
              "eventCoding": {
                  "code": "R01",
                  "system": "http://terminology.hl7.org/CodeSystem/v2-0003",
                  "display": "ORU^R01^ORU_R01"
              },
              "sender": {
                  "reference": "Organization/353c3718-dc57-7a15-8660-7aeed24b4f7e"
              }
          },
          "request": {
              "method": "PUT",
              "url": "MessageHeader/bb2c62d5-a5ee-37cf-332d-bd928e8586f4"
          }
      },
      {
          "fullUrl": "urn:uuid:4b8e3786-de8b-c12f-345b-3c83fc1c4a0d",
          "resource": {
              "resourceType": "Provenance",
              "id": "4b8e3786-de8b-c12f-345b-3c83fc1c4a0d",
              "text": {
                  "status": "generated",
                  "div": "<div xmlns=\"http://www.w3.org/1999/xhtml\"><p><span>Resource bundle generated on 2022-03-28T09:30:35.318Z using Microsoft FHIR Converter.</span><span>Template Version: TEMPLATE_VERSION_PLACEHOLDER.</span><span>Template URL: https://github.com/microsoft/FHIR-Converter/releases/download/vTEMPLATE_VERSION_PLACEHOLDER/Hl7v2DefaultTemplates.tar.gz.</span><span>Root template: ORU_R01.</span></p></div>"
              },
              "occurredDateTime": "2012-03-14T20:44:00+05:30",
              "recorded": "2012-03-14T20:44:00+05:30",
              "agent": [
                  {
                      "type": {
                          "coding": [
                              {
                                  "code": "author",
                                  "system": "http://terminology.hl7.org/CodeSystem/provenance-participant-type"
                              }
                          ]
                      },
                      "who": {
                          "reference": "Organization/353c3718-dc57-7a15-8660-7aeed24b4f7e"
                      }
                  }
              ],
              "activity": {
                  "coding": [
                      {
                          "display": "ORU^R01^ORU_R01"
                      }
                  ]
              },
              "target": [
                  {
                      "reference": "Bundle/3294d4fe-4d33-61e3-310f-3078b6bb0264"
                  }
              ]
          },
          "request": {
              "method": "PUT",
              "url": "Provenance/4b8e3786-de8b-c12f-345b-3c83fc1c4a0d"
          }
      },
      {
          "fullUrl": "urn:uuid:353c3718-dc57-7a15-8660-7aeed24b4f7e",
          "resource": {
              "resourceType": "Organization",
              "id": "353c3718-dc57-7a15-8660-7aeed24b4f7e",
              "identifier": [
                  {
                      "value": "IA Public Health Lab",
                      "system": "http://example.com/v2-to-fhir-converter/Identifier/IA-Public-Health-Lab"
                  },
                  {
                      "value": "urn:oid:2.16.840.1.114222.4.1.10411",
                      "system": "urn:ietf:rfc:3986",
                      "type": {
                          "coding": [
                              {
                                  "code": "ISO",
                                  "display": "An International Standards Organization Object Identifier (OID), in accordance with ISO/IEC 8824. Formatted as decimal digits separated by periods; recommended limit of 64 characters",
                                  "system": "http://terminology.hl7.org/CodeSystem/v2-0301"
                              }
                          ]
                      }
                  }
              ],
              "address": [
                  {
                      "country": "USA"
                  }
              ]
          },
          "request": {
              "method": "PUT",
              "url": "Organization/353c3718-dc57-7a15-8660-7aeed24b4f7e"
          }
      },
      {
          "fullUrl": "urn:uuid:6930f42d-f2d4-5b0d-9cf8-a2108c0a4811",
          "resource": {
              "resourceType": "Organization",
              "id": "6930f42d-f2d4-5b0d-9cf8-a2108c0a4811",
              "identifier": [
                  {
                      "value": "IA DOH",
                      "system": "http://example.com/v2-to-fhir-converter/Identifier/IA-DOH"
                  },
                  {
                      "value": "urn:oid:2.16.840.1.114222.4.1.3650",
                      "system": "urn:ietf:rfc:3986",
                      "type": {
                          "coding": [
                              {
                                  "code": "ISO",
                                  "display": "An International Standards Organization Object Identifier (OID), in accordance with ISO/IEC 8824. Formatted as decimal digits separated by periods; recommended limit of 64 characters",
                                  "system": "http://terminology.hl7.org/CodeSystem/v2-0301"
                              }
                          ]
                      }
                  }
              ],
              "address": [
                  {
                      "country": "USA"
                  }
              ]
          },
          "request": {
              "method": "PUT",
              "url": "Organization/6930f42d-f2d4-5b0d-9cf8-a2108c0a4811"
          }
      },
      {
          "fullUrl": "urn:uuid:4b549918-a84d-cdaf-e150-c773a5d306e5",
          "resource": {
              "resourceType": "Device",
              "id": "4b549918-a84d-cdaf-e150-c773a5d306e5",
              "manufacturer": "Orion Health",
              "deviceName": [
                  {
                      "name": "Rhapsody",
                      "type": "manufacturer-name"
                  }
              ],
              "version": [
                  {
                      "value": "2.4.3.52854"
                  }
              ],
              "modelNumber": "2.4.3.52854"
          },
          "request": {
              "method": "PUT",
              "url": "Device/4b549918-a84d-cdaf-e150-c773a5d306e5"
          }
      },
      {
          "fullUrl": "urn:uuid:389b3d01-dc6f-2c15-38c5-8c4e86a515c8",
          "resource": {
              "resourceType": "Patient",
              "id": "389b3d01-dc6f-2c15-38c5-8c4e86a515c8",
              "identifier": [
                  {
                      "value": "14",
                      "type": {
                          "coding": [
                              {
                                  "code": "PI",
                                  "system": "http://terminology.hl7.org/CodeSystem/v2-0203",
                                  "display": "Patient internal identifier"
                              }
                          ]
                      },
                      "system": "urn:oid:2.16.840.1.114222.4.3.3.5.1.2",
                      "assigner": {
                          "reference": "Organization/5263bd4f-69ed-d465-3e10-e79f2010bf12"
                      }
                  }
              ],
              "name": [
                  {
                      "family": "Finn",
                      "given": [
                          "Huckleberry"
                      ],
                      "use": "official"
                  }
              ],
              "birthDate": "1963-08-15",
              "gender": "male",
              "address": [
                  {
                      "line": [
                          "721 SPRING STREET"
                      ],
                      "city": "GRINNELL",
                      "state": "IA",
                      "postalCode": "50112",
                      "country": "USA",
                      "use": "home"
                  }
              ],
              "maritalStatus": {
                  "coding": [
                      {
                          "code": "M",
                          "display": "Married",
                          "system": "http://terminology.hl7.org/CodeSystem/v3-MaritalStatus",
                          "version": "2.5.1"
                      }
                  ]
              },
              "extension": [
                  {
                      "url": "http://hl7.org/fhir/us/core/StructureDefinition/us-core-race",
                      "extension": [
                          {
                              "url": "ombCategory",
                              "valueCoding": {
                                  "code": "2106-3",
                                  "display": "White",
                                  "system": "urn:oid:2.16.840.1.113883.6.238",
                                  "version": "04/24/2007"
                              }
                          },
                          {
                              "url": "ombCategory",
                              "valueCoding": {
                                  "code": "1002-5",
                                  "display": "American Indian or Alaska Native",
                                  "system": "urn:oid:2.16.840.1.113883.6.238",
                                  "version": "04/24/2007"
                              }
                          },
                          {
                              "url": "text",
                              "valueString": "White+American Indian or Alaska Native"
                          }
                      ]
                  },
                  {
                      "url": "http://hl7.org/fhir/us/core/StructureDefinition/us-core-ethnicity",
                      "extension": [
                          {
                              "url": "ombCategory",
                              "valueCoding": {
                                  "code": "2135-2",
                                  "display": "Hispanic or Latino",
                                  "system": "urn:oid:2.16.840.1.113883.6.238",
                                  "version": "2.5.1"
                              }
                          },
                          {
                              "url": "text",
                              "valueString": "Hispanic or Latino"
                          }
                      ]
                  },
                  {
                      "url": "http://hl7.org/fhir/StructureDefinition/patient-importance",
                      "valueCodeableConcept": {
                          "coding": [
                              {
                                  "code": "VIP",
                                  "display": "Very Important Person",
                                  "system": "http://example.com/v2-to-fhir-converter/CodeSystem/L",
                                  "version": "v1.1"
                              },
                              {
                                  "code": "IMP",
                                  "system": "http://example.com/v2-to-fhir-converter/CodeSystem/DCM",
                                  "version": "v1.2"
                              }
                          ],
                          "text": "Inportant Person"
                      }
                  }
              ],
              "generalPractitioner": [
                  {
                      "reference": "PractitionerRole/1eedde30-5cfd-6ac7-a56b-6feb1be5d204"
                  }
              ],
              "contact": [
                  {
                      "name": {
                          "family": "Doe",
                          "given": [
                              "Rosallie"
                          ]
                      },
                      "address": {
                          "line": [
                              "115 MAINSTREET"
                          ],
                          "city": "GOODTOWN",
                          "state": "KY",
                          "postalCode": "42010",
                          "country": "USA"
                      },
                      "telecom": [
                          {
                              "value": "(608)271-9001",
                              "use": "work",
                              "system": "phone"
                          }
                      ],
                      "relationship": [
                          {
                              "coding": [
                                  {
                                      "code": "C",
                                      "display": "Emergency Contact",
                                      "system": "http://terminology.hl7.org/CodeSystem/v2-0131"
                                  }
                              ]
                          }
                      ]
                  }
              ]
          },
          "request": {
              "method": "PUT",
              "url": "Patient/389b3d01-dc6f-2c15-38c5-8c4e86a515c8"
          }
      },
      {
          "fullUrl": "urn:uuid:1eedde30-5cfd-6ac7-a56b-6feb1be5d204",
          "resource": {
              "resourceType": "PractitionerRole",
              "id": "1eedde30-5cfd-6ac7-a56b-6feb1be5d204",
              "code": [
                  {
                      "coding": [
                          {
                              "code": "AD",
                              "display": "Admitting Provider",
                              "system": "http://terminology.hl7.org/CodeSystem/v2-0443"
                          }
                      ]
                  }
              ],
              "location": [
                  {
                      "reference": "Location/7e8c8f5b-e366-6646-d2c0-e943bd9d1145"
                  }
              ],
              "organization": {
                  "reference": "Organization/a5f89225-9b37-737d-9b70-c9cf83668801"
              },
              "practitioner": {
                  "reference": "Practitioner/e7fc1fa4-8d6c-7295-1770-b6d81f5d393d"
              }
          },
          "request": {
              "method": "PUT",
              "url": "PractitionerRole/1eedde30-5cfd-6ac7-a56b-6feb1be5d204"
          }
      },
      {
          "fullUrl": "urn:uuid:0ccb76ca-b97e-1c86-4617-912a6d65c1f9",
          "resource": {
              "resourceType": "Organization",
              "id": "0ccb76ca-b97e-1c86-4617-912a6d65c1f9",
              "identifier": [
                  {
                      "value": "PERSONNELt",
                      "system": "http://example.com/v2-to-fhir-converter/Identifier/PERSONNELt"
                  },
                  {
                      "value": "1.23",
                      "system": "http://example.com/v2-to-fhir-converter/Identifier/HCD",
                      "type": {
                          "coding": [
                              {
                                  "code": "HCD",
                                  "display": "The CEN Healthcare Coding Scheme Designator",
                                  "system": "http://terminology.hl7.org/CodeSystem/v2-0301"
                              }
                          ]
                      }
                  }
              ]
          },
          "request": {
              "method": "PUT",
              "url": "Organization/0ccb76ca-b97e-1c86-4617-912a6d65c1f9"
          }
      },
      {
          "fullUrl": "urn:uuid:e7fc1fa4-8d6c-7295-1770-b6d81f5d393d",
          "resource": {
              "resourceType": "Practitioner",
              "id": "e7fc1fa4-8d6c-7295-1770-b6d81f5d393d",
              "identifier": [
                  {
                      "value": "112233421",
                      "system": "http://example.com/v2-to-fhir-converter/Identifier/HCD",
                      "assigner": {
                          "reference": "Organization/0ccb76ca-b97e-1c86-4617-912a6d65c1f9"
                      },
                      "type": {
                          "coding": [
                              {
                                  "code": "BR",
                                  "display": "Birth registry number",
                                  "system": "http://terminology.hl7.org/CodeSystem/v2-0203"
                              }
                          ]
                      }
                  }
              ],
              "name": [
                  {
                      "family": "Alaz",
                      "given": [
                          "Mohammed",
                          "Mahi"
                      ],
                      "suffix": [
                          "JR",
                          "MD",
                          "Al"
                      ],
                      "prefix": [
                          "Dr."
                      ],
                      "period": {
                          "start": "1924-10-10",
                          "end": "1924-10-15"
                      }
                  }
              ]
          },
          "request": {
              "method": "PUT",
              "url": "Practitioner/e7fc1fa4-8d6c-7295-1770-b6d81f5d393d"
          }
      },
      {
          "fullUrl": "urn:uuid:7e8c8f5b-e366-6646-d2c0-e943bd9d1145",
          "resource": {
              "resourceType": "Location",
              "id": "7e8c8f5b-e366-6646-d2c0-e943bd9d1145",
              "partOf": {
                  "reference": "Location/ff93044f-a48c-31c6-e7bd-f400aff947e3"
              },
              "name": "HUH AE OMU",
              "identifier": [
                  {
                      "value": "urn:oid:9.8",
                      "system": "urn:ietf:rfc:3986"
                  }
              ],
              "mode": "instance",
              "description": "HUH AE OMU--9.8--ISO--OMU B--Bed 03--HOMERTON UNIVER--C--Homerton UH--Floor5",
              "physicalType": {
                  "coding": [
                      {
                          "system": "http://terminology.hl7.org/CodeSystem/location-physical-type",
                          "code": "lvl"
                      }
                  ]
              }
          },
          "request": {
              "method": "PUT",
              "url": "Location/7e8c8f5b-e366-6646-d2c0-e943bd9d1145"
          }
      },
      {
          "fullUrl": "urn:uuid:21db7463-3dcf-df06-09f7-657d2a3149da",
          "resource": {
              "resourceType": "Location",
              "id": "21db7463-3dcf-df06-09f7-657d2a3149da",
              "partOf": {
                  "reference": "Location/7e8c8f5b-e366-6646-d2c0-e943bd9d1145"
              },
              "name": "OMU B",
              "mode": "instance",
              "description": "HUH AE OMU--9.8--ISO--OMU B--Bed 03--HOMERTON UNIVER--C--Homerton UH--Floor5",
              "physicalType": {
                  "coding": [
                      {
                          "system": "http://terminology.hl7.org/CodeSystem/location-physical-type",
                          "code": "ro"
                      }
                  ]
              }
          },
          "request": {
              "method": "PUT",
              "url": "Location/21db7463-3dcf-df06-09f7-657d2a3149da"
          }
      },
      {
          "fullUrl": "urn:uuid:8c9f471c-25cf-4f9d-a67a-da6dccc64c88",
          "resource": {
              "resourceType": "Location",
              "id": "8c9f471c-25cf-4f9d-a67a-da6dccc64c88",
              "partOf": {
                  "reference": "Location/21db7463-3dcf-df06-09f7-657d2a3149da"
              },
              "name": "Bed 03",
              "mode": "instance",
              "description": "HUH AE OMU--9.8--ISO--OMU B--Bed 03--HOMERTON UNIVER--C--Homerton UH--Floor5",
              "physicalType": {
                  "coding": [
                      {
                          "system": "http://terminology.hl7.org/CodeSystem/location-physical-type",
                          "code": "bd"
                      }
                  ]
              }
          },
          "request": {
              "method": "PUT",
              "url": "Location/8c9f471c-25cf-4f9d-a67a-da6dccc64c88"
          }
      },
      {
          "fullUrl": "urn:uuid:35c140b2-668e-8d32-7516-6ec7d7edecc7",
          "resource": {
              "resourceType": "Location",
              "id": "35c140b2-668e-8d32-7516-6ec7d7edecc7",
              "name": "HOMERTON UNIVER",
              "mode": "instance",
              "description": "HUH AE OMU--9.8--ISO--OMU B--Bed 03--HOMERTON UNIVER--C--Homerton UH--Floor5",
              "physicalType": {
                  "coding": [
                      {
                          "system": "http://terminology.hl7.org/CodeSystem/location-physical-type",
                          "code": "si"
                      }
                  ]
              }
          },
          "request": {
              "method": "PUT",
              "url": "Location/35c140b2-668e-8d32-7516-6ec7d7edecc7"
          }
      },
      {
          "fullUrl": "urn:uuid:7fce0afa-27f7-3408-86ef-838840491ff0",
          "resource": {
              "resourceType": "Location",
              "id": "7fce0afa-27f7-3408-86ef-838840491ff0",
              "partOf": {
                  "reference": "Location/35c140b2-668e-8d32-7516-6ec7d7edecc7"
              },
              "name": "Homerton UH",
              "mode": "instance",
              "description": "HUH AE OMU--9.8--ISO--OMU B--Bed 03--HOMERTON UNIVER--C--Homerton UH--Floor5",
              "physicalType": {
                  "coding": [
                      {
                          "system": "http://terminology.hl7.org/CodeSystem/location-physical-type",
                          "code": "bu"
                      }
                  ]
              }
          },
          "request": {
              "method": "PUT",
              "url": "Location/7fce0afa-27f7-3408-86ef-838840491ff0"
          }
      },
      {
          "fullUrl": "urn:uuid:ff93044f-a48c-31c6-e7bd-f400aff947e3",
          "resource": {
              "resourceType": "Location",
              "id": "ff93044f-a48c-31c6-e7bd-f400aff947e3",
              "partOf": {
                  "reference": "Location/7fce0afa-27f7-3408-86ef-838840491ff0"
              },
              "name": "Floor5",
              "mode": "instance",
              "description": "HUH AE OMU--9.8--ISO--OMU B--Bed 03--HOMERTON UNIVER--C--Homerton UH--Floor5",
              "physicalType": {
                  "coding": [
                      {
                          "system": "http://terminology.hl7.org/CodeSystem/location-physical-type",
                          "code": "lvl"
                      }
                  ]
              }
          },
          "request": {
              "method": "PUT",
              "url": "Location/ff93044f-a48c-31c6-e7bd-f400aff947e3"
          }
      },
      {
          "fullUrl": "urn:uuid:a5f89225-9b37-737d-9b70-c9cf83668801",
          "resource": {
              "resourceType": "Organization",
              "id": "a5f89225-9b37-737d-9b70-c9cf83668801",
              "name": "Good Health Hospital"
          },
          "request": {
              "method": "PUT",
              "url": "Organization/a5f89225-9b37-737d-9b70-c9cf83668801"
          }
      },
      {
          "fullUrl": "urn:uuid:5263bd4f-69ed-d465-3e10-e79f2010bf12",
          "resource": {
              "resourceType": "Organization",
              "id": "5263bd4f-69ed-d465-3e10-e79f2010bf12",
              "identifier": [
                  {
                      "value": "IA PHIMS Stage",
                      "system": "http://example.com/v2-to-fhir-converter/Identifier/IA-PHIMS-Stage"
                  },
                  {
                      "value": "urn:oid:2.16.840.1.114222.4.3.3.5.1.2",
                      "system": "urn:ietf:rfc:3986",
                      "type": {
                          "coding": [
                              {
                                  "code": "ISO",
                                  "display": "An International Standards Organization Object Identifier (OID), in accordance with ISO/IEC 8824. Formatted as decimal digits separated by periods; recommended limit of 64 characters",
                                  "system": "http://terminology.hl7.org/CodeSystem/v2-0301"
                              }
                          ]
                      }
                  }
              ]
          },
          "request": {
              "method": "PUT",
              "url": "Organization/5263bd4f-69ed-d465-3e10-e79f2010bf12"
          }
      },
      {
          "fullUrl": "urn:uuid:2110f421-a2a2-e702-115a-490a55c8ce3f",
          "resource": {
              "resourceType": "Practitioner",
              "id": "2110f421-a2a2-e702-115a-490a55c8ce3f",
              "identifier": [
                  {
                      "value": "1111",
                      "system": "http://example.com/v2-to-fhir-converter/Identifier/PERLt",
                      "type": {
                          "coding": [
                              {
                                  "code": "BR",
                                  "display": "Birth registry number",
                                  "system": "http://terminology.hl7.org/CodeSystem/v2-0203"
                              }
                          ]
                      }
                  }
              ],
              "name": [
                  {
                      "given": [
                          "Zafar",
                          "Mahen"
                      ],
                      "suffix": [
                          "JR",
                          "MD"
                      ],
                      "prefix": [
                          "Dr."
                      ]
                  }
              ]
          },
          "request": {
              "method": "PUT",
              "url": "Practitioner/2110f421-a2a2-e702-115a-490a55c8ce3f"
          }
      },
      {
          "fullUrl": "urn:uuid:505c291e-5ae6-8346-bfe0-2587065e410e",
          "resource": {
              "resourceType": "PractitionerRole",
              "id": "505c291e-5ae6-8346-bfe0-2587065e410e",
              "code": [
                  {
                      "coding": [
                          {
                              "code": "RO",
                              "display": "Responsible Observer",
                              "system": "http://terminology.hl7.org/CodeSystem/v2-0443"
                          }
                      ]
                  }
              ],
              "practitioner": {
                  "reference": "Practitioner/2110f421-a2a2-e702-115a-490a55c8ce3f"
              }
          },
          "request": {
              "method": "PUT",
              "url": "PractitionerRole/505c291e-5ae6-8346-bfe0-2587065e410e"
          }
      },
      {
          "fullUrl": "urn:uuid:e2f9615a-8a86-7a34-07b8-e75842da37f0",
          "resource": {
              "resourceType": "Organization",
              "id": "e2f9615a-8a86-7a34-07b8-e75842da37f0",
              "name": "ABC Hospital",
              "address": [
                  {
                      "line": [
                          "A city",
                          "Florida"
                      ],
                      "city": "VA",
                      "state": "22031",
                      "postalCode": "USA"
                  }
              ]
          },
          "request": {
              "method": "PUT",
              "url": "Organization/e2f9615a-8a86-7a34-07b8-e75842da37f0"
          }
      },
      {
          "fullUrl": "urn:uuid:c4c46dc5-e54b-dccd-4e40-c3c13c4a537b",
          "resource": {
              "resourceType": "DiagnosticReport",
              "id": "c4c46dc5-e54b-dccd-4e40-c3c13c4a537b",
              "identifier": [
                  {
                      "value": "EI21obx1",
                      "system": "http://example.com/v2-to-fhir-converter/Identifier/OII"
                  },
                  {
                      "type": {
                          "coding": [
                              {
                                  "code": "FILL"
                              }
                          ]
                      }
                  }
              ],
              "code": {
                  "coding": [
                      {
                          "code": "8867-4",
                          "display": "heartrate",
                          "system": "http://loinc.org"
                      }
                  ]
              },
              "effectiveDateTime": "1999-07-02",
              "status": "unknown",
              "performer": [
                  {
                      "reference": "PractitionerRole/505c291e-5ae6-8346-bfe0-2587065e410e"
                  },
                  {
                      "reference": "Organization/e2f9615a-8a86-7a34-07b8-e75842da37f0"
                  },
                  {
                      "reference": "PractitionerRole/6a5ff246-c55a-19ba-198c-0f18f6657108"
                  }
              ],
              "presentedForm": [
                  {
                      "contentType": "image/pict",
                      "url": "https://testurl.com"
                  }
              ],
              "subject": {
                  "reference": "Patient/389b3d01-dc6f-2c15-38c5-8c4e86a515c8"
              }
          },
          "request": {
              "method": "PUT",
              "url": "DiagnosticReport/c4c46dc5-e54b-dccd-4e40-c3c13c4a537b"
          }
      },
      {
          "fullUrl": "urn:uuid:6a5ff246-c55a-19ba-198c-0f18f6657108",
          "resource": {
              "resourceType": "PractitionerRole",
              "id": "6a5ff246-c55a-19ba-198c-0f18f6657108",
              "code": [
                  {
                      "coding": [
                          {
                              "code": "AD",
                              "display": "Admitting Provider",
                              "system": "http://terminology.hl7.org/CodeSystem/v2-0443"
                          }
                      ]
                  }
              ],
              "location": [
                  {
                      "reference": "Location/a68edac3-e0b6-e73c-758c-55dcc437b505"
                  }
              ],
              "organization": {
                  "reference": "Organization/52a163eb-90ba-48c4-82f3-d13ad2665faf"
              },
              "specialty": [
                  {
                      "coding": [
                          {
                              "code": "PPT"
                          }
                      ]
                  }
              ],
              "practitioner": {
                  "reference": "Practitioner/9f41cb65-0555-9b9b-f9e6-0bd3308219d9"
              }
          },
          "request": {
              "method": "PUT",
              "url": "PractitionerRole/6a5ff246-c55a-19ba-198c-0f18f6657108"
          }
      },
      {
          "fullUrl": "urn:uuid:9f41cb65-0555-9b9b-f9e6-0bd3308219d9",
          "resource": {
              "resourceType": "Practitioner",
              "id": "9f41cb65-0555-9b9b-f9e6-0bd3308219d9",
              "identifier": [
                  {
                      "value": "12188"
                  }
              ],
              "name": [
                  {
                      "family": "Hippocrates"
                  }
              ]
          },
          "request": {
              "method": "PUT",
              "url": "Practitioner/9f41cb65-0555-9b9b-f9e6-0bd3308219d9"
          }
      },
      {
          "fullUrl": "urn:uuid:a68edac3-e0b6-e73c-758c-55dcc437b505",
          "resource": {
              "resourceType": "Location",
              "id": "a68edac3-e0b6-e73c-758c-55dcc437b505",
              "name": "OBX-PID East, room 136, bed B 4E",
              "mode": "instance",
              "description": "OBX-PID East, room 136, bed B 4E--136--B--CommunityHospital--N",
              "physicalType": {
                  "coding": [
                      {
                          "system": "http://terminology.hl7.org/CodeSystem/location-physical-type",
                          "code": "lvl"
                      }
                  ]
              }
          },
          "request": {
              "method": "PUT",
              "url": "Location/a68edac3-e0b6-e73c-758c-55dcc437b505"
          }
      },
      {
          "fullUrl": "urn:uuid:2167e03e-f0ff-09ed-e088-0fc1512d6c87",
          "resource": {
              "resourceType": "Location",
              "id": "2167e03e-f0ff-09ed-e088-0fc1512d6c87",
              "partOf": {
                  "reference": "Location/a68edac3-e0b6-e73c-758c-55dcc437b505"
              },
              "name": "136",
              "mode": "instance",
              "description": "OBX-PID East, room 136, bed B 4E--136--B--CommunityHospital--N",
              "physicalType": {
                  "coding": [
                      {
                          "system": "http://terminology.hl7.org/CodeSystem/location-physical-type",
                          "code": "ro"
                      }
                  ]
              }
          },
          "request": {
              "method": "PUT",
              "url": "Location/2167e03e-f0ff-09ed-e088-0fc1512d6c87"
          }
      },
      {
          "fullUrl": "urn:uuid:e5ed238c-6b40-9aac-8e51-d5e3e041d1f3",
          "resource": {
              "resourceType": "Location",
              "id": "e5ed238c-6b40-9aac-8e51-d5e3e041d1f3",
              "partOf": {
                  "reference": "Location/2167e03e-f0ff-09ed-e088-0fc1512d6c87"
              },
              "name": "B",
              "mode": "instance",
              "description": "OBX-PID East, room 136, bed B 4E--136--B--CommunityHospital--N",
              "physicalType": {
                  "coding": [
                      {
                          "system": "http://terminology.hl7.org/CodeSystem/location-physical-type",
                          "code": "bd"
                      }
                  ]
              }
          },
          "request": {
              "method": "PUT",
              "url": "Location/e5ed238c-6b40-9aac-8e51-d5e3e041d1f3"
          }
      },
      {
          "fullUrl": "urn:uuid:7b6ac8bc-c384-ae1a-ec05-1f0916cfcfba",
          "resource": {
              "resourceType": "Location",
              "id": "7b6ac8bc-c384-ae1a-ec05-1f0916cfcfba",
              "name": "CommunityHospital",
              "mode": "instance",
              "description": "OBX-PID East, room 136, bed B 4E--136--B--CommunityHospital--N",
              "physicalType": {
                  "coding": [
                      {
                          "system": "http://terminology.hl7.org/CodeSystem/location-physical-type",
                          "code": "si"
                      }
                  ]
              }
          },
          "request": {
              "method": "PUT",
              "url": "Location/7b6ac8bc-c384-ae1a-ec05-1f0916cfcfba"
          }
      },
      {
          "fullUrl": "urn:uuid:52a163eb-90ba-48c4-82f3-d13ad2665faf",
          "resource": {
              "resourceType": "Organization",
              "id": "52a163eb-90ba-48c4-82f3-d13ad2665faf",
              "name": "Birla",
              "identifier": [
                  {
                      "value": "4544",
                      "type": {
                          "coding": [
                              {
                                  "code": "XX",
                                  "system": "http://terminology.hl7.org/CodeSystem/v2-0203"
                              }
                          ]
                      }
                  }
              ]
          },
          "request": {
              "method": "PUT",
              "url": "Organization/52a163eb-90ba-48c4-82f3-d13ad2665faf"
          }
      },
      {
          "fullUrl": "urn:uuid:11967e28-8dd4-a112-0fdc-377866bf12a0",
          "resource": {
              "resourceType": "Organization",
              "id": "11967e28-8dd4-a112-0fdc-377866bf12a0",
              "identifier": [
                  {
                      "value": "t",
                      "system": "http://example.com/v2-to-fhir-converter/Identifier/t"
                  },
                  {
                      "value": "2.16.840.1.113883.19",
                      "system": "http://example.com/v2-to-fhir-converter/Identifier/HCD",
                      "type": {
                          "coding": [
                              {
                                  "code": "HCD",
                                  "display": "The CEN Healthcare Coding Scheme Designator",
                                  "system": "http://terminology.hl7.org/CodeSystem/v2-0301"
                              }
                          ]
                      }
                  }
              ]
          },
          "request": {
              "method": "PUT",
              "url": "Organization/11967e28-8dd4-a112-0fdc-377866bf12a0"
          }
      },
      {
          "fullUrl": "urn:uuid:7452d91f-ae92-d8ce-5b4a-148be5b6538e",
          "resource": {
              "resourceType": "Organization",
              "id": "7452d91f-ae92-d8ce-5b4a-148be5b6538e",
              "identifier": [
                  {
                      "value": "AccMng",
                      "system": "http://example.com/v2-to-fhir-converter/Identifier/AccMng"
                  },
                  {
                      "value": "1.2",
                      "system": "http://example.com/v2-to-fhir-converter/Identifier/HCD",
                      "type": {
                          "coding": [
                              {
                                  "code": "HCD",
                                  "display": "The CEN Healthcare Coding Scheme Designator",
                                  "system": "http://terminology.hl7.org/CodeSystem/v2-0301"
                              }
                          ]
                      }
                  }
              ]
          },
          "request": {
              "method": "PUT",
              "url": "Organization/7452d91f-ae92-d8ce-5b4a-148be5b6538e"
          }
      },
      {
          "fullUrl": "urn:uuid:f6775f99-5279-be04-bf81-0906c81f7443",
          "resource": {
              "resourceType": "Practitioner",
              "id": "f6775f99-5279-be04-bf81-0906c81f7443",
              "identifier": [
                  {
                      "value": "1122334",
                      "system": "http://example.com/v2-to-fhir-converter/Identifier/HCD",
                      "assigner": {
                          "reference": "Organization/0ccb76ca-b97e-1c86-4617-912a6d65c1f9"
                      },
                      "type": {
                          "coding": [
                              {
                                  "code": "BR",
                                  "display": "Birth registry number",
                                  "system": "http://terminology.hl7.org/CodeSystem/v2-0203"
                              }
                          ]
                      }
                  }
              ],
              "name": [
                  {
                      "family": "Alaz",
                      "given": [
                          "Mohammed",
                          "Mahi"
                      ],
                      "suffix": [
                          "JR",
                          "MD",
                          "Al"
                      ],
                      "prefix": [
                          "Dr."
                      ],
                      "period": {
                          "start": "1924-10-10",
                          "end": "1924-10-15"
                      }
                  }
              ]
          },
          "request": {
              "method": "PUT",
              "url": "Practitioner/f6775f99-5279-be04-bf81-0906c81f7443"
          }
      },
      {
          "fullUrl": "urn:uuid:c613d7b2-525f-8c08-a7ac-b2b91486e257",
          "resource": {
              "resourceType": "Organization",
              "id": "c613d7b2-525f-8c08-a7ac-b2b91486e257",
              "identifier": [
                  {
                      "value": "TEST",
                      "system": "http://example.com/v2-to-fhir-converter/Identifier/TEST"
                  },
                  {
                      "value": "23.2",
                      "system": "http://example.com/v2-to-fhir-converter/Identifier/HCD",
                      "type": {
                          "coding": [
                              {
                                  "code": "HCD",
                                  "display": "The CEN Healthcare Coding Scheme Designator",
                                  "system": "http://terminology.hl7.org/CodeSystem/v2-0301"
                              }
                          ]
                      }
                  }
              ]
          },
          "request": {
              "method": "PUT",
              "url": "Organization/c613d7b2-525f-8c08-a7ac-b2b91486e257"
          }
      },
      {
          "fullUrl": "urn:uuid:04f8cfc8-62ca-12df-63ce-6304ef577d44",
          "resource": {
              "resourceType": "Practitioner",
              "id": "04f8cfc8-62ca-12df-63ce-6304ef577d44",
              "identifier": [
                  {
                      "value": "C006",
                      "system": "http://example.com/v2-to-fhir-converter/Identifier/HCD",
                      "assigner": {
                          "reference": "Organization/c613d7b2-525f-8c08-a7ac-b2b91486e257"
                      },
                      "type": {
                          "coding": [
                              {
                                  "code": "BA",
                                  "display": "Bank Account Number",
                                  "system": "http://terminology.hl7.org/CodeSystem/v2-0203"
                              }
                          ]
                      }
                  }
              ],
              "name": [
                  {
                      "family": "Woolfson",
                      "given": [
                          "Kathleen"
                      ],
                      "prefix": [
                          "Dr"
                      ],
                      "use": "anonymous"
                  }
              ]
          },
          "request": {
              "method": "PUT",
              "url": "Practitioner/04f8cfc8-62ca-12df-63ce-6304ef577d44"
          }
      },
      {
          "fullUrl": "urn:uuid:94d0558e-593c-7585-5525-68541f8b1064",
          "resource": {
              "resourceType": "Practitioner",
              "id": "94d0558e-593c-7585-5525-68541f8b1064",
              "identifier": [
                  {
                      "value": "C008",
                      "system": "urn:oid:1.3.6.1.4.1.44750.1.2.2",
                      "type": {
                          "coding": [
                              {
                                  "code": "BR",
                                  "display": "Birth registry number",
                                  "system": "http://terminology.hl7.org/CodeSystem/v2-0203"
                              }
                          ]
                      }
                  }
              ],
              "name": [
                  {
                      "family": "Condoc",
                      "given": [
                          "leen"
                      ],
                      "prefix": [
                          "Dr"
                      ],
                      "use": "temp"
                  }
              ]
          },
          "request": {
              "method": "PUT",
              "url": "Practitioner/94d0558e-593c-7585-5525-68541f8b1064"
          }
      },
      {
          "fullUrl": "urn:uuid:b065b233-8738-f1ec-1314-d61e4aac2c9e",
          "resource": {
              "resourceType": "Practitioner",
              "id": "b065b233-8738-f1ec-1314-d61e4aac2c9e",
              "identifier": [
                  {
                      "value": "37",
                      "system": "http://example.com/v2-to-fhir-converter/Identifier/AccMgr",
                      "type": {
                          "coding": [
                              {
                                  "code": "ANC",
                                  "display": "Account number Creditor",
                                  "system": "http://terminology.hl7.org/CodeSystem/v2-0203"
                              }
                          ]
                      }
                  }
              ],
              "name": [
                  {
                      "family": "DISNEY",
                      "given": [
                          "WALT"
                      ]
                  }
              ]
          },
          "request": {
              "method": "PUT",
              "url": "Practitioner/b065b233-8738-f1ec-1314-d61e4aac2c9e"
          }
      },
      {
          "fullUrl": "urn:uuid:a6c4db5e-d3be-c9a5-8f86-a1d3341211b6",
          "resource": {
              "resourceType": "Organization",
              "id": "a6c4db5e-d3be-c9a5-8f86-a1d3341211b6",
              "identifier": [
                  {
                      "value": "T123",
                      "system": "http://example.com/v2-to-fhir-converter/Identifier/T123"
                  },
                  {
                      "value": "urn:oid:1.3.6.1.4.1.44750.1.2.2",
                      "system": "urn:ietf:rfc:3986",
                      "type": {
                          "coding": [
                              {
                                  "code": "ISO",
                                  "display": "An International Standards Organization Object Identifier (OID), in accordance with ISO/IEC 8824. Formatted as decimal digits separated by periods; recommended limit of 64 characters",
                                  "system": "http://terminology.hl7.org/CodeSystem/v2-0301"
                              }
                          ]
                      }
                  }
              ]
          },
          "request": {
              "method": "PUT",
              "url": "Organization/a6c4db5e-d3be-c9a5-8f86-a1d3341211b6"
          }
      },
      {
          "fullUrl": "urn:uuid:84aa3f43-eefe-c16a-90e0-8ebf2306a77d",
          "resource": {
              "resourceType": "Practitioner",
              "id": "84aa3f43-eefe-c16a-90e0-8ebf2306a77d",
              "identifier": [
                  {
                      "value": "Othhel",
                      "system": "http://example.com/v2-to-fhir-converter/Identifier/HCD"
                  }
              ]
          },
          "request": {
              "method": "PUT",
              "url": "Practitioner/84aa3f43-eefe-c16a-90e0-8ebf2306a77d"
          }
      },
      {
          "fullUrl": "urn:uuid:4463618e-67d8-51a2-3a16-eca98fb40eed",
          "resource": {
              "resourceType": "Location",
              "id": "4463618e-67d8-51a2-3a16-eca98fb40eed",
              "partOf": {
                  "reference": "Location/23ee4921-bc38-53b5-c51e-af995dbaf836"
              },
              "name": "HUH AE OMU",
              "identifier": [
                  {
                      "value": "9.8",
                      "system": "http://example.com/v2-to-fhir-converter/Identifier/lp"
                  }
              ],
              "mode": "instance",
              "description": "HUH AE OMU--9.8--lp--OMU B--Bed 03--HOMERTON UNIVER--C--Homerton UH--Floor5",
              "physicalType": {
                  "coding": [
                      {
                          "system": "http://terminology.hl7.org/CodeSystem/location-physical-type",
                          "code": "lvl"
                      }
                  ]
              }
          },
          "request": {
              "method": "PUT",
              "url": "Location/4463618e-67d8-51a2-3a16-eca98fb40eed"
          }
      },
      {
          "fullUrl": "urn:uuid:289aaf02-0e3f-b916-157d-f0dc610e0e7d",
          "resource": {
              "resourceType": "Location",
              "id": "289aaf02-0e3f-b916-157d-f0dc610e0e7d",
              "partOf": {
                  "reference": "Location/4463618e-67d8-51a2-3a16-eca98fb40eed"
              },
              "name": "OMU B",
              "mode": "instance",
              "description": "HUH AE OMU--9.8--lp--OMU B--Bed 03--HOMERTON UNIVER--C--Homerton UH--Floor5",
              "physicalType": {
                  "coding": [
                      {
                          "system": "http://terminology.hl7.org/CodeSystem/location-physical-type",
                          "code": "ro"
                      }
                  ]
              }
          },
          "request": {
              "method": "PUT",
              "url": "Location/289aaf02-0e3f-b916-157d-f0dc610e0e7d"
          }
      },
      {
          "fullUrl": "urn:uuid:1ae065a7-8b28-6ce0-f551-8e0a57109878",
          "resource": {
              "resourceType": "Location",
              "id": "1ae065a7-8b28-6ce0-f551-8e0a57109878",
              "partOf": {
                  "reference": "Location/289aaf02-0e3f-b916-157d-f0dc610e0e7d"
              },
              "name": "Bed 03",
              "mode": "instance",
              "description": "HUH AE OMU--9.8--lp--OMU B--Bed 03--HOMERTON UNIVER--C--Homerton UH--Floor5",
              "physicalType": {
                  "coding": [
                      {
                          "system": "http://terminology.hl7.org/CodeSystem/location-physical-type",
                          "code": "bd"
                      }
                  ]
              }
          },
          "request": {
              "method": "PUT",
              "url": "Location/1ae065a7-8b28-6ce0-f551-8e0a57109878"
          }
      },
      {
          "fullUrl": "urn:uuid:302f5b3a-02b1-f7d8-539c-7594b631e29e",
          "resource": {
              "resourceType": "Location",
              "id": "302f5b3a-02b1-f7d8-539c-7594b631e29e",
              "name": "HOMERTON UNIVER",
              "mode": "instance",
              "description": "HUH AE OMU--9.8--lp--OMU B--Bed 03--HOMERTON UNIVER--C--Homerton UH--Floor5",
              "physicalType": {
                  "coding": [
                      {
                          "system": "http://terminology.hl7.org/CodeSystem/location-physical-type",
                          "code": "si"
                      }
                  ]
              }
          },
          "request": {
              "method": "PUT",
              "url": "Location/302f5b3a-02b1-f7d8-539c-7594b631e29e"
          }
      },
      {
          "fullUrl": "urn:uuid:96363c03-2a0c-8cb8-1a06-2e1226eb8a0e",
          "resource": {
              "resourceType": "Location",
              "id": "96363c03-2a0c-8cb8-1a06-2e1226eb8a0e",
              "partOf": {
                  "reference": "Location/302f5b3a-02b1-f7d8-539c-7594b631e29e"
              },
              "name": "Homerton UH",
              "mode": "instance",
              "description": "HUH AE OMU--9.8--lp--OMU B--Bed 03--HOMERTON UNIVER--C--Homerton UH--Floor5",
              "physicalType": {
                  "coding": [
                      {
                          "system": "http://terminology.hl7.org/CodeSystem/location-physical-type",
                          "code": "bu"
                      }
                  ]
              }
          },
          "request": {
              "method": "PUT",
              "url": "Location/96363c03-2a0c-8cb8-1a06-2e1226eb8a0e"
          }
      },
      {
          "fullUrl": "urn:uuid:23ee4921-bc38-53b5-c51e-af995dbaf836",
          "resource": {
              "resourceType": "Location",
              "id": "23ee4921-bc38-53b5-c51e-af995dbaf836",
              "partOf": {
                  "reference": "Location/96363c03-2a0c-8cb8-1a06-2e1226eb8a0e"
              },
              "name": "Floor5",
              "mode": "instance",
              "description": "HUH AE OMU--9.8--lp--OMU B--Bed 03--HOMERTON UNIVER--C--Homerton UH--Floor5",
              "physicalType": {
                  "coding": [
                      {
                          "system": "http://terminology.hl7.org/CodeSystem/location-physical-type",
                          "code": "lvl"
                      }
                  ]
              }
          },
          "request": {
              "method": "PUT",
              "url": "Location/23ee4921-bc38-53b5-c51e-af995dbaf836"
          }
      },
      {
          "fullUrl": "urn:uuid:76bb5678-ca71-a235-147f-5385b651dcd3",
          "resource": {
              "resourceType": "Location",
              "id": "76bb5678-ca71-a235-147f-5385b651dcd3",
              "name": "4 East, room 136, bed B 4E",
              "mode": "instance",
              "description": "4 East, room 136, bed B 4E--136--B--CommunityHospital--N",
              "physicalType": {
                  "coding": [
                      {
                          "system": "http://terminology.hl7.org/CodeSystem/location-physical-type",
                          "code": "lvl"
                      }
                  ]
              }
          },
          "request": {
              "method": "PUT",
              "url": "Location/76bb5678-ca71-a235-147f-5385b651dcd3"
          }
      },
      {
          "fullUrl": "urn:uuid:a81cf64e-818a-d05c-e288-6eca8ec91ab4",
          "resource": {
              "resourceType": "Location",
              "id": "a81cf64e-818a-d05c-e288-6eca8ec91ab4",
              "partOf": {
                  "reference": "Location/76bb5678-ca71-a235-147f-5385b651dcd3"
              },
              "name": "136",
              "mode": "instance",
              "description": "4 East, room 136, bed B 4E--136--B--CommunityHospital--N",
              "physicalType": {
                  "coding": [
                      {
                          "system": "http://terminology.hl7.org/CodeSystem/location-physical-type",
                          "code": "ro"
                      }
                  ]
              }
          },
          "request": {
              "method": "PUT",
              "url": "Location/a81cf64e-818a-d05c-e288-6eca8ec91ab4"
          }
      },
      {
          "fullUrl": "urn:uuid:7b9cc9f8-b3c0-b0c4-b1eb-d52b6c0ccab0",
          "resource": {
              "resourceType": "Location",
              "id": "7b9cc9f8-b3c0-b0c4-b1eb-d52b6c0ccab0",
              "partOf": {
                  "reference": "Location/a81cf64e-818a-d05c-e288-6eca8ec91ab4"
              },
              "name": "B",
              "mode": "instance",
              "description": "4 East, room 136, bed B 4E--136--B--CommunityHospital--N",
              "physicalType": {
                  "coding": [
                      {
                          "system": "http://terminology.hl7.org/CodeSystem/location-physical-type",
                          "code": "bd"
                      }
                  ]
              }
          },
          "request": {
              "method": "PUT",
              "url": "Location/7b9cc9f8-b3c0-b0c4-b1eb-d52b6c0ccab0"
          }
      },
      {
          "fullUrl": "urn:uuid:3cb09fa6-cc83-83f0-a8e4-2e09ec138b20",
          "resource": {
              "resourceType": "Location",
              "id": "3cb09fa6-cc83-83f0-a8e4-2e09ec138b20",
              "name": "CommunityHospital",
              "mode": "instance",
              "description": "4 East, room 136, bed B 4E--136--B--CommunityHospital--N",
              "physicalType": {
                  "coding": [
                      {
                          "system": "http://terminology.hl7.org/CodeSystem/location-physical-type",
                          "code": "si"
                      }
                  ]
              }
          },
          "request": {
              "method": "PUT",
              "url": "Location/3cb09fa6-cc83-83f0-a8e4-2e09ec138b20"
          }
      },
      {
          "fullUrl": "urn:uuid:b58ba2c2-58da-99e6-5d2a-e4f51ad39ac7",
          "resource": {
              "resourceType": "Location",
              "id": "b58ba2c2-58da-99e6-5d2a-e4f51ad39ac7",
              "partOf": {
                  "reference": "Location/323e3c3f-3116-a0c3-c580-d91579668bd5"
              },
              "name": "Internal Medicine",
              "mode": "instance",
              "description": "Internal Medicine--UH Hospitals--D--Briones Bone--3b",
              "physicalType": {
                  "coding": [
                      {
                          "system": "http://terminology.hl7.org/CodeSystem/location-physical-type",
                          "code": "lvl"
                      }
                  ]
              }
          },
          "request": {
              "method": "PUT",
              "url": "Location/b58ba2c2-58da-99e6-5d2a-e4f51ad39ac7"
          }
      },
      {
          "fullUrl": "urn:uuid:90d97312-73fe-6710-0f1c-8b431689a0d8",
          "resource": {
              "resourceType": "Location",
              "id": "90d97312-73fe-6710-0f1c-8b431689a0d8",
              "name": "UH Hospitals",
              "mode": "instance",
              "description": "Internal Medicine--UH Hospitals--D--Briones Bone--3b",
              "physicalType": {
                  "coding": [
                      {
                          "system": "http://terminology.hl7.org/CodeSystem/location-physical-type",
                          "code": "si"
                      }
                  ]
              }
          },
          "request": {
              "method": "PUT",
              "url": "Location/90d97312-73fe-6710-0f1c-8b431689a0d8"
          }
      },
      {
          "fullUrl": "urn:uuid:cfe626cd-52e4-b447-385d-eda1c76568af",
          "resource": {
              "resourceType": "Location",
              "id": "cfe626cd-52e4-b447-385d-eda1c76568af",
              "partOf": {
                  "reference": "Location/90d97312-73fe-6710-0f1c-8b431689a0d8"
              },
              "name": "Briones Bone",
              "mode": "instance",
              "description": "Internal Medicine--UH Hospitals--D--Briones Bone--3b",
              "physicalType": {
                  "coding": [
                      {
                          "system": "http://terminology.hl7.org/CodeSystem/location-physical-type",
                          "code": "bu"
                      }
                  ]
              }
          },
          "request": {
              "method": "PUT",
              "url": "Location/cfe626cd-52e4-b447-385d-eda1c76568af"
          }
      },
      {
          "fullUrl": "urn:uuid:323e3c3f-3116-a0c3-c580-d91579668bd5",
          "resource": {
              "resourceType": "Location",
              "id": "323e3c3f-3116-a0c3-c580-d91579668bd5",
              "partOf": {
                  "reference": "Location/cfe626cd-52e4-b447-385d-eda1c76568af"
              },
              "name": "3b",
              "mode": "instance",
              "description": "Internal Medicine--UH Hospitals--D--Briones Bone--3b",
              "physicalType": {
                  "coding": [
                      {
                          "system": "http://terminology.hl7.org/CodeSystem/location-physical-type",
                          "code": "lvl"
                      }
                  ]
              }
          },
          "request": {
              "method": "PUT",
              "url": "Location/323e3c3f-3116-a0c3-c580-d91579668bd5"
          }
      },
      {
          "fullUrl": "urn:uuid:42b81572-ebb4-3f14-7a91-e1f9a9c70460",
          "resource": {
              "resourceType": "Location",
              "id": "42b81572-ebb4-3f14-7a91-e1f9a9c70460",
              "name": "Homes",
              "identifier": [
                  {
                      "value": "22",
                      "system": "http://example.com/v2-to-fhir-converter/Identifier/FDK"
                  }
              ],
              "physicalType": {
                  "coding": [
                      {
                          "code": "si",
                          "system": "http://terminology.hl7.org/CodeSystem/location-physical-type"
                      }
                  ]
              }
          },
          "request": {
              "method": "PUT",
              "url": "Location/42b81572-ebb4-3f14-7a91-e1f9a9c70460"
          }
      },
      {
          "fullUrl": "urn:uuid:9be961d3-d02a-b454-1991-fa701628c823",
          "resource": {
              "resourceType": "Location",
              "id": "9be961d3-d02a-b454-1991-fa701628c823",
              "name": "POC",
              "mode": "instance",
              "description": "POC--Room-2--Bed-103--C--Greenland",
              "physicalType": {
                  "coding": [
                      {
                          "system": "http://terminology.hl7.org/CodeSystem/location-physical-type",
                          "code": "lvl"
                      }
                  ]
              }
          },
          "request": {
              "method": "PUT",
              "url": "Location/9be961d3-d02a-b454-1991-fa701628c823"
          }
      },
      {
          "fullUrl": "urn:uuid:1399b4cb-a4d1-3331-1d1a-6936cec4347a",
          "resource": {
              "resourceType": "Location",
              "id": "1399b4cb-a4d1-3331-1d1a-6936cec4347a",
              "partOf": {
                  "reference": "Location/9be961d3-d02a-b454-1991-fa701628c823"
              },
              "name": "Room-2",
              "mode": "instance",
              "description": "POC--Room-2--Bed-103--C--Greenland",
              "physicalType": {
                  "coding": [
                      {
                          "system": "http://terminology.hl7.org/CodeSystem/location-physical-type",
                          "code": "ro"
                      }
                  ]
              }
          },
          "request": {
              "method": "PUT",
              "url": "Location/1399b4cb-a4d1-3331-1d1a-6936cec4347a"
          }
      },
      {
          "fullUrl": "urn:uuid:8d9d8b7c-8443-1b9c-6317-3837aef34f9f",
          "resource": {
              "resourceType": "Location",
              "id": "8d9d8b7c-8443-1b9c-6317-3837aef34f9f",
              "partOf": {
                  "reference": "Location/1399b4cb-a4d1-3331-1d1a-6936cec4347a"
              },
              "name": "Bed-103",
              "mode": "instance",
              "description": "POC--Room-2--Bed-103--C--Greenland",
              "physicalType": {
                  "coding": [
                      {
                          "system": "http://terminology.hl7.org/CodeSystem/location-physical-type",
                          "code": "bd"
                      }
                  ]
              }
          },
          "request": {
              "method": "PUT",
              "url": "Location/8d9d8b7c-8443-1b9c-6317-3837aef34f9f"
          }
      },
      {
          "fullUrl": "urn:uuid:ec64ffd3-99e4-b7b0-d99d-78e3fc39e5b4",
          "resource": {
              "resourceType": "Location",
              "id": "ec64ffd3-99e4-b7b0-d99d-78e3fc39e5b4",
              "name": "Greenland",
              "mode": "instance",
              "description": "POC--Room-2--Bed-103--C--Greenland",
              "physicalType": {
                  "coding": [
                      {
                          "system": "http://terminology.hl7.org/CodeSystem/location-physical-type",
                          "code": "bu"
                      }
                  ]
              }
          },
          "request": {
              "method": "PUT",
              "url": "Location/ec64ffd3-99e4-b7b0-d99d-78e3fc39e5b4"
          }
      },
      {
          "fullUrl": "urn:uuid:91ba2e87-a4f9-aa57-068a-4f18e2b520a3",
          "resource": {
              "resourceType": "Location",
              "id": "91ba2e87-a4f9-aa57-068a-4f18e2b520a3",
              "name": "Nursing home",
              "mode": "instance",
              "description": "Nursing home--Rosewood",
              "physicalType": {
                  "coding": [
                      {
                          "system": "http://terminology.hl7.org/CodeSystem/location-physical-type",
                          "code": "lvl"
                      }
                  ]
              }
          },
          "request": {
              "method": "PUT",
              "url": "Location/91ba2e87-a4f9-aa57-068a-4f18e2b520a3"
          }
      },
      {
          "fullUrl": "urn:uuid:033948d7-f808-69f7-e150-e34433d7e74e",
          "resource": {
              "resourceType": "Location",
              "id": "033948d7-f808-69f7-e150-e34433d7e74e",
              "name": "Rosewood",
              "mode": "instance",
              "description": "Nursing home--Rosewood",
              "physicalType": {
                  "coding": [
                      {
                          "system": "http://terminology.hl7.org/CodeSystem/location-physical-type",
                          "code": "bu"
                      }
                  ]
              }
          },
          "request": {
              "method": "PUT",
              "url": "Location/033948d7-f808-69f7-e150-e34433d7e74e"
          }
      },
      {
          "fullUrl": "urn:uuid:08314073-410a-3dc7-512c-0f2d206fb59d",
          "resource": {
              "resourceType": "Organization",
              "id": "08314073-410a-3dc7-512c-0f2d206fb59d",
              "identifier": [
                  {
                      "value": "Etest",
                      "system": "http://example.com/v2-to-fhir-converter/Identifier/Etest"
                  },
                  {
                      "value": "2.16.1",
                      "system": "http://example.com/v2-to-fhir-converter/Identifier/HCD",
                      "type": {
                          "coding": [
                              {
                                  "code": "HCD",
                                  "display": "The CEN Healthcare Coding Scheme Designator",
                                  "system": "http://terminology.hl7.org/CodeSystem/v2-0301"
                              }
                          ]
                      }
                  }
              ]
          },
          "request": {
              "method": "PUT",
              "url": "Organization/08314073-410a-3dc7-512c-0f2d206fb59d"
          }
      },
      {
          "fullUrl": "urn:uuid:919a86bd-c9a1-86a7-2c9d-e34ae2559ffb",
          "resource": {
              "resourceType": "EpisodeOfCare",
              "id": "919a86bd-c9a1-86a7-2c9d-e34ae2559ffb",
              "status": "active",
              "identifier": [
                  {
                      "value": "EOC124",
                      "type": {
                          "coding": [
                              {
                                  "code": "MR",
                                  "system": "http://terminology.hl7.org/CodeSystem/v2-0203",
                                  "display": "Medical record number"
                              }
                          ]
                      },
                      "system": "http://example.com/v2-to-fhir-converter/Identifier/HCD",
                      "assigner": {
                          "reference": "Organization/08314073-410a-3dc7-512c-0f2d206fb59d"
                      }
                  }
              ],
              "patient": {
                  "reference": "Patient/389b3d01-dc6f-2c15-38c5-8c4e86a515c8"
              }
          },
          "request": {
              "method": "PUT",
              "url": "EpisodeOfCare/919a86bd-c9a1-86a7-2c9d-e34ae2559ffb"
          }
      },
      {
          "fullUrl": "urn:uuid:3a404c65-0d2a-4e7b-80a1-dda6136656e0",
          "resource": {
              "resourceType": "Encounter",
              "id": "3a404c65-0d2a-4e7b-80a1-dda6136656e0",
              "class": {
                  "code": "PRENC",
                  "display": "pre-admission",
                  "system": "http://terminology.hl7.org/CodeSystem/v3-ActCode"
              },
              "status": "finished",
              "location": [
                  {
                      "status": "planned",
                      "location": {
                          "reference": "Location/4463618e-67d8-51a2-3a16-eca98fb40eed"
                      }
                  },
                  {
                      "status": "completed",
                      "location": {
                          "reference": "Location/76bb5678-ca71-a235-147f-5385b651dcd3"
                      }
                  },
                  {
                      "status": "planned",
                      "location": {
                          "reference": "Location/b58ba2c2-58da-99e6-5d2a-e4f51ad39ac7"
                      },
                      "extension": [
                          {
                              "url": "http://hl7.org/fhir/uv/v2mappings/StructureDefinition/temporary-location",
                              "valueBoolean": true
                          }
                      ]
                  },
                  {
                      "status": "planned",
                      "location": {
                          "reference": "Location/9be961d3-d02a-b454-1991-fa701628c823"
                      }
                  },
                  {
                      "status": "completed",
                      "location": {
                          "reference": "Location/91ba2e87-a4f9-aa57-068a-4f18e2b520a3"
                      },
                      "extension": [
                          {
                              "url": "http://hl7.org/fhir/uv/v2mappings/StructureDefinition/temporary-location",
                              "valueBoolean": true
                          }
                      ]
                  }
              ],
              "type": [
                  {
                      "coding": [
                          {
                              "code": "E",
                              "display": "Emergency",
                              "system": "http://terminology.hl7.org/CodeSystem/v2-0007"
                          }
                      ]
                  }
              ],
              "hospitalization": {
                  "preAdmissionIdentifier": {
                      "value": "1234567",
                      "type": {
                          "coding": [
                              {
                                  "code": "ANON",
                                  "system": "http://terminology.hl7.org/CodeSystem/v2-0203",
                                  "display": "Anonymous identifier"
                              }
                          ]
                      },
                      "system": "http://example.com/v2-to-fhir-converter/Identifier/HCD",
                      "assigner": {
                          "reference": "Organization/11967e28-8dd4-a112-0fdc-377866bf12a0"
                      },
                      "period": {
                          "start": "1924-10-11",
                          "end": "1924-10-12"
                      }
                  },
                  "reAdmission": {
                      "coding": [
                          {
                              "code": "R",
                              "display": "Re-admission",
                              "system": "http://terminology.hl7.org/CodeSystem/v2-0092"
                          }
                      ]
                  },
                  "admitSource": {
                      "coding": [
                          {
                              "code": "NHS Provider-General (inc.A&E-this Hosp)"
                          }
                      ]
                  },
                  "dischargeDisposition": {
                      "coding": [
                          {
                              "code": "Admitted as Inpatient",
                              "display": "Sample",
                              "system": "http://example.com/v2-to-fhir-converter/CodeSystem/ACR"
                          }
                      ]
                  },
                  "dietPreference": [
                      {
                          "coding": [
                              {
                                  "code": "Vegan",
                                  "display": "Vegetarian"
                              }
                          ]
                      }
                  ],
                  "destination": {
                      "reference": "Location/42b81572-ebb4-3f14-7a91-e1f9a9c70460"
                  }
              },
              "episodeOfCare": [
                  {
                      "reference": "EpisodeOfCare/919a86bd-c9a1-86a7-2c9d-e34ae2559ffb"
                  }
              ],
              "participant": [
                  {
                      "type": [
                          {
                              "coding": [
                                  {
                                      "code": "ATND",
                                      "system": "http://terminology.hl7.org/CodeSystem/v3-ParticipationType",
                                      "display": "attender"
                                  }
                              ]
                          }
                      ],
                      "individual": {
                          "reference": "Practitioner/f6775f99-5279-be04-bf81-0906c81f7443"
                      }
                  },
                  {
                      "type": [
                          {
                              "coding": [
                                  {
                                      "code": "REF",
                                      "system": "http://terminology.hl7.org/CodeSystem/v3-ParticipationType"
                                  }
                              ],
                              "text": "referrer"
                          }
                      ],
                      "individual": {
                          "reference": "Practitioner/04f8cfc8-62ca-12df-63ce-6304ef577d44"
                      }
                  },
                  {
                      "type": [
                          {
                              "coding": [
                                  {
                                      "code": "CON",
                                      "system": "http://terminology.hl7.org/CodeSystem/v3-ParticipationType"
                                  }
                              ],
                              "text": "consultant"
                          }
                      ],
                      "individual": {
                          "reference": "Practitioner/94d0558e-593c-7585-5525-68541f8b1064"
                      }
                  },
                  {
                      "type": [
                          {
                              "coding": [
                                  {
                                      "code": "ADM",
                                      "system": "http://terminology.hl7.org/CodeSystem/v3-ParticipationType"
                                  }
                              ],
                              "text": "admitter"
                          }
                      ],
                      "individual": {
                          "reference": "Practitioner/b065b233-8738-f1ec-1314-d61e4aac2c9e"
                      }
                  },
                  {
                      "type": [
                          {
                              "coding": [
                                  {
                                      "code": "PART",
                                      "system": "http://terminology.hl7.org/CodeSystem/v3-ParticipationType"
                                  }
                              ],
                              "text": "Participation"
                          }
                      ],
                      "individual": {
                          "reference": "Practitioner/84aa3f43-eefe-c16a-90e0-8ebf2306a77d"
                      }
                  },
                  {
                      "individual": {
                          "reference": "PractitionerRole/a5f0bdc4-b66f-16e6-6ef7-dd08e12ab9ec"
                      }
                  }
              ],
              "serviceType": {
                  "coding": [
                      {
                          "code": "SUR"
                      }
                  ]
              },
              "identifier": [
                  {
                      "value": "40007716",
                      "system": "http://example.com/v2-to-fhir-converter/Identifier/HCD",
                      "assigner": {
                          "reference": "Organization/7452d91f-ae92-d8ce-5b4a-148be5b6538e"
                      },
                      "type": {
                          "coding": [
                              {
                                  "code": "VN",
                                  "system": "http://terminology.hl7.org/CodeSystem/v2-0203"
                              }
                          ],
                          "text": "visit number"
                      }
                  },
                  {
                      "value": "50",
                      "type": {
                          "coding": [
                              {
                                  "code": "MR",
                                  "system": "http://terminology.hl7.org/CodeSystem/v2-0203",
                                  "display": "Medical record number"
                              }
                          ]
                      },
                      "system": "urn:oid:1.3.6.1.4.1.44750.1.2.2",
                      "assigner": {
                          "reference": "Organization/a6c4db5e-d3be-c9a5-8f86-a1d3341211b6"
                      }
                  }
              ],
              "period": {
                  "start": "2015-02-08T15:54:19+05:30",
                  "end": "2015-02-09T15:54:19+05:30"
              },
              "text": {
                  "status": "generated",
                  "div": "<div xmlns=\"http://www.w3.org/1999/xhtml\"><p><span>Visit Description: </span></p></div>"
              },
              "subject": {
                  "reference": "Patient/389b3d01-dc6f-2c15-38c5-8c4e86a515c8"
              }
          },
          "request": {
              "method": "PUT",
              "url": "Encounter/3a404c65-0d2a-4e7b-80a1-dda6136656e0"
          }
      },
      {
          "fullUrl": "urn:uuid:a5f0bdc4-b66f-16e6-6ef7-dd08e12ab9ec",
          "resource": {
              "resourceType": "PractitionerRole",
              "id": "a5f0bdc4-b66f-16e6-6ef7-dd08e12ab9ec",
              "code": [
                  {
                      "coding": [
                          {
                              "code": "AD",
                              "display": "Admitting Provider",
                              "system": "http://terminology.hl7.org/CodeSystem/v2-0443"
                          }
                      ]
                  }
              ],
              "location": [
                  {
                      "reference": "Location/c26f9e96-fb92-a410-a6f1-fea1a893c168"
                  }
              ],
              "organization": {
                  "reference": "Organization/cbecf6d5-313b-f258-2f99-6cd97a7bf2e6"
              },
              "specialty": [
                  {
                      "coding": [
                          {
                              "code": "PPT"
                          }
                      ]
                  }
              ],
              "practitioner": {
                  "reference": "Practitioner/4c908fd7-ff14-819a-686d-992606d8a746"
              }
          },
          "request": {
              "method": "PUT",
              "url": "PractitionerRole/a5f0bdc4-b66f-16e6-6ef7-dd08e12ab9ec"
          }
      },
      {
          "fullUrl": "urn:uuid:4c908fd7-ff14-819a-686d-992606d8a746",
          "resource": {
              "resourceType": "Practitioner",
              "id": "4c908fd7-ff14-819a-686d-992606d8a746",
              "identifier": [
                  {
                      "value": "188"
                  }
              ],
              "name": [
                  {
                      "family": "John"
                  }
              ]
          },
          "request": {
              "method": "PUT",
              "url": "Practitioner/4c908fd7-ff14-819a-686d-992606d8a746"
          }
      },
      {
          "fullUrl": "urn:uuid:c26f9e96-fb92-a410-a6f1-fea1a893c168",
          "resource": {
              "resourceType": "Location",
              "id": "c26f9e96-fb92-a410-a6f1-fea1a893c168",
              "name": "4, room 136, bed B 4E",
              "mode": "instance",
              "description": "4, room 136, bed B 4E--136--B--CommunityHospital--N",
              "physicalType": {
                  "coding": [
                      {
                          "system": "http://terminology.hl7.org/CodeSystem/location-physical-type",
                          "code": "lvl"
                      }
                  ]
              }
          },
          "request": {
              "method": "PUT",
              "url": "Location/c26f9e96-fb92-a410-a6f1-fea1a893c168"
          }
      },
      {
          "fullUrl": "urn:uuid:e9dcc47c-895d-6406-1540-09c08e66b147",
          "resource": {
              "resourceType": "Location",
              "id": "e9dcc47c-895d-6406-1540-09c08e66b147",
              "partOf": {
                  "reference": "Location/c26f9e96-fb92-a410-a6f1-fea1a893c168"
              },
              "name": "136",
              "mode": "instance",
              "description": "4, room 136, bed B 4E--136--B--CommunityHospital--N",
              "physicalType": {
                  "coding": [
                      {
                          "system": "http://terminology.hl7.org/CodeSystem/location-physical-type",
                          "code": "ro"
                      }
                  ]
              }
          },
          "request": {
              "method": "PUT",
              "url": "Location/e9dcc47c-895d-6406-1540-09c08e66b147"
          }
      },
      {
          "fullUrl": "urn:uuid:f3418f93-d5cc-d8c5-7ba2-ba5aaa82d9e1",
          "resource": {
              "resourceType": "Location",
              "id": "f3418f93-d5cc-d8c5-7ba2-ba5aaa82d9e1",
              "partOf": {
                  "reference": "Location/e9dcc47c-895d-6406-1540-09c08e66b147"
              },
              "name": "B",
              "mode": "instance",
              "description": "4, room 136, bed B 4E--136--B--CommunityHospital--N",
              "physicalType": {
                  "coding": [
                      {
                          "system": "http://terminology.hl7.org/CodeSystem/location-physical-type",
                          "code": "bd"
                      }
                  ]
              }
          },
          "request": {
              "method": "PUT",
              "url": "Location/f3418f93-d5cc-d8c5-7ba2-ba5aaa82d9e1"
          }
      },
      {
          "fullUrl": "urn:uuid:c72ecabb-3189-b53d-3ce5-c6aac4d047c8",
          "resource": {
              "resourceType": "Location",
              "id": "c72ecabb-3189-b53d-3ce5-c6aac4d047c8",
              "name": "CommunityHospital",
              "mode": "instance",
              "description": "4, room 136, bed B 4E--136--B--CommunityHospital--N",
              "physicalType": {
                  "coding": [
                      {
                          "system": "http://terminology.hl7.org/CodeSystem/location-physical-type",
                          "code": "si"
                      }
                  ]
              }
          },
          "request": {
              "method": "PUT",
              "url": "Location/c72ecabb-3189-b53d-3ce5-c6aac4d047c8"
          }
      },
      {
          "fullUrl": "urn:uuid:cbecf6d5-313b-f258-2f99-6cd97a7bf2e6",
          "resource": {
              "resourceType": "Organization",
              "id": "cbecf6d5-313b-f258-2f99-6cd97a7bf2e6",
              "name": "Org-Pv1-PRT"
          },
          "request": {
              "method": "PUT",
              "url": "Organization/cbecf6d5-313b-f258-2f99-6cd97a7bf2e6"
          }
      },
      {
          "fullUrl": "urn:uuid:c9562bfa-117f-9b25-6657-9b7cff7e1674",
          "resource": {
              "resourceType": "DocumentReference",
              "id": "c9562bfa-117f-9b25-6657-9b7cff7e1674",
              "type": {
                  "coding": [
                      {
                          "code": "DIS"
                      }
                  ]
              },
              "context": {
                  "period": {
                      "start": "2010-11-10T21:33:00+05:30"
                  },
                  "related": [
                      {
                          "reference": "Practitioner/947f0d75-9af8-89a8-95bd-ff52ff01c0ca"
                      }
                  ]
              },
              "content": [
                  {
                      "attachment": {
                          "creation": "2010-11-03T03:15:00+05:30",
                          "contentType": "image/jpeg"
                      }
                  }
              ],
              "meta": {
                  "lastUpdated": "2010-11-03T17:01:00+05:30"
              },
              "author": [
                  {
                      "reference": "PractitionerRole/ad4f4bb2-0d02-6ca5-aa3b-ec7536350534"
                  },
                  {
                      "reference": "Organization/27d6dc57-0d25-ebfe-47e0-740a9602456b"
                  },
                  {
                      "reference": "Device/ed1cb569-e03b-4605-20d8-2cffb8b18260"
                  }
              ],
              "authenticator": {
                  "reference": "PractitionerRole/d584ea61-be76-cc13-dd34-14aacfeec6ce"
              },
              "masterIdentifier": {
                  "value": "018840"
              },
              "identifier": [
                  {
                      "value": "54302-DEX",
                      "type": {
                          "coding": [
                              {
                                  "system": "http://example.com/v2-to-fhir-converter/CodeSystem/identifier-type-code",
                                  "code": "DOCI",
                                  "display": "Document Unique Identifier"
                              }
                          ],
                          "text": "Document unique file name"
                      }
                  }
              ],
              "relatesTo": [
                  {
                      "code": "appends",
                      "target": {
                          "type": "DocumentReference",
                          "identifier": {
                              "value": "1307506",
                              "system": "http://example.com/v2-to-fhir-converter/Identifier/test"
                          }
                      }
                  }
              ],
              "docStatus": "preliminary",
              "securityLabel": [
                  {
                      "coding": [
                          {
                              "code": "R",
                              "system": "http://terminology.hl7.org/CodeSystem/v3-Confidentiality"
                          }
                      ]
                  }
              ],
              "status": "current",
              "category": [
                  {
                      "coding": [
                          {
                              "code": "radiology report"
                          }
                      ]
                  }
              ],
              "description": "string ofCharacters",
              "subject": {
                  "reference": "Patient/389b3d01-dc6f-2c15-38c5-8c4e86a515c8"
              }
          },
          "request": {
              "method": "PUT",
              "url": "DocumentReference/c9562bfa-117f-9b25-6657-9b7cff7e1674"
          }
      },
      {
          "fullUrl": "urn:uuid:947f0d75-9af8-89a8-95bd-ff52ff01c0ca",
          "resource": {
              "resourceType": "Practitioner",
              "id": "947f0d75-9af8-89a8-95bd-ff52ff01c0ca",
              "identifier": [
                  {
                      "value": "John Smith"
                  }
              ]
          },
          "request": {
              "method": "PUT",
              "url": "Practitioner/947f0d75-9af8-89a8-95bd-ff52ff01c0ca"
          }
      },
      {
          "fullUrl": "urn:uuid:a0aa5af5-861a-b4eb-7cdf-7e307438caac",
          "resource": {
              "resourceType": "Practitioner",
              "id": "a0aa5af5-861a-b4eb-7cdf-7e307438caac",
              "identifier": [
                  {
                      "value": "Chris Rock"
                  }
              ]
          },
          "request": {
              "method": "PUT",
              "url": "Practitioner/a0aa5af5-861a-b4eb-7cdf-7e307438caac"
          }
      },
      {
          "fullUrl": "urn:uuid:ad4f4bb2-0d02-6ca5-aa3b-ec7536350534",
          "resource": {
              "resourceType": "PractitionerRole",
              "id": "ad4f4bb2-0d02-6ca5-aa3b-ec7536350534",
              "practitioner": {
                  "reference": "Practitioner/a0aa5af5-861a-b4eb-7cdf-7e307438caac"
              }
          },
          "request": {
              "method": "PUT",
              "url": "PractitionerRole/ad4f4bb2-0d02-6ca5-aa3b-ec7536350534"
          }
      },
      {
          "fullUrl": "urn:uuid:d7921b9f-42a0-6e35-cc6e-ca15c5af36bb",
          "resource": {
              "resourceType": "Practitioner",
              "id": "d7921b9f-42a0-6e35-cc6e-ca15c5af36bb",
              "identifier": [
                  {
                      "value": "Emma Watson"
                  }
              ]
          },
          "request": {
              "method": "PUT",
              "url": "Practitioner/d7921b9f-42a0-6e35-cc6e-ca15c5af36bb"
          }
      },
      {
          "fullUrl": "urn:uuid:d584ea61-be76-cc13-dd34-14aacfeec6ce",
          "resource": {
              "resourceType": "PractitionerRole",
              "id": "d584ea61-be76-cc13-dd34-14aacfeec6ce",
              "practitioner": {
                  "reference": "Practitioner/d7921b9f-42a0-6e35-cc6e-ca15c5af36bb"
              }
          },
          "request": {
              "method": "PUT",
              "url": "PractitionerRole/d584ea61-be76-cc13-dd34-14aacfeec6ce"
          }
      },
      {
          "fullUrl": "urn:uuid:8877e882-e573-a85d-7172-b48e78842771",
          "resource": {
              "resourceType": "ServiceRequest",
              "id": "8877e882-e573-a85d-7172-b48e78842771",
              "identifier": [
                  {
                      "value": "PAI-8.1",
                      "type": {
                          "coding": [
                              {
                                  "code": "PLAC",
                                  "system": "http://terminology.hl7.org/CodeSystem/v2-0203"
                              }
                          ]
                      }
                  },
                  {
                      "value": "FAI-8.2",
                      "type": {
                          "coding": [
                              {
                                  "code": "FILL",
                                  "system": "http://terminology.hl7.org/CodeSystem/v2-0203"
                              }
                          ]
                      }
                  },
                  {
                      "type": {
                          "coding": [
                              {
                                  "code": "PUSI",
                                  "display": "parent Identifier",
                                  "system": "http://example.com/v2-to-fhir-converter/CodeSystem/AR"
                              }
                          ]
                      }
                  }
              ],
              "status": "completed",
              "intent": "filler-order",
              "subject": {
                  "reference": "Patient/389b3d01-dc6f-2c15-38c5-8c4e86a515c8"
              }
          },
          "request": {
              "method": "PUT",
              "url": "ServiceRequest/8877e882-e573-a85d-7172-b48e78842771"
          }
      },
      {
          "fullUrl": "urn:uuid:805f1b25-f43a-3bca-8bbd-49d530107363",
          "resource": {
              "resourceType": "ServiceRequest",
              "id": "805f1b25-f43a-3bca-8bbd-49d530107363",
              "status": "completed",
              "intent": "filler-order",
              "orderDetail": [
                  {
                      "coding": [
                          {
                              "code": "PSS-46",
                              "display": "Placer service",
                              "system": "http://example.com/v2-to-fhir-converter/CodeSystem/L"
                          }
                      ]
                  },
                  {
                      "coding": [
                          {
                              "code": "FSS-47",
                              "display": "Filler service",
                              "system": "http://example.com/v2-to-fhir-converter/CodeSystem/L"
                          }
                      ]
                  }
              ],
              "identifier": [
                  {
                      "value": "845439",
                      "system": "http://example.com/v2-to-fhir-converter/Identifier/GHH-OE",
                      "type": {
                          "coding": [
                              {
                                  "code": "PLAC",
                                  "system": "http://terminology.hl7.org/CodeSystem/v2-0203"
                              }
                          ]
                      }
                  },
                  {
                      "value": "986",
                      "system": "urn:oid:2.16.840.1.114222.4.3.3.5.1.2",
                      "type": {
                          "coding": [
                              {
                                  "code": "FILL",
                                  "system": "http://terminology.hl7.org/CodeSystem/v2-0203"
                              }
                          ]
                      }
                  },
                  {
                      "value": "PGN-04",
                      "type": {
                          "coding": [
                              {
                                  "code": "PGN",
                                  "system": "http://terminology.hl7.org/CodeSystem/v2-0203"
                              }
                          ]
                      }
                  },
                  {
                      "value": "APON-53",
                      "type": {
                          "coding": [
                              {
                                  "code": "PLAC",
                                  "system": "http://terminology.hl7.org/CodeSystem/v2-0203"
                              }
                          ]
                      }
                  }
              ],
              "authoredOn": "2020-09-10T20:15:00+05:30",
              "basedOn": [
                  {
                      "reference": "ServiceRequest/8877e882-e573-a85d-7172-b48e78842771"
                  }
              ],
              "locationCode": [
                  {
                      "coding": [
                          {
                              "code": "BLB",
                              "system": "http://terminology.hl7.org/CodeSystem/v2-0074"
                          }
                      ]
                  },
                  {
                      "coding": [
                          {
                              "code": "OF",
                              "display": "Outpatient facility",
                              "system": "http://terminology.hl7.org/CodeSystem/v3-RoleCode"
                          }
                      ]
                  }
              ],
              "note": [
                  {
                      "text": "Placer 1",
                      "authorString": "Placer Field 1"
                  },
                  {
                      "text": "Placer 2",
                      "authorString": "Placer Field 2"
                  },
                  {
                      "text": "Filler 1",
                      "authorString": "Filler Field 1"
                  },
                  {
                      "text": "Filler 2",
                      "authorString": "Filler Field 2"
                  },
                  {
                      "text": "Enteric culture includes testing for Salmonella, Shigella, Campylobacter, Yersinia, E.coli O157:H7 & other STECs, and Aeromonas"
                  },
                  {
                      "text": "Allergy to peanuts observed.",
                      "time": "2020-10-10T19:15:00+05:30",
                      "authorReference": {
                          "reference": "Practitioner/6c9ea0f5-1b45-04f9-e07d-bae5096b7a4a"
                      }
                  },
                  {
                      "text": "Please follow the text instructions"
                  }
              ],
              "priority": "asap",
              "code": {
                  "coding": [
                      {
                          "code": "625-4",
                          "display": "Bacteria identified in Stool by Culture",
                          "system": "http://example.com/v2-to-fhir-converter/CodeSystem/XYZ",
                          "version": "2.33"
                      }
                  ],
                  "text": "Enteric Culture"
              },
              "reasonCode": [
                  {
                      "coding": [
                          {
                              "code": "444",
                              "display": "Reason for study",
                              "system": "http://example.com/v2-to-fhir-converter/CodeSystem/L",
                              "version": "MD"
                          }
                      ]
                  }
              ],
              "subject": {
                  "reference": "Patient/389b3d01-dc6f-2c15-38c5-8c4e86a515c8"
              },
              "reasonReference": [
                  {
                      "reference": "DocumentReference/c9562bfa-117f-9b25-6657-9b7cff7e1674"
                  }
              ],
              "requester": {
                  "reference": "PractitionerRole/beeb9a6e-29ec-7926-4f50-287c7ce3a1f5"
              },
              "specimen": [
                  {
                      "reference": "Specimen/95c9f253-3bac-cf73-202b-907e4e997489"
                  }
              ],
              "supportingInfo": [
                  {
                      "reference": "Organization/40dd4b0b-a158-82ec-9563-5f28a69df71b"
                  },
                  {
                      "reference": "Device/32424199-272b-4aaa-6709-07bd28380c84"
                  },
                  {
                      "reference": "Device/d6c5dfd2-8713-ab47-861e-afc5d9799fc6"
                  },
                  {
                      "reference": "ResearchStudy/16f5c983-f4f6-d905-94ea-688e4ef9ab17"
                  }
              ],
              "locationReference": [
                  {
                      "reference": "Location/dde1214b-8eaf-74c9-d073-447fe599c4ef"
                  }
              ],
              "asNeededCodeableConcept": {
                  "text": "This is condition text"
              },
              "quantityQuantity": {
                  "value": 54,
                  "unit": "lbs"
              },
              "occurrenceTiming": {
                  "code": {
                      "coding": [
                          {
                              "code": "P",
                              "display": "Post (after)",
                              "system": "http://terminology.hl7.org/CodeSystem/v2-0335"
                          }
                      ]
                  },
                  "repeat": {
                      "period": 12,
                      "periodUnit": "min",
                      "when": [
                          "PC"
                      ],
                      "offset": 2,
                      "boundsPeriod": {
                          "start": "2021-10-10T05:30:00+05:30",
                          "end": "2021-11-10T05:30:00+05:30"
                      },
                      "duration": 2,
                      "durationUnit": "h",
                      "count": 5
                  }
              }
          },
          "request": {
              "method": "PUT",
              "url": "ServiceRequest/805f1b25-f43a-3bca-8bbd-49d530107363"
          }
      },
      {
          "fullUrl": "urn:uuid:58e7269f-6c76-d387-8454-ff4b18a7fccd",
          "resource": {
              "resourceType": "Organization",
              "id": "58e7269f-6c76-d387-8454-ff4b18a7fccd",
              "name": "MISSOURI DEPARTMENT OF HEALTH LABORATORY - MISSOURI DEPARTMENT OF HEALTH LABORATORY",
              "address": [
                  {
                      "line": [
                          "307 W MCCARTY ST"
                      ],
                      "city": "JEFFERSON CITY",
                      "state": "MO",
                      "postalCode": "65101",
                      "country": "USA",
                      "use": "work"
                  }
              ],
              "contact": [
                  {
                      "telecom": [
                          {
                              "use": "work",
                              "system": "phone"
                          }
                      ]
                  }
              ]
          },
          "request": {
              "method": "PUT",
              "url": "Organization/58e7269f-6c76-d387-8454-ff4b18a7fccd"
          }
      },
      {
          "fullUrl": "urn:uuid:beeb9a6e-29ec-7926-4f50-287c7ce3a1f5",
          "resource": {
              "resourceType": "PractitionerRole",
              "id": "beeb9a6e-29ec-7926-4f50-287c7ce3a1f5",
              "organization": {
                  "reference": "Organization/58e7269f-6c76-d387-8454-ff4b18a7fccd"
              }
          },
          "request": {
              "method": "PUT",
              "url": "PractitionerRole/beeb9a6e-29ec-7926-4f50-287c7ce3a1f5"
          }
      },
      {
          "fullUrl": "urn:uuid:df03b003-6818-1abd-209e-0889025aad16",
          "resource": {
              "resourceType": "Organization",
              "id": "df03b003-6818-1abd-209e-0889025aad16",
              "identifier": [
                  {
                      "value": "NPIID",
                      "system": "http://example.com/v2-to-fhir-converter/Identifier/NPIID"
                  },
                  {
                      "value": "urn:oid:2.16.840.1.113883.4.6",
                      "system": "urn:ietf:rfc:3986",
                      "type": {
                          "coding": [
                              {
                                  "code": "ISO",
                                  "display": "An International Standards Organization Object Identifier (OID), in accordance with ISO/IEC 8824. Formatted as decimal digits separated by periods; recommended limit of 64 characters",
                                  "system": "http://terminology.hl7.org/CodeSystem/v2-0301"
                              }
                          ]
                      }
                  }
              ]
          },
          "request": {
              "method": "PUT",
              "url": "Organization/df03b003-6818-1abd-209e-0889025aad16"
          }
      },
      {
          "fullUrl": "urn:uuid:6c9ea0f5-1b45-04f9-e07d-bae5096b7a4a",
          "resource": {
              "resourceType": "Practitioner",
              "id": "6c9ea0f5-1b45-04f9-e07d-bae5096b7a4a",
              "identifier": [
                  {
                      "value": "9941339108",
                      "system": "urn:oid:2.16.840.1.113883.4.6",
                      "assigner": {
                          "reference": "Organization/df03b003-6818-1abd-209e-0889025aad16"
                      },
                      "type": {
                          "coding": [
                              {
                                  "code": "NPI",
                                  "display": "National provider identifier",
                                  "system": "http://terminology.hl7.org/CodeSystem/v2-0203"
                              }
                          ]
                      }
                  }
              ],
              "name": [
                  {
                      "family": "Smith",
                      "given": [
                          "Adam",
                          "Mellie"
                      ],
                      "suffix": [
                          "Jr",
                          "MD",
                          "GP"
                      ],
                      "prefix": [
                          "Dr"
                      ],
                      "use": "official",
                      "period": {
                          "start": "2010-01-15",
                          "end": "2020-01-15"
                      }
                  }
              ]
          },
          "request": {
              "method": "PUT",
              "url": "Practitioner/6c9ea0f5-1b45-04f9-e07d-bae5096b7a4a"
          }
      },
      {
          "fullUrl": "urn:uuid:dbcb1b2a-6b6c-3b26-2bd9-20dde24f9cdb",
          "resource": {
              "resourceType": "Practitioner",
              "id": "dbcb1b2a-6b6c-3b26-2bd9-20dde24f9cdb",
              "identifier": [
                  {
                      "value": "Harry"
                  }
              ],
              "name": [
                  {
                      "family": "Raud",
                      "given": [
                          "Geny"
                      ],
                      "suffix": [
                          "Mr."
                      ],
                      "prefix": [
                          "Dr."
                      ]
                  }
              ]
          },
          "request": {
              "method": "PUT",
              "url": "Practitioner/dbcb1b2a-6b6c-3b26-2bd9-20dde24f9cdb"
          }
      },
      {
          "fullUrl": "urn:uuid:8182cb21-0236-09c6-937c-c04615216e29",
          "resource": {
              "resourceType": "PractitionerRole",
              "id": "8182cb21-0236-09c6-937c-c04615216e29",
              "location": [
                  {
                      "reference": "Location/f120dcaf-8a79-00e0-4045-9383d82935b6"
                  }
              ],
              "practitioner": {
                  "reference": "Practitioner/dbcb1b2a-6b6c-3b26-2bd9-20dde24f9cdb"
              }
          },
          "request": {
              "method": "PUT",
              "url": "PractitionerRole/8182cb21-0236-09c6-937c-c04615216e29"
          }
      },
      {
          "fullUrl": "urn:uuid:f120dcaf-8a79-00e0-4045-9383d82935b6",
          "resource": {
              "resourceType": "Location",
              "id": "f120dcaf-8a79-00e0-4045-9383d82935b6",
              "partOf": {
                  "reference": "Location/f7028223-0ee3-7152-e027-07bb5b0224ac"
              },
              "name": "Poc-32",
              "mode": "instance",
              "description": "Harry--Raud--Geny--Mr.--Dr.--Poc-32--Room-4--Bed3--Facility-3--1.2--ISO--Building-4--FL-2",
              "physicalType": {
                  "coding": [
                      {
                          "system": "http://terminology.hl7.org/CodeSystem/location-physical-type",
                          "code": "lvl"
                      }
                  ]
              }
          },
          "request": {
              "method": "PUT",
              "url": "Location/f120dcaf-8a79-00e0-4045-9383d82935b6"
          }
      },
      {
          "fullUrl": "urn:uuid:2732e881-cd1e-fe71-a03e-521f112a1e7d",
          "resource": {
              "resourceType": "Location",
              "id": "2732e881-cd1e-fe71-a03e-521f112a1e7d",
              "partOf": {
                  "reference": "Location/f120dcaf-8a79-00e0-4045-9383d82935b6"
              },
              "name": "Room-4",
              "mode": "instance",
              "description": "Harry--Raud--Geny--Mr.--Dr.--Poc-32--Room-4--Bed3--Facility-3--1.2--ISO--Building-4--FL-2",
              "physicalType": {
                  "coding": [
                      {
                          "system": "http://terminology.hl7.org/CodeSystem/location-physical-type",
                          "code": "ro"
                      }
                  ]
              }
          },
          "request": {
              "method": "PUT",
              "url": "Location/2732e881-cd1e-fe71-a03e-521f112a1e7d"
          }
      },
      {
          "fullUrl": "urn:uuid:faa87bc6-7206-7406-fe54-24bab9877eb3",
          "resource": {
              "resourceType": "Location",
              "id": "faa87bc6-7206-7406-fe54-24bab9877eb3",
              "partOf": {
                  "reference": "Location/2732e881-cd1e-fe71-a03e-521f112a1e7d"
              },
              "name": "Bed3",
              "mode": "instance",
              "description": "Harry--Raud--Geny--Mr.--Dr.--Poc-32--Room-4--Bed3--Facility-3--1.2--ISO--Building-4--FL-2",
              "physicalType": {
                  "coding": [
                      {
                          "system": "http://terminology.hl7.org/CodeSystem/location-physical-type",
                          "code": "bd"
                      }
                  ]
              }
          },
          "request": {
              "method": "PUT",
              "url": "Location/faa87bc6-7206-7406-fe54-24bab9877eb3"
          }
      },
      {
          "fullUrl": "urn:uuid:739b2979-f712-b0f4-daad-acefae9b4feb",
          "resource": {
              "resourceType": "Location",
              "id": "739b2979-f712-b0f4-daad-acefae9b4feb",
              "name": "Facility-3",
              "identifier": [
                  {
                      "value": "urn:oid:1.2",
                      "system": "urn:ietf:rfc:3986"
                  }
              ],
              "mode": "instance",
              "description": "Harry--Raud--Geny--Mr.--Dr.--Poc-32--Room-4--Bed3--Facility-3--1.2--ISO--Building-4--FL-2",
              "physicalType": {
                  "coding": [
                      {
                          "system": "http://terminology.hl7.org/CodeSystem/location-physical-type",
                          "code": "si"
                      }
                  ]
              }
          },
          "request": {
              "method": "PUT",
              "url": "Location/739b2979-f712-b0f4-daad-acefae9b4feb"
          }
      },
      {
          "fullUrl": "urn:uuid:8f787230-6d25-6e0e-db3d-96fd13a2d66c",
          "resource": {
              "resourceType": "Location",
              "id": "8f787230-6d25-6e0e-db3d-96fd13a2d66c",
              "partOf": {
                  "reference": "Location/739b2979-f712-b0f4-daad-acefae9b4feb"
              },
              "name": "Building-4",
              "mode": "instance",
              "description": "Harry--Raud--Geny--Mr.--Dr.--Poc-32--Room-4--Bed3--Facility-3--1.2--ISO--Building-4--FL-2",
              "physicalType": {
                  "coding": [
                      {
                          "system": "http://terminology.hl7.org/CodeSystem/location-physical-type",
                          "code": "bu"
                      }
                  ]
              }
          },
          "request": {
              "method": "PUT",
              "url": "Location/8f787230-6d25-6e0e-db3d-96fd13a2d66c"
          }
      },
      {
          "fullUrl": "urn:uuid:f7028223-0ee3-7152-e027-07bb5b0224ac",
          "resource": {
              "resourceType": "Location",
              "id": "f7028223-0ee3-7152-e027-07bb5b0224ac",
              "partOf": {
                  "reference": "Location/8f787230-6d25-6e0e-db3d-96fd13a2d66c"
              },
              "name": "FL-2",
              "mode": "instance",
              "description": "Harry--Raud--Geny--Mr.--Dr.--Poc-32--Room-4--Bed3--Facility-3--1.2--ISO--Building-4--FL-2",
              "physicalType": {
                  "coding": [
                      {
                          "system": "http://terminology.hl7.org/CodeSystem/location-physical-type",
                          "code": "lvl"
                      }
                  ]
              }
          },
          "request": {
              "method": "PUT",
              "url": "Location/f7028223-0ee3-7152-e027-07bb5b0224ac"
          }
      },
      {
          "resource": {
              "resourceType": "DiagnosticReport",
              "id": "3c202c0c-e3eb-2262-23c1-e1f328a0bbe4",
              "resultsInterpreter": [
                  {
                      "reference": "PractitionerRole/8182cb21-0236-09c6-937c-c04615216e29"
                  }
              ],
              "identifier": [
                  {
                      "value": "845439",
                      "system": "http://example.com/v2-to-fhir-converter/Identifier/GHH-OE",
                      "type": {
                          "coding": [
                              {
                                  "code": "PLAC",
                                  "system": "http://terminology.hl7.org/CodeSystem/v2-0203"
                              }
                          ]
                      }
                  },
                  {
                      "value": "986",
                      "system": "urn:oid:2.16.840.1.114222.4.3.3.5.1.2",
                      "type": {
                          "coding": [
                              {
                                  "code": "FILL",
                                  "system": "http://terminology.hl7.org/CodeSystem/v2-0203"
                              }
                          ]
                      }
                  },
                  {
                      "value": "PGN-04",
                      "type": {
                          "coding": [
                              {
                                  "code": "PGN",
                                  "system": "http://terminology.hl7.org/CodeSystem/v2-0203"
                              }
                          ]
                      }
                  }
              ],
              "effectiveDateTime": "2002-02-15T10:45:00+05:30",
              "code": {
                  "coding": [
                      {
                          "code": "625-4",
                          "display": "Bacteria identified in Stool by Culture",
                          "system": "http://example.com/v2-to-fhir-converter/CodeSystem/XYZ",
                          "version": "2.33"
                      }
                  ],
                  "text": "Enteric Culture"
              },
              "issued": "2002-03-15T10:45:00+05:30",
              "category": [
                  {
                      "coding": [
                          {
                              "code": "BLB",
                              "system": "http://terminology.hl7.org/CodeSystem/v2-0074"
                          }
                      ]
                  }
              ],
              "status": "final",
              "performer": [
                  {
                      "reference": "PractitionerRole/6f4104a9-6928-bcaf-7719-2fb47f0c2df5"
                  },
                  {
                      "reference": "PractitionerRole/f035eb01-dd52-98c8-42f4-08d3a63e5aa2"
                  }
              ],
              "subject": {
                  "reference": "Patient/389b3d01-dc6f-2c15-38c5-8c4e86a515c8"
              },
              "basedOn": [
                  {
                      "reference": "ServiceRequest/805f1b25-f43a-3bca-8bbd-49d530107363"
                  }
              ],
              "specimen": [
                  {
                      "reference": "Specimen/95c9f253-3bac-cf73-202b-907e4e997489"
                  }
              ],
              "result": [
                  {
                      "reference": "Observation/cdbf1614-4191-7f8c-d914-c071cc2a44bc"
                  }
              ]
          },
          "fullUrl": "urn:uuid:3c202c0c-e3eb-2262-23c1-e1f328a0bbe4",
          "request": {
              "method": "PUT",
              "url": "DiagnosticReport/3c202c0c-e3eb-2262-23c1-e1f328a0bbe4"
          }
      },
      {
          "fullUrl": "urn:uuid:8c441677-2d13-b04b-260c-45f02d79bc0e",
          "resource": {
              "resourceType": "Practitioner",
              "id": "8c441677-2d13-b04b-260c-45f02d79bc0e",
              "identifier": [
                  {
                      "value": "Richa"
                  }
              ],
              "name": [
                  {
                      "suffix": [
                          "Mr."
                      ],
                      "prefix": [
                          "Md."
                      ]
                  }
              ]
          },
          "request": {
              "method": "PUT",
              "url": "Practitioner/8c441677-2d13-b04b-260c-45f02d79bc0e"
          }
      },
      {
          "fullUrl": "urn:uuid:6f4104a9-6928-bcaf-7719-2fb47f0c2df5",
          "resource": {
              "resourceType": "PractitionerRole",
              "id": "6f4104a9-6928-bcaf-7719-2fb47f0c2df5",
              "code": [
                  {
                      "coding": [
                          {
                              "code": "TN",
                              "display": "Technician",
                              "system": "http://terminology.hl7.org/CodeSystem/v2-0443"
                          }
                      ]
                  }
              ],
              "location": [
                  {
                      "reference": "Location/59b00d6f-7e90-a8a3-eec1-19d7f88514ea"
                  }
              ],
              "practitioner": {
                  "reference": "Practitioner/8c441677-2d13-b04b-260c-45f02d79bc0e"
              }
          },
          "request": {
              "method": "PUT",
              "url": "PractitionerRole/6f4104a9-6928-bcaf-7719-2fb47f0c2df5"
          }
      },
      {
          "fullUrl": "urn:uuid:59b00d6f-7e90-a8a3-eec1-19d7f88514ea",
          "resource": {
              "resourceType": "Location",
              "id": "59b00d6f-7e90-a8a3-eec1-19d7f88514ea",
              "partOf": {
                  "reference": "Location/419f9823-93d6-9783-fc89-e37418b9f4cb"
              },
              "name": "Poc-34",
              "mode": "instance",
              "description": "Richa--Mr.--Md.--Poc-34--Rm-4--Bed2--Facility-4--1.22--ISO--Building-3--FL-3",
              "physicalType": {
                  "coding": [
                      {
                          "system": "http://terminology.hl7.org/CodeSystem/location-physical-type",
                          "code": "lvl"
                      }
                  ]
              }
          },
          "request": {
              "method": "PUT",
              "url": "Location/59b00d6f-7e90-a8a3-eec1-19d7f88514ea"
          }
      },
      {
          "fullUrl": "urn:uuid:c5fb4a94-3953-175e-8c5f-af620ce4dab3",
          "resource": {
              "resourceType": "Location",
              "id": "c5fb4a94-3953-175e-8c5f-af620ce4dab3",
              "partOf": {
                  "reference": "Location/59b00d6f-7e90-a8a3-eec1-19d7f88514ea"
              },
              "name": "Rm-4",
              "mode": "instance",
              "description": "Richa--Mr.--Md.--Poc-34--Rm-4--Bed2--Facility-4--1.22--ISO--Building-3--FL-3",
              "physicalType": {
                  "coding": [
                      {
                          "system": "http://terminology.hl7.org/CodeSystem/location-physical-type",
                          "code": "ro"
                      }
                  ]
              }
          },
          "request": {
              "method": "PUT",
              "url": "Location/c5fb4a94-3953-175e-8c5f-af620ce4dab3"
          }
      },
      {
          "fullUrl": "urn:uuid:a66a65b5-fb3e-d5cc-deaa-2c7dd809fedb",
          "resource": {
              "resourceType": "Location",
              "id": "a66a65b5-fb3e-d5cc-deaa-2c7dd809fedb",
              "partOf": {
                  "reference": "Location/c5fb4a94-3953-175e-8c5f-af620ce4dab3"
              },
              "name": "Bed2",
              "mode": "instance",
              "description": "Richa--Mr.--Md.--Poc-34--Rm-4--Bed2--Facility-4--1.22--ISO--Building-3--FL-3",
              "physicalType": {
                  "coding": [
                      {
                          "system": "http://terminology.hl7.org/CodeSystem/location-physical-type",
                          "code": "bd"
                      }
                  ]
              }
          },
          "request": {
              "method": "PUT",
              "url": "Location/a66a65b5-fb3e-d5cc-deaa-2c7dd809fedb"
          }
      },
      {
          "fullUrl": "urn:uuid:6bfb18a9-f219-312a-ee80-9e291ef76221",
          "resource": {
              "resourceType": "Location",
              "id": "6bfb18a9-f219-312a-ee80-9e291ef76221",
              "name": "Facility-4",
              "identifier": [
                  {
                      "value": "urn:oid:1.22",
                      "system": "urn:ietf:rfc:3986"
                  }
              ],
              "mode": "instance",
              "description": "Richa--Mr.--Md.--Poc-34--Rm-4--Bed2--Facility-4--1.22--ISO--Building-3--FL-3",
              "physicalType": {
                  "coding": [
                      {
                          "system": "http://terminology.hl7.org/CodeSystem/location-physical-type",
                          "code": "si"
                      }
                  ]
              }
          },
          "request": {
              "method": "PUT",
              "url": "Location/6bfb18a9-f219-312a-ee80-9e291ef76221"
          }
      },
      {
          "fullUrl": "urn:uuid:0d82ce59-bb51-650a-f3fa-c6497491502f",
          "resource": {
              "resourceType": "Location",
              "id": "0d82ce59-bb51-650a-f3fa-c6497491502f",
              "partOf": {
                  "reference": "Location/6bfb18a9-f219-312a-ee80-9e291ef76221"
              },
              "name": "Building-3",
              "mode": "instance",
              "description": "Richa--Mr.--Md.--Poc-34--Rm-4--Bed2--Facility-4--1.22--ISO--Building-3--FL-3",
              "physicalType": {
                  "coding": [
                      {
                          "system": "http://terminology.hl7.org/CodeSystem/location-physical-type",
                          "code": "bu"
                      }
                  ]
              }
          },
          "request": {
              "method": "PUT",
              "url": "Location/0d82ce59-bb51-650a-f3fa-c6497491502f"
          }
      },
      {
          "fullUrl": "urn:uuid:419f9823-93d6-9783-fc89-e37418b9f4cb",
          "resource": {
              "resourceType": "Location",
              "id": "419f9823-93d6-9783-fc89-e37418b9f4cb",
              "partOf": {
                  "reference": "Location/0d82ce59-bb51-650a-f3fa-c6497491502f"
              },
              "name": "FL-3",
              "mode": "instance",
              "description": "Richa--Mr.--Md.--Poc-34--Rm-4--Bed2--Facility-4--1.22--ISO--Building-3--FL-3",
              "physicalType": {
                  "coding": [
                      {
                          "system": "http://terminology.hl7.org/CodeSystem/location-physical-type",
                          "code": "lvl"
                      }
                  ]
              }
          },
          "request": {
              "method": "PUT",
              "url": "Location/419f9823-93d6-9783-fc89-e37418b9f4cb"
          }
      },
      {
          "fullUrl": "urn:uuid:c6073275-8b6b-8315-211c-f96e9700b6ae",
          "resource": {
              "resourceType": "Practitioner",
              "id": "c6073275-8b6b-8315-211c-f96e9700b6ae",
              "identifier": [
                  {
                      "value": "35"
                  }
              ],
              "name": [
                  {
                      "family": "Samuel"
                  }
              ]
          },
          "request": {
              "method": "PUT",
              "url": "Practitioner/c6073275-8b6b-8315-211c-f96e9700b6ae"
          }
      },
      {
          "fullUrl": "urn:uuid:f035eb01-dd52-98c8-42f4-08d3a63e5aa2",
          "resource": {
              "resourceType": "PractitionerRole",
              "id": "f035eb01-dd52-98c8-42f4-08d3a63e5aa2",
              "code": [
                  {
                      "coding": [
                          {
                              "code": "TR",
                              "display": "Transcriptionist",
                              "system": "http://terminology.hl7.org/CodeSystem/v2-0443"
                          }
                      ]
                  }
              ],
              "period": {
                  "start": "2002-11-11",
                  "end": "2002-11-12"
              },
              "location": [
                  {
                      "reference": "Location/ce40a46d-eaed-b5a4-ef6e-463cae637157"
                  }
              ],
              "practitioner": {
                  "reference": "Practitioner/c6073275-8b6b-8315-211c-f96e9700b6ae"
              }
          },
          "request": {
              "method": "PUT",
              "url": "PractitionerRole/f035eb01-dd52-98c8-42f4-08d3a63e5aa2"
          }
      },
      {
          "fullUrl": "urn:uuid:ce40a46d-eaed-b5a4-ef6e-463cae637157",
          "resource": {
              "resourceType": "Location",
              "id": "ce40a46d-eaed-b5a4-ef6e-463cae637157",
              "name": "Area23",
              "mode": "instance",
              "description": "35--Samuel--20021111--20021112--Area23",
              "physicalType": {
                  "coding": [
                      {
                          "system": "http://terminology.hl7.org/CodeSystem/location-physical-type",
                          "code": "lvl"
                      }
                  ]
              }
          },
          "request": {
              "method": "PUT",
              "url": "Location/ce40a46d-eaed-b5a4-ef6e-463cae637157"
          }
      },
      {
          "fullUrl": "urn:uuid:95c9f253-3bac-cf73-202b-907e4e997489",
          "resource": {
              "resourceType": "Specimen",
              "id": "95c9f253-3bac-cf73-202b-907e4e997489",
              "identifier": [
                  {
                      "value": "845439",
                      "system": "http://example.com/v2-to-fhir-converter/Identifier/GHH-OE",
                      "type": {
                          "coding": [
                              {
                                  "code": "PLAC",
                                  "system": "http://terminology.hl7.org/CodeSystem/v2-0203"
                              }
                          ]
                      }
                  },
                  {
                      "value": "986",
                      "system": "urn:oid:2.16.840.1.114222.4.3.3.5.1.2",
                      "type": {
                          "coding": [
                              {
                                  "code": "FILL",
                                  "system": "http://terminology.hl7.org/CodeSystem/v2-0203"
                              }
                          ]
                      }
                  },
                  {
                      "value": "APON-53",
                      "type": {
                          "coding": [
                              {
                                  "code": "PLAC",
                                  "system": "http://terminology.hl7.org/CodeSystem/v2-0203"
                              }
                          ]
                      }
                  }
              ],
              "type": {
                  "coding": [
                      {
                          "code": "SP15",
                          "display": "1.2",
                          "system": "http://example.com/v2-to-fhir-converter/CodeSystem/L"
                      }
                  ]
              },
              "collection": {
                  "quantity": {
                      "value": 150,
                      "unit": "lb"
                  },
                  "collector": {
                      "reference": "PractitionerRole/9f64bd3b-d5e9-678b-2f14-b0d756a4e7f1"
                  },
                  "bodySite": {
                      "coding": [
                          {
                              "code": "BN",
                              "display": "223.3",
                              "system": "http://example.com/v2-to-fhir-converter/CodeSystem/L"
                          }
                      ]
                  },
                  "method": {
                      "text": "Collection Method"
                  },
                  "collectedDateTime": "2002-02-15T10:45:00+05:30"
              },
              "receivedTime": "2002-02-12T10:45:00+05:30",
              "container": [
                  {
                      "additiveCodeableConcept": {
                          "coding": [
                              {
                                  "code": "ACDA"
                              }
                          ]
                      }
                  }
              ],
              "note": [
                  {
                      "text": "Collector's comment"
                  }
              ]
          },
          "request": {
              "method": "PUT",
              "url": "Specimen/95c9f253-3bac-cf73-202b-907e4e997489"
          }
      },
      {
          "fullUrl": "urn:uuid:ae62dffe-1a0f-c68b-e7a3-e33cfce7761e",
          "resource": {
              "resourceType": "Practitioner",
              "id": "ae62dffe-1a0f-c68b-e7a3-e33cfce7761e",
              "identifier": [
                  {
                      "value": "10535",
                      "system": "http://example.com/v2-to-fhir-converter/Identifier/L",
                      "type": {
                          "coding": [
                              {
                                  "code": "MR",
                                  "display": "Medical record number",
                                  "system": "http://terminology.hl7.org/CodeSystem/v2-0203"
                              }
                          ]
                      }
                  }
              ],
              "name": [
                  {
                      "family": "van Beethoven",
                      "given": [
                          "Ludwig",
                          "A"
                      ],
                      "suffix": [
                          "III",
                          "PHD"
                      ],
                      "prefix": [
                          "Dr"
                      ],
                      "use": "official"
                  }
              ]
          },
          "request": {
              "method": "PUT",
              "url": "Practitioner/ae62dffe-1a0f-c68b-e7a3-e33cfce7761e"
          }
      },
      {
          "fullUrl": "urn:uuid:9f64bd3b-d5e9-678b-2f14-b0d756a4e7f1",
          "resource": {
              "resourceType": "PractitionerRole",
              "id": "9f64bd3b-d5e9-678b-2f14-b0d756a4e7f1",
              "practitioner": {
                  "reference": "Practitioner/ae62dffe-1a0f-c68b-e7a3-e33cfce7761e"
              }
          },
          "request": {
              "method": "PUT",
              "url": "PractitionerRole/9f64bd3b-d5e9-678b-2f14-b0d756a4e7f1"
          }
      },
      {
          "fullUrl": "urn:uuid:40dd4b0b-a158-82ec-9563-5f28a69df71b",
          "resource": {
              "resourceType": "Organization",
              "id": "40dd4b0b-a158-82ec-9563-5f28a69df71b",
              "name": "Birla ORC Org"
          },
          "request": {
              "method": "PUT",
              "url": "Organization/40dd4b0b-a158-82ec-9563-5f28a69df71b"
          }
      },
      {
          "fullUrl": "urn:uuid:c39626a4-c277-34c4-821e-7fa7d9dabeaa",
          "resource": {
              "resourceType": "Location",
              "id": "c39626a4-c277-34c4-821e-7fa7d9dabeaa",
              "name": "ORC4, room 136, bed B 4E",
              "mode": "instance",
              "description": "ORC4, room 136, bed B 4E--136--B--CommunityHospital--N",
              "physicalType": {
                  "coding": [
                      {
                          "system": "http://terminology.hl7.org/CodeSystem/location-physical-type",
                          "code": "lvl"
                      }
                  ]
              },
              "managingOrganization": {
                  "reference": "Organization/40dd4b0b-a158-82ec-9563-5f28a69df71b"
              }
          },
          "request": {
              "method": "PUT",
              "url": "Location/c39626a4-c277-34c4-821e-7fa7d9dabeaa"
          }
      },
      {
          "fullUrl": "urn:uuid:746c7636-6b17-8e28-6ce1-592a5b318583",
          "resource": {
              "resourceType": "Location",
              "id": "746c7636-6b17-8e28-6ce1-592a5b318583",
              "partOf": {
                  "reference": "Location/c39626a4-c277-34c4-821e-7fa7d9dabeaa"
              },
              "name": "136",
              "mode": "instance",
              "description": "ORC4, room 136, bed B 4E--136--B--CommunityHospital--N",
              "physicalType": {
                  "coding": [
                      {
                          "system": "http://terminology.hl7.org/CodeSystem/location-physical-type",
                          "code": "ro"
                      }
                  ]
              }
          },
          "request": {
              "method": "PUT",
              "url": "Location/746c7636-6b17-8e28-6ce1-592a5b318583"
          }
      },
      {
          "fullUrl": "urn:uuid:6366b025-a995-03eb-724b-5759ece63620",
          "resource": {
              "resourceType": "Location",
              "id": "6366b025-a995-03eb-724b-5759ece63620",
              "partOf": {
                  "reference": "Location/746c7636-6b17-8e28-6ce1-592a5b318583"
              },
              "name": "B",
              "mode": "instance",
              "description": "ORC4, room 136, bed B 4E--136--B--CommunityHospital--N",
              "physicalType": {
                  "coding": [
                      {
                          "system": "http://terminology.hl7.org/CodeSystem/location-physical-type",
                          "code": "bd"
                      }
                  ]
              }
          },
          "request": {
              "method": "PUT",
              "url": "Location/6366b025-a995-03eb-724b-5759ece63620"
          }
      },
      {
          "fullUrl": "urn:uuid:7d406feb-c4f6-f0dc-e6aa-dbb016a9631a",
          "resource": {
              "resourceType": "Location",
              "id": "7d406feb-c4f6-f0dc-e6aa-dbb016a9631a",
              "name": "CommunityHospital",
              "mode": "instance",
              "description": "ORC4, room 136, bed B 4E--136--B--CommunityHospital--N",
              "physicalType": {
                  "coding": [
                      {
                          "system": "http://terminology.hl7.org/CodeSystem/location-physical-type",
                          "code": "si"
                      }
                  ]
              }
          },
          "request": {
              "method": "PUT",
              "url": "Location/7d406feb-c4f6-f0dc-e6aa-dbb016a9631a"
          }
      },
      {
          "fullUrl": "urn:uuid:32424199-272b-4aaa-6709-07bd28380c84",
          "resource": {
              "resourceType": "Device",
              "id": "32424199-272b-4aaa-6709-07bd28380c84",
              "identifier": [
                  {
                      "value": "PD-10.1",
                      "system": "http://example.com/v2-to-fhir-converter/Identifier/PD-10.2"
                  }
              ]
          },
          "request": {
              "method": "PUT",
              "url": "Device/32424199-272b-4aaa-6709-07bd28380c84"
          }
      },
      {
          "fullUrl": "urn:uuid:27d6dc57-0d25-ebfe-47e0-740a9602456b",
          "resource": {
              "resourceType": "Organization",
              "id": "27d6dc57-0d25-ebfe-47e0-740a9602456b",
              "name": "Birla Doc Org"
          },
          "request": {
              "method": "PUT",
              "url": "Organization/27d6dc57-0d25-ebfe-47e0-740a9602456b"
          }
      },
      {
          "fullUrl": "urn:uuid:96cdea29-8ed2-4826-87a0-8741a87c8a0f",
          "resource": {
              "resourceType": "Location",
              "id": "96cdea29-8ed2-4826-87a0-8741a87c8a0f",
              "name": "Doc Ref, room 136, bed B 4E",
              "mode": "instance",
              "description": "Doc Ref, room 136, bed B 4E--136--B--CommunityHospital--N",
              "physicalType": {
                  "coding": [
                      {
                          "system": "http://terminology.hl7.org/CodeSystem/location-physical-type",
                          "code": "lvl"
                      }
                  ]
              },
              "managingOrganization": {
                  "reference": "Organization/27d6dc57-0d25-ebfe-47e0-740a9602456b"
              }
          },
          "request": {
              "method": "PUT",
              "url": "Location/96cdea29-8ed2-4826-87a0-8741a87c8a0f"
          }
      },
      {
          "fullUrl": "urn:uuid:db3e6fa8-64ad-b7a6-dfa1-71dcad3bbe11",
          "resource": {
              "resourceType": "Location",
              "id": "db3e6fa8-64ad-b7a6-dfa1-71dcad3bbe11",
              "partOf": {
                  "reference": "Location/96cdea29-8ed2-4826-87a0-8741a87c8a0f"
              },
              "name": "136",
              "mode": "instance",
              "description": "Doc Ref, room 136, bed B 4E--136--B--CommunityHospital--N",
              "physicalType": {
                  "coding": [
                      {
                          "system": "http://terminology.hl7.org/CodeSystem/location-physical-type",
                          "code": "ro"
                      }
                  ]
              }
          },
          "request": {
              "method": "PUT",
              "url": "Location/db3e6fa8-64ad-b7a6-dfa1-71dcad3bbe11"
          }
      },
      {
          "fullUrl": "urn:uuid:9bd0e6ea-9005-0f00-ec5c-ec753f0fdb2a",
          "resource": {
              "resourceType": "Location",
              "id": "9bd0e6ea-9005-0f00-ec5c-ec753f0fdb2a",
              "partOf": {
                  "reference": "Location/db3e6fa8-64ad-b7a6-dfa1-71dcad3bbe11"
              },
              "name": "B",
              "mode": "instance",
              "description": "Doc Ref, room 136, bed B 4E--136--B--CommunityHospital--N",
              "physicalType": {
                  "coding": [
                      {
                          "system": "http://terminology.hl7.org/CodeSystem/location-physical-type",
                          "code": "bd"
                      }
                  ]
              }
          },
          "request": {
              "method": "PUT",
              "url": "Location/9bd0e6ea-9005-0f00-ec5c-ec753f0fdb2a"
          }
      },
      {
          "fullUrl": "urn:uuid:f41c3b41-e8e6-15de-874c-4c0d09d441e1",
          "resource": {
              "resourceType": "Location",
              "id": "f41c3b41-e8e6-15de-874c-4c0d09d441e1",
              "name": "CommunityHospital",
              "mode": "instance",
              "description": "Doc Ref, room 136, bed B 4E--136--B--CommunityHospital--N",
              "physicalType": {
                  "coding": [
                      {
                          "system": "http://terminology.hl7.org/CodeSystem/location-physical-type",
                          "code": "si"
                      }
                  ]
              }
          },
          "request": {
              "method": "PUT",
              "url": "Location/f41c3b41-e8e6-15de-874c-4c0d09d441e1"
          }
      },
      {
          "fullUrl": "urn:uuid:ed1cb569-e03b-4605-20d8-2cffb8b18260",
          "resource": {
              "resourceType": "Device",
              "id": "ed1cb569-e03b-4605-20d8-2cffb8b18260",
              "identifier": [
                  {
                      "value": "PD-101.1",
                      "system": "http://example.com/v2-to-fhir-converter/Identifier/PD-10.2"
                  }
              ]
          },
          "request": {
              "method": "PUT",
              "url": "Device/ed1cb569-e03b-4605-20d8-2cffb8b18260"
          }
      },
      {
          "fullUrl": "urn:uuid:dde1214b-8eaf-74c9-d073-447fe599c4ef",
          "resource": {
              "resourceType": "Location",
              "id": "dde1214b-8eaf-74c9-d073-447fe599c4ef",
              "name": "Order room 136, bed B 4E",
              "mode": "instance",
              "description": "Order room 136, bed B 4E--136--B--CommunityHospital--N",
              "physicalType": {
                  "coding": [
                      {
                          "system": "http://terminology.hl7.org/CodeSystem/location-physical-type",
                          "code": "lvl"
                      }
                  ]
              }
          },
          "request": {
              "method": "PUT",
              "url": "Location/dde1214b-8eaf-74c9-d073-447fe599c4ef"
          }
      },
      {
          "fullUrl": "urn:uuid:6d65a6da-9fda-4022-b6ef-911cfcfcb44b",
          "resource": {
              "resourceType": "Location",
              "id": "6d65a6da-9fda-4022-b6ef-911cfcfcb44b",
              "partOf": {
                  "reference": "Location/dde1214b-8eaf-74c9-d073-447fe599c4ef"
              },
              "name": "136",
              "mode": "instance",
              "description": "Order room 136, bed B 4E--136--B--CommunityHospital--N",
              "physicalType": {
                  "coding": [
                      {
                          "system": "http://terminology.hl7.org/CodeSystem/location-physical-type",
                          "code": "ro"
                      }
                  ]
              }
          },
          "request": {
              "method": "PUT",
              "url": "Location/6d65a6da-9fda-4022-b6ef-911cfcfcb44b"
          }
      },
      {
          "fullUrl": "urn:uuid:7e9aa1f7-486d-2301-dbef-ee1fba4d39ca",
          "resource": {
              "resourceType": "Location",
              "id": "7e9aa1f7-486d-2301-dbef-ee1fba4d39ca",
              "partOf": {
                  "reference": "Location/6d65a6da-9fda-4022-b6ef-911cfcfcb44b"
              },
              "name": "B",
              "mode": "instance",
              "description": "Order room 136, bed B 4E--136--B--CommunityHospital--N",
              "physicalType": {
                  "coding": [
                      {
                          "system": "http://terminology.hl7.org/CodeSystem/location-physical-type",
                          "code": "bd"
                      }
                  ]
              }
          },
          "request": {
              "method": "PUT",
              "url": "Location/7e9aa1f7-486d-2301-dbef-ee1fba4d39ca"
          }
      },
      {
          "fullUrl": "urn:uuid:def9bacc-0486-2925-43fa-0c944d476fa6",
          "resource": {
              "resourceType": "Location",
              "id": "def9bacc-0486-2925-43fa-0c944d476fa6",
              "name": "CommunityHospital",
              "mode": "instance",
              "description": "Order room 136, bed B 4E--136--B--CommunityHospital--N",
              "physicalType": {
                  "coding": [
                      {
                          "system": "http://terminology.hl7.org/CodeSystem/location-physical-type",
                          "code": "si"
                      }
                  ]
              }
          },
          "request": {
              "method": "PUT",
              "url": "Location/def9bacc-0486-2925-43fa-0c944d476fa6"
          }
      },
      {
          "fullUrl": "urn:uuid:d6c5dfd2-8713-ab47-861e-afc5d9799fc6",
          "resource": {
              "resourceType": "Device",
              "id": "d6c5dfd2-8713-ab47-861e-afc5d9799fc6",
              "identifier": [
                  {
                      "value": "PD-10.11",
                      "system": "http://example.com/v2-to-fhir-converter/Identifier/PD-10.2"
                  }
              ]
          },
          "request": {
              "method": "PUT",
              "url": "Device/d6c5dfd2-8713-ab47-861e-afc5d9799fc6"
          }
      },
      {
          "fullUrl": "urn:uuid:e82402a9-b2d1-2a28-3250-c099d5a77bf7",
          "resource": {
              "resourceType": "Organization",
              "id": "e82402a9-b2d1-2a28-3250-c099d5a77bf7",
              "identifier": [
                  {
                      "value": "PERSt",
                      "system": "http://example.com/v2-to-fhir-converter/Identifier/PERSt"
                  },
                  {
                      "value": "1.23",
                      "system": "http://example.com/v2-to-fhir-converter/Identifier/HCD",
                      "type": {
                          "coding": [
                              {
                                  "code": "HCD",
                                  "display": "The CEN Healthcare Coding Scheme Designator",
                                  "system": "http://terminology.hl7.org/CodeSystem/v2-0301"
                              }
                          ]
                      }
                  }
              ]
          },
          "request": {
              "method": "PUT",
              "url": "Organization/e82402a9-b2d1-2a28-3250-c099d5a77bf7"
          }
      },
      {
          "fullUrl": "urn:uuid:ce70e6c3-c190-121d-c251-e4bae5cde6a1",
          "resource": {
              "resourceType": "Practitioner",
              "id": "ce70e6c3-c190-121d-c251-e4bae5cde6a1",
              "identifier": [
                  {
                      "value": "1134",
                      "system": "http://example.com/v2-to-fhir-converter/Identifier/HCD",
                      "assigner": {
                          "reference": "Organization/e82402a9-b2d1-2a28-3250-c099d5a77bf7"
                      },
                      "type": {
                          "coding": [
                              {
                                  "code": "BR",
                                  "display": "Birth registry number",
                                  "system": "http://terminology.hl7.org/CodeSystem/v2-0203"
                              }
                          ]
                      }
                  }
              ],
              "name": [
                  {
                      "family": "Aly",
                      "given": [
                          "Zafar",
                          "Mahendra"
                      ],
                      "suffix": [
                          "JR",
                          "MD",
                          "Al"
                      ],
                      "prefix": [
                          "Dr."
                      ],
                      "period": {
                          "start": "1924-10-10",
                          "end": "1924-10-15"
                      }
                  }
              ]
          },
          "request": {
              "method": "PUT",
              "url": "Practitioner/ce70e6c3-c190-121d-c251-e4bae5cde6a1"
          }
      },
      {
          "fullUrl": "urn:uuid:88a53755-c972-6904-b4ce-8884b84ddc2e",
          "resource": {
              "resourceType": "PractitionerRole",
              "id": "88a53755-c972-6904-b4ce-8884b84ddc2e",
              "code": [
                  {
                      "coding": [
                          {
                              "code": "RO",
                              "display": "Responsible Observer",
                              "system": "http://terminology.hl7.org/CodeSystem/v2-0443"
                          }
                      ]
                  }
              ],
              "practitioner": {
                  "reference": "Practitioner/ce70e6c3-c190-121d-c251-e4bae5cde6a1"
              }
          },
          "request": {
              "method": "PUT",
              "url": "PractitionerRole/88a53755-c972-6904-b4ce-8884b84ddc2e"
          }
      },
      {
          "fullUrl": "urn:uuid:960162f4-e8c5-e229-eb52-e6f3f6224edc",
          "resource": {
              "resourceType": "Device",
              "id": "960162f4-e8c5-e229-eb52-e6f3f6224edc",
              "identifier": [
                  {
                      "value": "EI12.3",
                      "system": "urn:uuid:426d2726-51fc-89fe-a946-8596e80a80eb",
                      "type": {
                          "coding": [
                              {
                                  "code": "GUID",
                                  "display": "The DCE Universal Unique Identifier, in accordance with RFC 4122. Recommended format is 32 hexadecimal digits separated by hyphens, in the digit grouping 8-4-4-4-12",
                                  "system": "http://terminology.hl7.org/CodeSystem/v2-0301"
                              }
                          ]
                      }
                  },
                  {
                      "system": "urn:oid:1.3.6.1.4.1.44750.1.2.2",
                      "type": {
                          "coding": [
                              {
                                  "code": "ISO",
                                  "display": "An International Standards Organization Object Identifier (OID), in accordance with ISO/IEC 8824. Formatted as decimal digits separated by periods; recommended limit of 64 characters",
                                  "system": "http://terminology.hl7.org/CodeSystem/v2-0301"
                              }
                          ]
                      }
                  }
              ]
          },
          "request": {
              "method": "PUT",
              "url": "Device/960162f4-e8c5-e229-eb52-e6f3f6224edc"
          }
      },
      {
          "fullUrl": "urn:uuid:45f65e47-46c4-1a54-f9fb-1321258e79b2",
          "resource": {
              "resourceType": "Practitioner",
              "id": "45f65e47-46c4-1a54-f9fb-1321258e79b2",
              "identifier": [
                  {
                      "type": {
                          "coding": [
                              {
                                  "code": "MD-25"
                              }
                          ]
                      }
                  }
              ]
          },
          "request": {
              "method": "PUT",
              "url": "Practitioner/45f65e47-46c4-1a54-f9fb-1321258e79b2"
          }
      },
      {
          "fullUrl": "urn:uuid:090ea2e4-0a3a-eb7f-8f9f-16dd7d13f7f3",
          "resource": {
              "resourceType": "PractitionerRole",
              "id": "090ea2e4-0a3a-eb7f-8f9f-16dd7d13f7f3",
              "code": [
                  {
                      "coding": [
                          {
                              "code": "MDIR",
                              "display": "Medical Director",
                              "system": "http://terminology.hl7.org/CodeSystem/v2-0443"
                          }
                      ]
                  }
              ],
              "practitioner": {
                  "reference": "Practitioner/45f65e47-46c4-1a54-f9fb-1321258e79b2"
              },
              "organization": {
                  "reference": "Organization/471d566b-0070-ed72-9053-acae6a39acb6"
              }
          },
          "request": {
              "method": "PUT",
              "url": "PractitionerRole/090ea2e4-0a3a-eb7f-8f9f-16dd7d13f7f3"
          }
      },
      {
          "fullUrl": "urn:uuid:471d566b-0070-ed72-9053-acae6a39acb6",
          "resource": {
              "resourceType": "Organization",
              "id": "471d566b-0070-ed72-9053-acae6a39acb6",
              "name": "State Hygienic Laboratory",
              "identifier": [
                  {
                      "value": "16D0648109",
                      "type": {
                          "coding": [
                              {
                                  "code": "FI",
                                  "system": "http://terminology.hl7.org/CodeSystem/v2-0203"
                              }
                          ]
                      }
                  }
              ],
              "address": [
                  {
                      "line": [
                          "State Hygienic Laboratory",
                          "UI Research Park -Coralville"
                      ],
                      "city": "Iowa City",
                      "state": "IA",
                      "postalCode": "52242-5002",
                      "country": "USA",
                      "use": "work"
                  }
              ]
          },
          "request": {
              "method": "PUT",
              "url": "Organization/471d566b-0070-ed72-9053-acae6a39acb6"
          }
      },
      {
          "fullUrl": "urn:uuid:cdbf1614-4191-7f8c-d914-c071cc2a44bc",
          "resource": {
              "resourceType": "Observation",
              "id": "cdbf1614-4191-7f8c-d914-c071cc2a44bc",
              "identifier": [
                  {
                      "value": "EI21",
                      "system": "http://example.com/v2-to-fhir-converter/Identifier/OII"
                  },
                  {
                      "type": {
                          "coding": [
                              {
                                  "code": "FILL"
                              }
                          ]
                      }
                  }
              ],
              "status": "preliminary",
              "code": {
                  "coding": [
                      {
                          "code": "625-4",
                          "display": "Bacteria identified in Stool by Culture",
                          "system": "http://example.com/v2-to-fhir-converter/CodeSystem/XYZ",
                          "version": "2.33"
                      }
                  ],
                  "text": "result1"
              },
              "valueCodeableConcept": {
                  "coding": [
                      {
                          "code": "27268008",
                          "display": "Salmonella",
                          "system": "http://snomed.info/sct"
                      }
                  ],
                  "text": "Salmonella species"
              },
              "referenceRange": [
                  {
                      "text": "70-80"
                  }
              ],
              "effectiveDateTime": "2012-03-01",
              "method": {
                  "text": "Bacterial Culture"
              },
              "device": {
                  "reference": "Device/32424199-272b-4aaa-6709-07bd28380c84"
              },
              "bodySite": {
                  "coding": [
                      {
                          "code": "BU",
                          "display": "Observation site",
                          "system": "http://example.com/v2-to-fhir-converter/CodeSystem/E5"
                      }
                  ]
              },
              "performer": [
                  {
                      "reference": "PractitionerRole/88a53755-c972-6904-b4ce-8884b84ddc2e"
                  },
                  {
                      "reference": "PractitionerRole/090ea2e4-0a3a-eb7f-8f9f-16dd7d13f7f3"
                  },
                  {
                      "reference": "Organization/783fa237-f15a-031e-a688-a91a244c96d5"
                  }
              ],
              "interpretation": [
                  {
                      "coding": [
                          {
                              "code": "A",
                              "display": "Abnormal",
                              "system": "http://terminology.hl7.org/CodeSystem/v3-ObservationInterpretation",
                              "version": "2.5"
                          }
                      ]
                  }
              ],
              "subject": {
                  "reference": "Patient/389b3d01-dc6f-2c15-38c5-8c4e86a515c8"
              },
              "basedOn": [
                  {
                      "reference": "ServiceRequest/805f1b25-f43a-3bca-8bbd-49d530107363"
                  }
              ],
              "extension": [
                  {
                      "url": "http://example.com/v2-to-fhir-converter/Observation_Status",
                      "valueCodeableConcept": {
                          "coding": [
                              {
                                  "code": "P",
                                  "display": "Preliminary",
                                  "system": "http://terminology.hl7.org/CodeSystem/v2-0085"
                              }
                          ],
                          "text": "Preliminary"
                      }
                  }
              ],
              "note": [
                  {
                      "text": "Submission of serum",
                      "time": "2020-10-10T19:15:00+05:30",
                      "authorReference": {
                          "reference": "Practitioner/ca6d10cc-e8a7-9d21-bd61-ec6d1db557c2"
                      }
                  },
                  {
                      "text": "No Antibodies Detected",
                      "time": "2020-10-10T18:15:00+05:30",
                      "authorReference": {
                          "reference": "Practitioner/ca6d10cc-e8a7-9d21-bd61-ec6d1db557c2"
                      }
                  }
              ]
          },
          "request": {
              "method": "PUT",
              "url": "Observation/cdbf1614-4191-7f8c-d914-c071cc2a44bc"
          }
      },
      {
          "fullUrl": "urn:uuid:ca6d10cc-e8a7-9d21-bd61-ec6d1db557c2",
          "resource": {
              "resourceType": "Practitioner",
              "id": "ca6d10cc-e8a7-9d21-bd61-ec6d1db557c2",
              "identifier": [
                  {
                      "value": "MLEE"
                  }
              ],
              "name": [
                  {
                      "family": "ATTEND",
                      "given": [
                          "AARON",
                          "A"
                      ],
                      "suffix": [
                          "MD"
                      ]
                  }
              ]
          },
          "request": {
              "method": "PUT",
              "url": "Practitioner/ca6d10cc-e8a7-9d21-bd61-ec6d1db557c2"
          }
      },
      {
          "fullUrl": "urn:uuid:783fa237-f15a-031e-a688-a91a244c96d5",
          "resource": {
              "resourceType": "Organization",
              "id": "783fa237-f15a-031e-a688-a91a244c96d5",
              "name": "Birla Observation Org"
          },
          "request": {
              "method": "PUT",
              "url": "Organization/783fa237-f15a-031e-a688-a91a244c96d5"
          }
      },
      {
          "fullUrl": "urn:uuid:785588a1-1b66-73e6-610d-1c220ab13a25",
          "resource": {
              "resourceType": "Location",
              "id": "785588a1-1b66-73e6-610d-1c220ab13a25",
              "name": "obx, room 136, bed B 4E",
              "mode": "instance",
              "description": "obx, room 136, bed B 4E--136--B--CommunityHospital--N",
              "physicalType": {
                  "coding": [
                      {
                          "system": "http://terminology.hl7.org/CodeSystem/location-physical-type",
                          "code": "lvl"
                      }
                  ]
              },
              "managingOrganization": {
                  "reference": "Organization/783fa237-f15a-031e-a688-a91a244c96d5"
              }
          },
          "request": {
              "method": "PUT",
              "url": "Location/785588a1-1b66-73e6-610d-1c220ab13a25"
          }
      },
      {
          "fullUrl": "urn:uuid:a0693272-d4c0-0297-ef09-30422afe3ddd",
          "resource": {
              "resourceType": "Location",
              "id": "a0693272-d4c0-0297-ef09-30422afe3ddd",
              "partOf": {
                  "reference": "Location/785588a1-1b66-73e6-610d-1c220ab13a25"
              },
              "name": "136",
              "mode": "instance",
              "description": "obx, room 136, bed B 4E--136--B--CommunityHospital--N",
              "physicalType": {
                  "coding": [
                      {
                          "system": "http://terminology.hl7.org/CodeSystem/location-physical-type",
                          "code": "ro"
                      }
                  ]
              }
          },
          "request": {
              "method": "PUT",
              "url": "Location/a0693272-d4c0-0297-ef09-30422afe3ddd"
          }
      },
      {
          "fullUrl": "urn:uuid:e1a74d54-319d-d228-43c2-4a517f22d068",
          "resource": {
              "resourceType": "Location",
              "id": "e1a74d54-319d-d228-43c2-4a517f22d068",
              "partOf": {
                  "reference": "Location/a0693272-d4c0-0297-ef09-30422afe3ddd"
              },
              "name": "B",
              "mode": "instance",
              "description": "obx, room 136, bed B 4E--136--B--CommunityHospital--N",
              "physicalType": {
                  "coding": [
                      {
                          "system": "http://terminology.hl7.org/CodeSystem/location-physical-type",
                          "code": "bd"
                      }
                  ]
              }
          },
          "request": {
              "method": "PUT",
              "url": "Location/e1a74d54-319d-d228-43c2-4a517f22d068"
          }
      },
      {
          "fullUrl": "urn:uuid:dea21faf-71a6-5236-cffb-321e1ab74af4",
          "resource": {
              "resourceType": "Location",
              "id": "dea21faf-71a6-5236-cffb-321e1ab74af4",
              "name": "CommunityHospital",
              "mode": "instance",
              "description": "obx, room 136, bed B 4E--136--B--CommunityHospital--N",
              "physicalType": {
                  "coding": [
                      {
                          "system": "http://terminology.hl7.org/CodeSystem/location-physical-type",
                          "code": "si"
                      }
                  ]
              }
          },
          "request": {
              "method": "PUT",
              "url": "Location/dea21faf-71a6-5236-cffb-321e1ab74af4"
          }
      },
      {
          "fullUrl": "urn:uuid:16f5c983-f4f6-d905-94ea-688e4ef9ab17",
          "resource": {
              "resourceType": "ResearchStudy",
              "id": "16f5c983-f4f6-d905-94ea-688e4ef9ab17",
              "status": "active",
              "identifier": [
                  {
                      "value": "RSID1234"
                  }
              ],
              "phase": {
                  "coding": [
                      {
                          "code": "1",
                          "display": "Phase_ID1",
                          "system": "http://example.com/v2-to-fhir-converter/CodeSystem/HL70396"
                      }
                  ]
              }
          },
          "request": {
              "method": "PUT",
              "url": "ResearchStudy/16f5c983-f4f6-d905-94ea-688e4ef9ab17"
          }
      },
      {
          "fullUrl": "urn:uuid:bf0359a9-c8e5-c91c-a362-3fe4189e62a3",
          "resource": {
              "resourceType": "ChargeItem",
              "id": "bf0359a9-c8e5-c91c-a362-3fe4189e62a3",
              "status": "unknown",
              "identifier": [
                  {
                      "value": "12345",
                      "system": "http://example.com/v2-to-fhir-converter/Identifier/L",
                      "type": {
                          "coding": [
                              {
                                  "system": "http://example.com/v2-to-fhir-converter/CodeSystem/identifier-type-code",
                                  "code": "TID",
                                  "display": "ChargeItem Transaction ID"
                              }
                          ]
                      }
                  }
              ],
              "occurrenceDateTime": "2019-11-22",
              "enteredDate": "2019-11-22",
              "code": {
                  "coding": [
                      {
                          "code": "71045",
                          "display": "Xray exam chest 1 view",
                          "system": "http://www.ama-assn.org/go/cpt"
                      }
                  ]
              },
              "quantity": {
                  "value": 2
              },
              "priceOverride": {
                  "value": 100,
                  "currency": "USD"
              },
              "reason": [
                  {
                      "coding": [
                          {
                              "code": "29857009",
                              "display": "Chest pain",
                              "system": "http://snomed.info/sct"
                          }
                      ]
                  },
                  {
                      "coding": [
                          {
                              "code": "68235000",
                              "display": "Nasal congestion",
                              "system": "http://snomed.info/sct"
                          }
                      ]
                  }
              ],
              "subject": {
                  "reference": "Patient/389b3d01-dc6f-2c15-38c5-8c4e86a515c8"
              },
              "context": {
                  "reference": "Encounter/3a404c65-0d2a-4e7b-80a1-dda6136656e0"
              },
              "supportingInformation": [
                  {
                      "reference": "ServiceRequest/805f1b25-f43a-3bca-8bbd-49d530107363"
                  }
              ],
              "costCenter": {
                  "reference": "Organization/4082dc60-f9b6-5d4a-1ef2-5a40f7454e4b"
              },
              "performer": [
                  {
                      "actor": {
                          "reference": "Practitioner/3ec3c243-2f18-287a-4275-a062f0131a03"
                      }
                  }
              ],
              "enterer": {
                  "reference": "Practitioner/e43414a7-79a4-70bb-e4d0-245f330edfa6"
              },
              "service": [
                  {
                      "reference": "Procedure/fe651d51-1320-8d12-5c8a-8b2c9518157a",
                      "type": "Procedure"
                  },
                  {
                      "reference": "MedicationDispense/19c76e07-6b39-50a2-ef51-be59858c6b97",
                      "type": "MedicationDispense"
                  }
              ],
              "performingOrganization": {
                  "reference": "Organization/3b0fa4d6-84b9-6c3e-c81d-231c9f16330a"
              },
              "requestingOrganization": {
                  "reference": "Organization/379abbe1-0596-62f8-5218-4f988127cd70"
              },
              "productReference": {
                  "reference": "Device/2676707e-6e0a-3a9d-9b51-1b035b7f5f1f"
              }
          },
          "request": {
              "method": "PUT",
              "url": "ChargeItem/bf0359a9-c8e5-c91c-a362-3fe4189e62a3"
          }
      },
      {
          "fullUrl": "urn:uuid:4082dc60-f9b6-5d4a-1ef2-5a40f7454e4b",
          "resource": {
              "resourceType": "Organization",
              "id": "4082dc60-f9b6-5d4a-1ef2-5a40f7454e4b",
              "identifier": [
                  {
                      "value": "RAD-1",
                      "system": "http://example.com/v2-to-fhir-converter/Identifier/L"
                  }
              ],
              "name": "Radiology Deptt"
          },
          "request": {
              "method": "PUT",
              "url": "Organization/4082dc60-f9b6-5d4a-1ef2-5a40f7454e4b"
          }
      },
      {
          "fullUrl": "urn:uuid:3ec3c243-2f18-287a-4275-a062f0131a03",
          "resource": {
              "resourceType": "Practitioner",
              "id": "3ec3c243-2f18-287a-4275-a062f0131a03",
              "identifier": [
                  {
                      "value": "9941339108",
                      "system": "urn:oid:2.16.840.1.113883.4.6",
                      "type": {
                          "coding": [
                              {
                                  "code": "NPI",
                                  "display": "National provider identifier",
                                  "system": "http://terminology.hl7.org/CodeSystem/v2-0203"
                              }
                          ]
                      }
                  }
              ],
              "name": [
                  {
                      "family": "Smith",
                      "given": [
                          "Adam"
                      ]
                  }
              ]
          },
          "request": {
              "method": "PUT",
              "url": "Practitioner/3ec3c243-2f18-287a-4275-a062f0131a03"
          }
      },
      {
          "fullUrl": "urn:uuid:e43414a7-79a4-70bb-e4d0-245f330edfa6",
          "resource": {
              "resourceType": "Practitioner",
              "id": "e43414a7-79a4-70bb-e4d0-245f330edfa6",
              "identifier": [
                  {
                      "value": "9941339116",
                      "system": "urn:oid:2.16.840.1.113883.4.6",
                      "type": {
                          "coding": [
                              {
                                  "code": "NPI",
                                  "display": "National provider identifier",
                                  "system": "http://terminology.hl7.org/CodeSystem/v2-0203"
                              }
                          ]
                      }
                  }
              ],
              "name": [
                  {
                      "family": "Mellie",
                      "given": [
                          "John"
                      ]
                  }
              ]
          },
          "request": {
              "method": "PUT",
              "url": "Practitioner/e43414a7-79a4-70bb-e4d0-245f330edfa6"
          }
      },
      {
          "fullUrl": "urn:uuid:fe651d51-1320-8d12-5c8a-8b2c9518157a",
          "resource": {
              "resourceType": "Procedure",
              "id": "fe651d51-1320-8d12-5c8a-8b2c9518157a",
              "code": {
                  "coding": [
                      {
                          "code": "71045",
                          "display": "Xray exam chest 1 view",
                          "system": "http://www.ama-assn.org/go/cpt"
                      }
                  ]
              },
              "status": "unknown",
              "subject": {
                  "reference": "Patient/389b3d01-dc6f-2c15-38c5-8c4e86a515c8"
              }
          },
          "request": {
              "method": "PUT",
              "url": "Procedure/fe651d51-1320-8d12-5c8a-8b2c9518157a"
          }
      },
      {
          "fullUrl": "urn:uuid:19c76e07-6b39-50a2-ef51-be59858c6b97",
          "resource": {
              "resourceType": "MedicationDispense",
              "id": "19c76e07-6b39-50a2-ef51-be59858c6b97",
              "quantity": {
                  "value": 5,
                  "unit": "Capsule"
              },
              "authorizingPrescription": [
                  {
                      "identifier": {
                          "value": "PN-12345",
                          "type": {
                              "coding": [
                                  {
                                      "system": "http://example.com/v2-to-fhir-converter/CodeSystem/identifier-type-code",
                                      "code": "PRN",
                                      "display": "Prescription Number"
                                  }
                              ]
                          }
                      },
                      "type": "MedicationRequest"
                  }
              ],
              "status": "unknown",
              "subject": {
                  "reference": "Patient/389b3d01-dc6f-2c15-38c5-8c4e86a515c8"
              },
              "medicationCodeableConcept": {
                  "coding": [
                      {
                          "code": "0182-1061-05",
                          "display": "ASPIRIN EC",
                          "system": "http://hl7.org/fhir/sid/ndc"
                      }
                  ]
              }
          },
          "request": {
              "method": "PUT",
              "url": "MedicationDispense/19c76e07-6b39-50a2-ef51-be59858c6b97"
          }
      },
      {
          "fullUrl": "urn:uuid:3b0fa4d6-84b9-6c3e-c81d-231c9f16330a",
          "resource": {
              "resourceType": "Organization",
              "id": "3b0fa4d6-84b9-6c3e-c81d-231c9f16330a",
              "name": "Good Health Hospital",
              "identifier": [
                  {
                      "value": "544",
                      "type": {
                          "coding": [
                              {
                                  "code": "XX",
                                  "system": "http://terminology.hl7.org/CodeSystem/v2-0203"
                              }
                          ]
                      }
                  }
              ]
          },
          "request": {
              "method": "PUT",
              "url": "Organization/3b0fa4d6-84b9-6c3e-c81d-231c9f16330a"
          }
      },
      {
          "fullUrl": "urn:uuid:379abbe1-0596-62f8-5218-4f988127cd70",
          "resource": {
              "resourceType": "Organization",
              "id": "379abbe1-0596-62f8-5218-4f988127cd70",
              "name": "GOOD HEALTH HOSPITAL",
              "identifier": [
                  {
                      "value": "123456789"
                  }
              ]
          },
          "request": {
              "method": "PUT",
              "url": "Organization/379abbe1-0596-62f8-5218-4f988127cd70"
          }
      },
      {
          "fullUrl": "urn:uuid:2676707e-6e0a-3a9d-9b51-1b035b7f5f1f",
          "resource": {
              "resourceType": "Device",
              "id": "2676707e-6e0a-3a9d-9b51-1b035b7f5f1f",
              "identifier": [
                  {
                      "value": "Item-12345",
                      "system": "http://example.com/v2-to-fhir-converter/Identifier/L"
                  }
              ],
              "modelNumber": "Model-12345",
              "patient": {
                  "reference": "Patient/389b3d01-dc6f-2c15-38c5-8c4e86a515c8"
              }
          },
          "request": {
              "method": "PUT",
              "url": "Device/2676707e-6e0a-3a9d-9b51-1b035b7f5f1f"
          }
      },
      {
          "fullUrl": "urn:uuid:e42df22d-2f6d-d024-aa57-9d069936760a",
          "resource": {
              "resourceType": "Specimen",
              "id": "e42df22d-2f6d-d024-aa57-9d069936760a",
              "identifier": [
                  {
                      "value": "2012545",
                      "type": {
                          "coding": [
                              {
                                  "code": "PGN",
                                  "system": "http://terminology.hl7.org/CodeSystem/v2-0203"
                              }
                          ]
                      }
                  },
                  {
                      "value": "2012999999",
                      "type": {
                          "coding": [
                              {
                                  "code": "FGN",
                                  "system": "http://terminology.hl7.org/CodeSystem/v2-0203"
                              }
                          ]
                      }
                  },
                  {
                      "value": "OSI-31",
                      "type": {
                          "coding": [
                              {
                                  "code": "PI",
                                  "system": "http://terminology.hl7.org/CodeSystem/v2-0203",
                                  "display": "Patient internal identifier"
                              }
                          ]
                      },
                      "system": "urn:uuid:426d2726-51fc-89fe-a946-8596e80a80eb",
                      "assigner": {
                          "reference": "Organization/0912ab5e-fd38-78ec-6eb8-13abac5db6a5"
                      }
                  },
                  {
                      "value": "ShipID-32",
                      "system": "urn:oid:1.3.6.1.4.1.44750.1.2.2",
                      "type": {
                          "coding": [
                              {
                                  "code": "SHIP",
                                  "display": "Shipment ID",
                                  "system": "http://example.com/v2-to-fhir-converter/CodeSystem/identifier-type-code"
                              }
                          ]
                      }
                  }
              ],
              "type": {
                  "coding": [
                      {
                          "code": "ASERU",
                          "display": "Serum",
                          "system": "http://terminology.hl7.org/CodeSystem/v2-0487"
                      },
                      {
                          "code": "FUR",
                          "system": "http://terminology.hl7.org/CodeSystem/v2-0487"
                      }
                  ],
                  "text": "Blood"
              },
              "collection": {
                  "quantity": {
                      "value": 40,
                      "unit": "lbs"
                  },
                  "bodySite": {
                      "coding": [
                          {
                              "code": "BAP",
                              "system": "http://example.com/v2-to-fhir-converter/CodeSystem/HL70488"
                          }
                      ],
                      "text": "Specimen source site"
                  },
                  "method": {
                      "coding": [
                          {
                              "code": "BCAE",
                              "system": "http://terminology.hl7.org/CodeSystem/v2-0488"
                          }
                      ]
                  },
                  "collectedPeriod": {
                      "start": "2011-01-04T04:04:28+05:30",
                      "end": "2011-11-04T04:04:28+05:30"
                  },
                  "extension": [
                      {
                          "url": "http://hl7.org/fhir/StructureDefinition/specimen-specialHandling",
                          "valueCodeableConcept": {
                              "coding": [
                                  {
                                      "code": "AMB",
                                      "display": "Ambient Temperature",
                                      "system": "http://terminology.hl7.org/CodeSystem/v2-0376"
                                  },
                                  {
                                      "code": "DRY",
                                      "display": "dry",
                                      "system": "http://terminology.hl7.org/CodeSystem/v2-0376"
                                  }
                              ]
                          }
                      }
                  ]
              },
              "receivedTime": "2012-03-01",
              "container": [
                  {
                      "additiveCodeableConcept": {
                          "coding": [
                              {
                                  "code": "STUTM",
                                  "display": "Stuart transport medium",
                                  "system": "http://terminology.hl7.org/CodeSystem/v2-0371",
                                  "version": "20"
                              },
                              {
                                  "code": "PHENOL",
                                  "display": "Stool",
                                  "system": "http://terminology.hl7.org/CodeSystem/v2-0371"
                              }
                          ]
                      },
                      "type": {
                          "coding": [
                              {
                                  "code": "T-container",
                                  "display": "ContainerType",
                                  "system": "http://example.com/v2-to-fhir-converter/CodeSystem/ABC"
                              }
                          ]
                      }
                  }
              ],
              "status": "available",
              "condition": [
                  {
                      "coding": [
                          {
                              "code": "AUT",
                              "display": "Autolyzed",
                              "system": "http://terminology.hl7.org/CodeSystem/v2-0493"
                          },
                          {
                              "code": "CLOT",
                              "display": "CLOT",
                              "system": "http://terminology.hl7.org/CodeSystem/v2-0493"
                          }
                      ]
                  },
                  {
                      "coding": [
                          {
                              "code": "HEM",
                              "display": "HEM",
                              "system": "http://terminology.hl7.org/CodeSystem/v2-0493"
                          }
                      ]
                  }
              ],
              "accessionIdentifier": {
                  "value": "AI-30",
                  "type": {
                      "coding": [
                          {
                              "code": "PI",
                              "system": "http://terminology.hl7.org/CodeSystem/v2-0203",
                              "display": "Patient internal identifier"
                          }
                      ]
                  },
                  "system": "urn:oid:2.16.840.1.114222",
                  "assigner": {
                      "reference": "Organization/f210e7e3-f1e7-297a-9d54-9db2d312cb96"
                  }
              },
              "note": [
                  {
                      "text": "This is a specimen resource"
                  }
              ],
              "parent": [
                  {
                      "reference": "Specimen/0755f744-dafd-776b-bff7-2d023e54406e"
                  }
              ]
          },
          "request": {
              "method": "PUT",
              "url": "Specimen/e42df22d-2f6d-d024-aa57-9d069936760a"
          }
      },
      {
          "fullUrl": "urn:uuid:0755f744-dafd-776b-bff7-2d023e54406e",
          "resource": {
              "resourceType": "Specimen",
              "id": "0755f744-dafd-776b-bff7-2d023e54406e",
              "identifier": [
                  {
                      "value": "PAI12",
                      "type": {
                          "coding": [
                              {
                                  "code": "PGN",
                                  "system": "http://terminology.hl7.org/CodeSystem/v2-0203"
                              }
                          ]
                      }
                  }
              ]
          },
          "request": {
              "method": "PUT",
              "url": "Specimen/0755f744-dafd-776b-bff7-2d023e54406e"
          }
      },
      {
          "fullUrl": "urn:uuid:f210e7e3-f1e7-297a-9d54-9db2d312cb96",
          "resource": {
              "resourceType": "Organization",
              "id": "f210e7e3-f1e7-297a-9d54-9db2d312cb96",
              "identifier": [
                  {
                      "value": "IA PHIMS Stage",
                      "system": "http://example.com/v2-to-fhir-converter/Identifier/IA-PHIMS-Stage"
                  },
                  {
                      "value": "urn:oid:2.16.840.1.114222",
                      "system": "urn:ietf:rfc:3986",
                      "type": {
                          "coding": [
                              {
                                  "code": "ISO",
                                  "display": "An International Standards Organization Object Identifier (OID), in accordance with ISO/IEC 8824. Formatted as decimal digits separated by periods; recommended limit of 64 characters",
                                  "system": "http://terminology.hl7.org/CodeSystem/v2-0301"
                              }
                          ]
                      }
                  }
              ]
          },
          "request": {
              "method": "PUT",
              "url": "Organization/f210e7e3-f1e7-297a-9d54-9db2d312cb96"
          }
      },
      {
          "fullUrl": "urn:uuid:0912ab5e-fd38-78ec-6eb8-13abac5db6a5",
          "resource": {
              "resourceType": "Organization",
              "id": "0912ab5e-fd38-78ec-6eb8-13abac5db6a5",
              "identifier": [
                  {
                      "value": "IPHIMS Stage",
                      "system": "http://example.com/v2-to-fhir-converter/Identifier/IPHIMS-Stage"
                  },
                  {
                      "value": "urn:uuid:426d2726-51fc-89fe-a946-8596e80a80eb",
                      "system": "urn:ietf:rfc:3986",
                      "type": {
                          "coding": [
                              {
                                  "code": "GUID",
                                  "display": "The DCE Universal Unique Identifier, in accordance with RFC 4122. Recommended format is 32 hexadecimal digits separated by hyphens, in the digit grouping 8-4-4-4-12",
                                  "system": "http://terminology.hl7.org/CodeSystem/v2-0301"
                              }
                          ]
                      }
                  }
              ]
          },
          "request": {
              "method": "PUT",
              "url": "Organization/0912ab5e-fd38-78ec-6eb8-13abac5db6a5"
          }
      },
      {
          "fullUrl": "urn:uuid:257786a3-0c2e-44c7-69ea-3456e7152e68",
          "resource": {
              "resourceType": "DiagnosticReport",
              "id": "257786a3-0c2e-44c7-69ea-3456e7152e68",
              "code": {
                  "coding": [
                      {
                          "code": "1063-7",
                          "display": "Serum or Plasma",
                          "system": "http://example.com/v2-to-fhir-converter/CodeSystem/XYZ",
                          "version": "2.33"
                      }
                  ],
                  "text": "result1"
              },
              "status": "unknown",
              "presentedForm": [
                  {
                      "contentType": "image/pict",
                      "url": "https://testurl.com"
                  }
              ],
              "subject": {
                  "reference": "Patient/389b3d01-dc6f-2c15-38c5-8c4e86a515c8"
              },
              "specimen": [
                  {
                      "reference": "Specimen/e42df22d-2f6d-d024-aa57-9d069936760a"
                  }
              ]
          },
          "request": {
              "method": "PUT",
              "url": "DiagnosticReport/257786a3-0c2e-44c7-69ea-3456e7152e68"
          }
      },
      {
          "fullUrl": "urn:uuid:9d7eed34-b8fe-1a79-d3da-092a4d5f8775",
          "resource": {
              "resourceType": "Observation",
              "id": "9d7eed34-b8fe-1a79-d3da-092a4d5f8775",
              "status": "unknown",
              "code": {
                  "coding": [
                      {
                          "code": "8867-4",
                          "display": "Bacteria identified",
                          "system": "http://loinc.org",
                          "version": "2.33"
                      }
                  ],
                  "text": "result1"
              },
              "component": [
                  {
                      "code": {
                          "coding": [
                              {
                                  "code": "8867-4",
                                  "display": "Bacteria identified",
                                  "system": "http://loinc.org",
                                  "version": "2.33"
                              }
                          ],
                          "text": "result1"
                      },
                      "valueQuantity": {
                          "value": 27
                      }
                  },
                  {
                      "code": {
                          "coding": [
                              {
                                  "code": "8867-4",
                                  "display": "Bacteria identified",
                                  "system": "http://loinc.org",
                                  "version": "2.33"
                              }
                          ],
                          "text": "result1"
                      },
                      "valueQuantity": {
                          "value": 25
                      }
                  }
              ],
              "subject": {
                  "reference": "Patient/389b3d01-dc6f-2c15-38c5-8c4e86a515c8"
              },
              "specimen": {
                  "reference": "Specimen/e42df22d-2f6d-d024-aa57-9d069936760a"
              },
              "extension": [
                  {
                      "url": "http://example.com/v2-to-fhir-converter/Observation_Status",
                      "valueCodeableConcept": {
                          "coding": [
                              {
                                  "code": "I",
                                  "display": "In Process",
                                  "system": "http://terminology.hl7.org/CodeSystem/v2-0085"
                              }
                          ],
                          "text": "In Process"
                      }
                  }
              ],
              "performer": [
                  {
                      "reference": "PractitionerRole/bd195c46-3ca2-6eee-a737-c0ab9718e388"
                  }
              ]
          },
          "request": {
              "method": "PUT",
              "url": "Observation/9d7eed34-b8fe-1a79-d3da-092a4d5f8775"
          }
      },
      {
          "fullUrl": "urn:uuid:bd195c46-3ca2-6eee-a737-c0ab9718e388",
          "resource": {
              "resourceType": "PractitionerRole",
              "id": "bd195c46-3ca2-6eee-a737-c0ab9718e388",
              "code": [
                  {
                      "coding": [
                          {
                              "code": "AD",
                              "display": "Admitting Provider",
                              "system": "http://terminology.hl7.org/CodeSystem/v2-0443"
                          }
                      ]
                  }
              ],
              "location": [
                  {
                      "reference": "Location/8b5c6a4e-baab-e45d-f749-4ea3881e2895"
                  }
              ],
              "organization": {
                  "reference": "Organization/8ff59c3d-35f5-26b5-edbc-b3516f14a17d"
              },
              "specialty": [
                  {
                      "coding": [
                          {
                              "code": "PPT"
                          }
                      ]
                  }
              ],
              "practitioner": {
                  "reference": "Practitioner/ff69ab48-be8a-34ac-d607-4f50fb910b04"
              }
          },
          "request": {
              "method": "PUT",
              "url": "PractitionerRole/bd195c46-3ca2-6eee-a737-c0ab9718e388"
          }
      },
      {
          "fullUrl": "urn:uuid:ff69ab48-be8a-34ac-d607-4f50fb910b04",
          "resource": {
              "resourceType": "Practitioner",
              "id": "ff69ab48-be8a-34ac-d607-4f50fb910b04",
              "identifier": [
                  {
                      "value": "142"
                  }
              ],
              "name": [
                  {
                      "family": "SPM"
                  }
              ]
          },
          "request": {
              "method": "PUT",
              "url": "Practitioner/ff69ab48-be8a-34ac-d607-4f50fb910b04"
          }
      },
      {
          "fullUrl": "urn:uuid:8b5c6a4e-baab-e45d-f749-4ea3881e2895",
          "resource": {
              "resourceType": "Location",
              "id": "8b5c6a4e-baab-e45d-f749-4ea3881e2895",
              "name": "SPM, room 136, bed B 4E",
              "mode": "instance",
              "description": "SPM, room 136, bed B 4E--136--B--CommunityHospital--N",
              "physicalType": {
                  "coding": [
                      {
                          "system": "http://terminology.hl7.org/CodeSystem/location-physical-type",
                          "code": "lvl"
                      }
                  ]
              }
          },
          "request": {
              "method": "PUT",
              "url": "Location/8b5c6a4e-baab-e45d-f749-4ea3881e2895"
          }
      },
      {
          "fullUrl": "urn:uuid:dd7496b9-618a-9269-ea9d-ca4863c97559",
          "resource": {
              "resourceType": "Location",
              "id": "dd7496b9-618a-9269-ea9d-ca4863c97559",
              "partOf": {
                  "reference": "Location/8b5c6a4e-baab-e45d-f749-4ea3881e2895"
              },
              "name": "136",
              "mode": "instance",
              "description": "SPM, room 136, bed B 4E--136--B--CommunityHospital--N",
              "physicalType": {
                  "coding": [
                      {
                          "system": "http://terminology.hl7.org/CodeSystem/location-physical-type",
                          "code": "ro"
                      }
                  ]
              }
          },
          "request": {
              "method": "PUT",
              "url": "Location/dd7496b9-618a-9269-ea9d-ca4863c97559"
          }
      },
      {
          "fullUrl": "urn:uuid:6d5c18f8-de7d-6321-da1b-0957af8cc275",
          "resource": {
              "resourceType": "Location",
              "id": "6d5c18f8-de7d-6321-da1b-0957af8cc275",
              "partOf": {
                  "reference": "Location/dd7496b9-618a-9269-ea9d-ca4863c97559"
              },
              "name": "B",
              "mode": "instance",
              "description": "SPM, room 136, bed B 4E--136--B--CommunityHospital--N",
              "physicalType": {
                  "coding": [
                      {
                          "system": "http://terminology.hl7.org/CodeSystem/location-physical-type",
                          "code": "bd"
                      }
                  ]
              }
          },
          "request": {
              "method": "PUT",
              "url": "Location/6d5c18f8-de7d-6321-da1b-0957af8cc275"
          }
      },
      {
          "fullUrl": "urn:uuid:ab39265b-82c9-a15b-8b04-4d89adfa96c9",
          "resource": {
              "resourceType": "Location",
              "id": "ab39265b-82c9-a15b-8b04-4d89adfa96c9",
              "name": "CommunityHospital",
              "mode": "instance",
              "description": "SPM, room 136, bed B 4E--136--B--CommunityHospital--N",
              "physicalType": {
                  "coding": [
                      {
                          "system": "http://terminology.hl7.org/CodeSystem/location-physical-type",
                          "code": "si"
                      }
                  ]
              }
          },
          "request": {
              "method": "PUT",
              "url": "Location/ab39265b-82c9-a15b-8b04-4d89adfa96c9"
          }
      },
      {
          "fullUrl": "urn:uuid:8ff59c3d-35f5-26b5-edbc-b3516f14a17d",
          "resource": {
              "resourceType": "Organization",
              "id": "8ff59c3d-35f5-26b5-edbc-b3516f14a17d",
              "name": "Specimen Organization"
          },
          "request": {
              "method": "PUT",
              "url": "Organization/8ff59c3d-35f5-26b5-edbc-b3516f14a17d"
          }
      }
  ]
}