{
  "resourceType": "Bundle",
  "type": "transaction",
  "entry": [
    {
      "fullUrl": "urn:uuid:59137ac2-b595-49c0-863e-df25b62bf2cd",
      "resource": {
        "resourceType": "MessageHeader",
        "id": "59137ac2-b595-49c0-863e-df25b62bf2cd",
        "source": {
          "source": {
            "name": "GHH LAB"
          }
        },
        "destination": [
          {
            "destination": [
              {
                "name": "GHH OE"
              }
            ]
          }
        ],
        "meta": {
          "tag": [
            {
              "meta": {
                "tag": [
                  {
                    "code": "P",
                    "system": "http://terminology.hl7.org/CodeSystem/v2-0103"
                  }
                ]
              }
            }
          ]
        }
      },
      "request": {
        "method": "PUT",
        "url": "MessageHeader/59137ac2-b595-49c0-863e-df25b62bf2cd"
      }
    },
    {
      "fullUrl": "urn:uuid:92bee074-a5c5-3c79-1905-2ed380528150",
      "resource": {
        "resourceType": "Patient",
        "id": "92bee074-a5c5-3c79-1905-2ed380528150",
        "identifier": [
          {
            "value": "555-44-4444"
          },
          {
            "value": "67-A4335",
            "type": {
              "coding": [
                {
                  "code": "DL"
                }
              ]
            },
            "system": "OH",
            "period": {
              "end": "2003-05-20"
            }
          }
        ],
        "name": [
          {
            "family": "EVERYWOMAN",
            "given": [
              "EVE",
              "E"
            ],
            "use": "official"
          }
        ],
        "birthDate": "1962-03-20",
        "gender": "female",
        "address": [
          {
            "line": [
              "153 FERNWOOD DR."
            ],
            "city": "STATESVILLE",
            "state": "OH",
            "postalCode": "35292"
          }
        ],
        "telecom": [
          {
            "value": "(206)3345232",
            "use": "home"
          },
          {
            "value": "(206)752-121",
            "use": "work"
          }
        ]
      },
      "request": {
        "method": "PUT",
        "url": "Patient/92bee074-a5c5-3c79-1905-2ed380528150"
      }
    },
    {
      "fullUrl": "urn:uuid:226c03a8-beb4-a91a-80a2-7804a7c229d7",
      "resource": {
        "resourceType": "Provenance",
        "id": "226c03a8-beb4-a91a-80a2-7804a7c229d7",
        "agent": [
          {
            "type": {
              "coding": [
                {
                  "code": "author",
                  "system": "http://terminology.hl7.org/CodeSystem/provenance-participant-type"
                }
              ]
            }
          }
        ],
        "recorded": "2002-02-15T09:30:00Z"
      },
      "request": {
        "method": "PUT",
        "url": "Provenance/226c03a8-beb4-a91a-80a2-7804a7c229d7"
      }
    },
    {
      "fullUrl": "urn:uuid:4af7a7fb-e594-e5b3-43b9-969188e0c692",
      "resource": {
        "resourceType": "Account",
        "id": "4af7a7fb-e594-e5b3-43b9-969188e0c692",
        "identifier": [
          {
            "value": "AC555444444"
          }
        ]
      },
      "request": {
        "method": "PUT",
        "url": "Account/4af7a7fb-e594-e5b3-43b9-969188e0c692"
      }
    },
    {
      "fullUrl": "urn:uuid:fe717593-882d-d154-271e-e93d5b114a0d",
      "resource": {
        "resourceType": "Organization",
        "id": "fe717593-882d-d154-271e-e93d5b114a0d",
        "identifier": [
          {
            "value": "ELAB-3"
          }
        ],
        "destination": [
          {
            "endpoint": "BLDG4"
          }
        ]
      },
      "request": {
        "method": "PUT",
        "url": "Organization/fe717593-882d-d154-271e-e93d5b114a0d"
      }
    },
    {
      "fullUrl": "urn:uuid:0ca81c8f-6cb0-10b0-91e8-7528b98f5691",
      "resource": {
        "resourceType": "DiagnosticReport",
        "id": "0ca81c8f-6cb0-10b0-91e8-7528b98f5691",
        "identifier": [
          {
            "type": {
              "coding": [
                {
                  "code": "FILL",
                  "system": "http://terminology.hl7.org/CodeSystem/v2-0203"
                }
              ]
            }
          },
          {
            "value": "845439"
          },
          {
            "value": "1045813"
          }
        ],
        "effectiveDateTime": "2002-02-15T07:30:00Z",
        "code": {
          "coding": [
            {
              "code": "15545",
              "display": "GLUCOSE"
            }
          ]
        },
        "status": "final",
        "result": [
          {
            "reference": "Observation/209c8566-dafa-22b6-31f6-e4c00e649c61"
          }
        ]
      },
      "request": {
        "method": "PUT",
        "url": "DiagnosticReport/0ca81c8f-6cb0-10b0-91e8-7528b98f5691"
      }
    },
    {
      "fullUrl": "urn:uuid:209c8566-dafa-22b6-31f6-e4c00e649c61",
      "resource": {
        "resourceType": "Observation",
        "id": "209c8566-dafa-22b6-31f6-e4c00e649c61",
        "code": {
          "coding": [
            {
              "code": "1554-5",
              "display": "GLUCOSE",
              "system": "POST 12H CFST:MCNC:PT:SER/PLAS:QN"
            }
          ]
        },
        "valueQuantity": {
          "code": "mg/dl"
        },
        "valueRange": {
          "low": {
            "value": "182"
          }
        },
        "interpretation": [
          {
            "coding": [
              {
                "code": "H",
                "display": "High",
                "system": "http://terminology.hl7.org/CodeSystem/v3-ObservationInterpretation"
              }
            ]
          }
        ],
        "status": "final",
        "component": [
          {
            "code": {
              "coding": [
                {
                  "code": "1554-5",
                  "display": "GLUCOSE",
                  "system": "POST 12H CFST:MCNC:PT:SER/PLAS:QN"
                }
              ]
            },
            "valueQuantity": {
              "code": "mg/dl"
            },
            "valueRange": {
              "low": {
                "value": "182"
              }
            },
            "referenceRange": [
              {
                "text": "70_105"
              }
            ],
            "interpretation": [
              {
                "coding": [
                  {
                    "code": "H",
                    "display": "High",
                    "system": "http://terminology.hl7.org/CodeSystem/v3-ObservationInterpretation"
                  }
                ]
              }
            ]
          }
        ],
        "subject": {
          "reference": "Patient/92bee074-a5c5-3c79-1905-2ed380528150"
        }
      },
      "request": {
        "method": "PUT",
        "url": "Observation/209c8566-dafa-22b6-31f6-e4c00e649c61"
      }
    }
  ]
}