{
  "resourceType": "Bundle",
  "type": "batch",
  "entry": [
    {
      "fullUrl": "urn:uuid:80fe80d8-177d-5c49-88a3-574a1a3b949e",
      "resource": {
        "resourceType": "Composition",
        "id": "80fe80d8-177d-5c49-88a3-574a1a3b949e",
        "identifier": {
          "use": "official",
          "value": "1.3.6.1.4.1.22812.3.99930.3.1"
        },
        "status": "final",
        "type": {
          "coding": [
            {
              "code": "34133-9",
              "display": "SUMMARIZATION OF EPISODE NOTE",
              "system": "http://loinc.org"
            }
          ]
        },
        "date": "2013-01-30T08:00:51-05:00",
        "title": "Continuity of Care Document",
        "confidentiality": "V",
        "attester": [
          {
            "mode": "legal",
            "time": "2013-01-30T08:00:51-05:00",
            "party": {
              "reference": "Practitioner/b14b88db-3f12-cd84-2ddb-b2e6cab1f3c0"
            }
          }
        ],
        "event": [
          {
            "period": {
              "start": "2012-08-15T09:00:51-05:00",
              "end": "2013-01-30T08:00:51-05:00"
            }
          }
        ],
        "section": [
          {
            "title": "Reason For Referral",
            "text": {
              "status": "generated",
              "div": "<div xmlns=\"http://www.w3.org/1999/xhtml\">Reason For Referral</div>"
            },
            "code": {
              "coding": [
                {
                  "code": "42349-1",
                  "display": "Reason For Referral",
                  "system": "http://loinc.org"
                }
              ]
            },
            "mode": "snapshot"
          },
          {
            "title": "Functional Status",
            "text": {
              "status": "generated",
              "div": "<div xmlns=\"http://www.w3.org/1999/xhtml\">Functional Status</div>"
            },
            "code": {
              "coding": [
                {
                  "code": "47420-5",
                  "display": "Functional Status",
                  "system": "http://loinc.org"
                }
              ]
            },
            "mode": "snapshot"
          },
          {
            "title": "Problems",
            "text": {
              "status": "generated",
              "div": "<div xmlns=\"http://www.w3.org/1999/xhtml\">Problems</div>"
            },
            "code": {
              "coding": [
                {
                  "code": "11450-4",
                  "display": "Problem List",
                  "system": "http://loinc.org"
                }
              ]
            },
            "mode": "snapshot"
          },
          {
            "title": "Medications",
            "text": {
              "status": "generated",
              "div": "<div xmlns=\"http://www.w3.org/1999/xhtml\">Medications</div>"
            },
            "code": {
              "coding": [
                {
                  "code": "10160-0",
                  "display": "History of medication use",
                  "system": "http://loinc.org"
                }
              ]
            },
            "mode": "snapshot"
          },
          {
            "title": "Allergies and Adverse Reactions",
            "text": {
              "status": "generated",
              "div": "<div xmlns=\"http://www.w3.org/1999/xhtml\">Allergies and Adverse Reactions</div>"
            },
            "code": {
              "coding": [
                {
                  "code": "48765-2",
                  "display": "Allergies, adverse reactions, alerts",
                  "system": "http://loinc.org"
                }
              ]
            },
            "mode": "snapshot"
          },
          {
            "title": "Immunization",
            "text": {
              "status": "generated",
              "div": "<div xmlns=\"http://www.w3.org/1999/xhtml\">Immunization</div>"
            },
            "code": {
              "coding": [
                {
                  "code": "11369-6",
                  "display": "Immunizations",
                  "system": "http://loinc.org"
                }
              ]
            },
            "mode": "snapshot"
          },
          {
            "title": "Social History",
            "text": {
              "status": "generated",
              "div": "<div xmlns=\"http://www.w3.org/1999/xhtml\">Social History</div>"
            },
            "code": {
              "coding": [
                {
                  "code": "29762-2",
                  "display": "Social History",
                  "system": "http://loinc.org"
                }
              ]
            },
            "mode": "snapshot"
          },
          {
            "title": "Vital Signs",
            "text": {
              "status": "generated",
              "div": "<div xmlns=\"http://www.w3.org/1999/xhtml\">Vital Signs</div>"
            },
            "code": {
              "coding": [
                {
                  "code": "8716-3",
                  "display": "Vital Signs",
                  "system": "http://loinc.org"
                }
              ]
            },
            "mode": "snapshot"
          },
          {
            "title": "Results",
            "text": {
              "status": "generated",
              "div": "<div xmlns=\"http://www.w3.org/1999/xhtml\">Results</div>"
            },
            "code": {
              "coding": [
                {
                  "code": "30954-2",
                  "display": "Relevant diagnostic tests and/or laboratory data",
                  "system": "http://loinc.org"
                }
              ]
            },
            "mode": "snapshot"
          },
          {
            "title": "Plan of Care",
            "text": {
              "status": "generated",
              "div": "<div xmlns=\"http://www.w3.org/1999/xhtml\">Plan of Care</div>"
            },
            "code": {
              "coding": [
                {
                  "code": "18776-5",
                  "display": "Plan of Care",
                  "system": "http://loinc.org"
                }
              ]
            },
            "mode": "snapshot"
          },
          {
            "title": "Instructions",
            "text": {
              "status": "generated",
              "div": "<div xmlns=\"http://www.w3.org/1999/xhtml\">Instructions</div>"
            },
            "code": {
              "coding": [
                {
                  "code": "69730-0",
                  "display": "Instructions",
                  "system": "http://loinc.org"
                }
              ]
            },
            "mode": "snapshot"
          },
          {
            "title": "Encounters",
            "text": {
              "status": "generated",
              "div": "<div xmlns=\"http://www.w3.org/1999/xhtml\">Encounters</div>"
            },
            "code": {
              "coding": [
                {
                  "code": "46240-8",
                  "display": "Encounters",
                  "system": "http://loinc.org"
                }
              ]
            },
            "mode": "snapshot"
          }
        ],
        "subject": {
          "reference": "Patient/a656b459-dec5-7b46-77eb-41c20c9a5901"
        },
        "encounter": {
          "reference": "Encounter/27f04c7f-8603-8e19-14b8-c8b5cee1f87f"
        },
        "custodian": {
          "reference": "Organization/e43c8521-43e8-af8f-23fe-a3ab2556e7fc"
        },
        "author": [
          {
            "reference": "Practitioner/b14b88db-3f12-cd84-2ddb-b2e6cab1f3c0"
          },
          {
            "reference": "Device/20249d1d-01be-7214-0e99-0950cbdbdbbd"
          }
        ]
      },
      "request": {
        "method": "PUT",
        "url": "Composition/80fe80d8-177d-5c49-88a3-574a1a3b949e"
      }
    },
    {
      "fullUrl": "urn:uuid:b14b88db-3f12-cd84-2ddb-b2e6cab1f3c0",
      "resource": {
        "resourceType": "Practitioner",
        "id": "b14b88db-3f12-cd84-2ddb-b2e6cab1f3c0",
        "meta": {
          "profile": [
            "http://hl7.org/fhir/us/core/StructureDefinition/us-core-practitioner"
          ]
        },
        "identifier": [
          {
            "system": "http://hl7.org/fhir/sid/us-npi",
            "value": "1111111111"
          },
          {
            "system": "urn:oid:1.3.6.1.4.1.22812.3.99930.3",
            "value": "91138"
          }
        ],
        "name": [
          {
            "family": "Khan",
            "given": [
              "Samir"
            ],
            "prefix": [
              "Dr"
            ]
          }
        ],
        "address": [
          {
            "line": [
              "Get Well Clinic",
              "1004 Healthcare Dr."
            ],
            "city": "Portland",
            "state": "OR",
            "country": "US",
            "postalCode": "97005"
          }
        ],
        "telecom": [
          {
            "system": "phone",
            "value": "+1-(555)555-1004"
          }
        ]
      },
      "request": {
        "method": "PUT",
        "url": "Practitioner/b14b88db-3f12-cd84-2ddb-b2e6cab1f3c0"
      }
    },
    {
      "fullUrl": "urn:uuid:27f04c7f-8603-8e19-14b8-c8b5cee1f87f",
      "resource": {
        "resourceType": "Encounter",
        "id": "27f04c7f-8603-8e19-14b8-c8b5cee1f87f",
        "status": "unknown",
        "identifier": [
          {
            "system": "urn:oid:1.3.6.1.4.1.22812.3.99930.3.3.4",
            "value": "5283815"
          }
        ],
        "period": {
          "start": "2012-08-15T09:00:51-05:00",
          "end": "2013-01-30T08:00:51-05:00"
        }
      },
      "request": {
        "method": "PUT",
        "url": "Encounter/27f04c7f-8603-8e19-14b8-c8b5cee1f87f"
      }
    },
    {
      "fullUrl": "urn:uuid:e43c8521-43e8-af8f-23fe-a3ab2556e7fc",
      "resource": {
        "resourceType": "Organization",
        "id": "e43c8521-43e8-af8f-23fe-a3ab2556e7fc",
        "identifier": [
          {
            "system": "urn:oid:1.3.6.1.4.1.22812.3.99930.3",
            "value": "3"
          }
        ],
        "name": "Get Well Clinic",
        "address": [
          {
            "line": [
              "Get Well Clinic",
              "1004 Healthcare Dr."
            ],
            "city": "Portland",
            "state": "OR",
            "country": "US",
            "postalCode": "97005"
          }
        ],
        "telecom": [
          {
            "system": "phone",
            "value": "+1-(555)555-1004"
          }
        ]
      },
      "request": {
        "method": "PUT",
        "url": "Organization/e43c8521-43e8-af8f-23fe-a3ab2556e7fc"
      }
    },
    {
      "fullUrl": "urn:uuid:20249d1d-01be-7214-0e99-0950cbdbdbbd",
      "resource": {
        "resourceType": "Device",
        "id": "20249d1d-01be-7214-0e99-0950cbdbdbbd",
        "identifier": [
          {
            "system": "urn:oid:1.3.6.1.4.1.22812.3.99930.3.3.3",
            "value": "3"
          }
        ],
        "type": {
          "coding": [
            {
              "display": "Enterprise EHR Clinical System 11.200.4210.17305"
            }
          ]
        },
        "manufacturer": "Enterprise EHR Clinical System 11.200.4210.17305",
        "version": [
          {
            "value": "Enterprise EHR Clinical System 11.200.4210.17305; Transform 4.1.1.18"
          }
        ],
        "owner": {
          "reference": "Organization/e43c8521-43e8-af8f-23fe-a3ab2556e7fc"
        }
      },
      "request": {
        "method": "PUT",
        "url": "Device/20249d1d-01be-7214-0e99-0950cbdbdbbd"
      }
    },
    {
      "fullUrl": "urn:uuid:a656b459-dec5-7b46-77eb-41c20c9a5901",
      "resource": {
        "resourceType": "Patient",
        "id": "a656b459-dec5-7b46-77eb-41c20c9a5901",
        "meta": {
          "profile": [
            "http://hl7.org/fhir/us/core/StructureDefinition/us-core-patient"
          ]
        },
        "identifier": [
          {
            "system": "urn:oid:1.3.6.1.4.1.22812.3.99930.3",
            "value": "110107073916280"
          }
        ],
        "name": [
          {
            "family": "Everyman",
            "given": [
              "Adam"
            ]
          }
        ],
        "birthDate": "1962-10-22",
        "gender": "male",
        "extension": [
          {
            "url": "http://hl7.org/fhir/us/core/StructureDefinition/us-core-race",
            "extension": [
              {
                "url": "ombCategory",
                "valueCoding": {
                  "code": "2106-3",
                  "display": "White"
                }
              },
              {
                "url": "text",
                "valueString": "White"
              }
            ]
          },
          {
            "url": "http://hl7.org/fhir/us/core/StructureDefinition/us-core-ethnicity",
            "extension": [
              {
                "url": "ombCategory",
                "valueCoding": {
                  "code": "2186-5",
                  "display": "Not Hispanic or Latino"
                }
              },
              {
                "url": "text",
                "valueString": "Not Hispanic or Latino"
              }
            ]
          }
        ],
        "address": [
          {
            "use": "home",
            "line": [
              "1234 Six Forks"
            ],
            "city": "Portland",
            "state": "OR",
            "country": "US",
            "postalCode": "97005"
          }
        ],
        "telecom": [
          {
            "system": "phone",
            "value": "+1-(555)555-3333",
            "use": "home"
          }
        ],
        "communication": [
          {
            "language": {
              "coding": [
                {
                  "system": "urn:ietf:bcp:47",
                  "code": "en",
                  "display": "English"
                }
              ]
            },
            "preferred": true
          }
        ]
      },
      "request": {
        "method": "PUT",
        "url": "Patient/a656b459-dec5-7b46-77eb-41c20c9a5901"
      }
    },
    {
      "fullUrl": "urn:uuid:12e87e27-180f-afd8-20e7-339c5523ec06",
      "resource": {
        "resourceType": "AllergyIntolerance",
        "id": "12e87e27-180f-afd8-20e7-339c5523ec06",
        "identifier": [
          {
            "system": "urn:oid:1.3.6.1.4.1.22812.3.99930.3.4.10.2",
            "value": "613618700107"
          },
          {
            "system": "urn:oid:1.3.6.1.4.1.22812.3.99930.3.4.10.2",
            "value": "613618700109"
          }
        ],
        "clinicalStatus": {
          "coding": [
            {
              "system": "http://terminology.hl7.org/CodeSystem/allergyintolerance-clinical",
              "code": "resolved"
            }
          ]
        },
        "reaction": [
          {
            "substance": {
              "coding": [
                {
                  "code": "7982",
                  "display": "Penicillin G benzathine",
                  "system": "http://www.nlm.nih.gov/research/umls/rxnorm"
                }
              ]
            }
          },
          {
            "substance": {
              "coding": [
                {
                  "code": "7982",
                  "display": "Penicillin G benzathine",
                  "system": "http://www.nlm.nih.gov/research/umls/rxnorm"
                }
              ]
            },
            "manifestation": [
              {
                "coding": [
                  {
                    "code": "247472004",
                    "display": "Hives",
                    "system": "http://snomed.info/sct"
                  }
                ]
              }
            ]
          }
        ],
        "onsetDateTime": "1998-01-10",
        "patient": {
          "reference": "Patient/a656b459-dec5-7b46-77eb-41c20c9a5901"
        }
      },
      "request": {
        "method": "PUT",
        "url": "AllergyIntolerance/12e87e27-180f-afd8-20e7-339c5523ec06"
      }
    },
    {
      "fullUrl": "urn:uuid:7d350356-8624-88a9-1f47-ef8aa46e4fcc",
      "resource": {
        "resourceType": "AllergyIntolerance",
        "id": "7d350356-8624-88a9-1f47-ef8aa46e4fcc",
        "identifier": [
          {
            "system": "urn:oid:1.3.6.1.4.1.22812.3.99930.3.4.10.2",
            "value": "624373800001"
          },
          {
            "system": "urn:oid:1.3.6.1.4.1.22812.3.99930.3.4.10.2",
            "value": "637073500005"
          }
        ],
        "clinicalStatus": {
          "coding": [
            {
              "system": "http://terminology.hl7.org/CodeSystem/allergyintolerance-clinical",
              "code": "resolved"
            }
          ]
        },
        "reaction": [
          {
            "substance": {
              "coding": [
                {
                  "code": "261000",
                  "display": "Codeine phosphate",
                  "system": "http://snomed.info/sct"
                }
              ]
            }
          },
          {
            "substance": {
              "coding": [
                {
                  "code": "261000",
                  "display": "Codeine phosphate",
                  "system": "http://snomed.info/sct"
                }
              ]
            },
            "manifestation": [
              {
                "coding": [
                  {
                    "code": "422587007",
                    "display": "Nausea",
                    "system": "http://snomed.info/sct"
                  }
                ]
              }
            ]
          }
        ],
        "onsetDateTime": "2001-01-10T00:00:00-05:00",
        "patient": {
          "reference": "Patient/a656b459-dec5-7b46-77eb-41c20c9a5901"
        }
      },
      "request": {
        "method": "PUT",
        "url": "AllergyIntolerance/7d350356-8624-88a9-1f47-ef8aa46e4fcc"
      }
    },
    {
      "fullUrl": "urn:uuid:abb18e38-90ce-4de5-a3e5-ab0c4d425514",
      "resource": {
        "resourceType": "MedicationStatement",
        "id": "abb18e38-90ce-4de5-a3e5-ab0c4d425514",
        "identifier": [
          {
            "system": "urn:oid:1.3.6.1.4.1.22812.3.99930.3.4.9",
            "value": "659122500005"
          },
          {
            "system": "urn:oid:1.3.6.1.4.1.22812.3.99930.3.4.9",
            "value": "659122500007"
          }
        ],
        "dosage": [
          {
            "doseAndRate": [
              {
                "doseQuantity": {
                  "value": 2,
                  "unit": "Puffs"
                }
              }
            ]
          }
        ],
        "subject": {
          "reference": "Patient/a656b459-dec5-7b46-77eb-41c20c9a5901"
        },
        "medicationReference": {
          "reference": "Medication/d7ad4ff0-a6d7-9116-c7b9-d101b8e94a64"
        }
      },
      "request": {
        "method": "PUT",
        "url": "MedicationStatement/abb18e38-90ce-4de5-a3e5-ab0c4d425514"
      }
    },
    {
      "fullUrl": "urn:uuid:d7ad4ff0-a6d7-9116-c7b9-d101b8e94a64",
      "resource": {
        "resourceType": "Medication",
        "id": "d7ad4ff0-a6d7-9116-c7b9-d101b8e94a64",
        "code": {
          "coding": [
            {
              "code": "573621",
              "display": "Albuterol 0.09 MG/ACTUAT metered dose",
              "system": "http://www.nlm.nih.gov/research/umls/rxnorm"
            }
          ]
        }
      },
      "request": {
        "method": "PUT",
        "url": "Medication/d7ad4ff0-a6d7-9116-c7b9-d101b8e94a64"
      }
    },
    {
      "fullUrl": "urn:uuid:59e62b16-7bf1-9449-f347-dfbfbe5222ba",
      "resource": {
        "resourceType": "Condition",
        "id": "59e62b16-7bf1-9449-f347-dfbfbe5222ba",
        "identifier": [
          {
            "system": "urn:oid:1.3.6.1.4.1.22812.3.99930.3.4.1.2.1",
            "value": "615028800003"
          },
          {
            "system": "urn:oid:1.3.6.1.4.1.22812.3.99930.3.4.1.2.1",
            "value": "659935200001"
          }
        ],
        "code": {
          "coding": [
            {
              "code": "64109004",
              "display": "Costochondritis",
              "system": "http://snomed.info/sct"
            }
          ]
        },
        "onsetDateTime": "2012-08-15",
        "subject": {
          "reference": "Patient/a656b459-dec5-7b46-77eb-41c20c9a5901"
        }
      },
      "request": {
        "method": "PUT",
        "url": "Condition/59e62b16-7bf1-9449-f347-dfbfbe5222ba"
      }
    },
    {
      "fullUrl": "urn:uuid:f7618b98-ca54-3470-9ace-79628a903d86",
      "resource": {
        "resourceType": "Condition",
        "id": "f7618b98-ca54-3470-9ace-79628a903d86",
        "identifier": [
          {
            "system": "urn:oid:1.3.6.1.4.1.22812.3.99930.3.4.1.2.1",
            "value": "636842200007"
          },
          {
            "system": "urn:oid:1.3.6.1.4.1.22812.3.99930.3.4.1.2.1",
            "value": "660100900011"
          }
        ],
        "code": {
          "coding": [
            {
              "code": "195967001",
              "display": "Asthma",
              "system": "http://snomed.info/sct"
            }
          ]
        },
        "onsetDateTime": "2011-09-25T01:00:00-04:00",
        "subject": {
          "reference": "Patient/a656b459-dec5-7b46-77eb-41c20c9a5901"
        }
      },
      "request": {
        "method": "PUT",
        "url": "Condition/f7618b98-ca54-3470-9ace-79628a903d86"
      }
    },
    {
      "fullUrl": "urn:uuid:d6ecf212-dcda-ffc5-e08e-25bd755d3281",
      "resource": {
        "resourceType": "DiagnosticReport",
        "id": "d6ecf212-dcda-ffc5-e08e-25bd755d3281",
        "identifier": [
          {
            "system": "urn:oid:1.3.6.1.4.1.22812.3.99930.3.4.5",
            "value": "659988700005"
          }
        ],
        "status": "final",
        "code": {
          "coding": [
            {
              "code": "82374",
              "display": "CO2",
              "system": "http://www.ama-assn.org/go/cpt"
            }
          ]
        },
        "effectiveDateTime": "2012-08-15",
        "subject": {
          "reference": "Patient/a656b459-dec5-7b46-77eb-41c20c9a5901"
        },
        "performer": [
          {
            "reference": "Practitioner/7aa34e67-c584-ddc5-64b5-17988d4d9fab"
          }
        ],
        "result": [
          {
            "reference": "Observation/e4e0e09b-592c-d2ce-9dc6-cc6c4303c698"
          }
        ]
      },
      "request": {
        "method": "PUT",
        "url": "DiagnosticReport/d6ecf212-dcda-ffc5-e08e-25bd755d3281"
      }
    },
    {
      "fullUrl": "urn:uuid:7aa34e67-c584-ddc5-64b5-17988d4d9fab",
      "resource": {
        "resourceType": "Practitioner",
        "id": "7aa34e67-c584-ddc5-64b5-17988d4d9fab",
        "meta": {
          "profile": [
            "http://hl7.org/fhir/us/core/StructureDefinition/us-core-practitioner"
          ]
        },
        "identifier": [
          {
            "system": "urn:oid:1.3.6.1.4.1.22812.3.99930.3",
            "value": "3333"
          }
        ],
        "name": [
          {
            "family": "Nightingale",
            "given": [
              "Nancy"
            ],
            "suffix": [
              "RN"
            ]
          }
        ],
        "address": [
          {
            "line": [
              "Get Well Clinic",
              "1004 Healthcare Dr."
            ],
            "city": "Portland",
            "state": "OR",
            "country": "US",
            "postalCode": "97005"
          }
        ],
        "telecom": [
          {
            "system": "phone",
            "value": "+1-(555)555-1014"
          }
        ]
      },
      "request": {
        "method": "PUT",
        "url": "Practitioner/7aa34e67-c584-ddc5-64b5-17988d4d9fab"
      }
    },
    {
      "fullUrl": "urn:uuid:e4e0e09b-592c-d2ce-9dc6-cc6c4303c698",
      "resource": {
        "resourceType": "Observation",
        "id": "e4e0e09b-592c-d2ce-9dc6-cc6c4303c698",
        "meta": {
          "profile": [
            "http://hl7.org/fhir/us/core/StructureDefinition/us-core-observationresults"
          ]
        },
        "identifier": [
          {
            "system": "urn:oid:1.3.6.1.4.1.22812.3.99930.3.4.5",
            "value": "6599887000031"
          },
          {
            "system": "urn:oid:1.3.6.1.4.1.22812.3.99930.3.4.5",
            "value": "6599889000031"
          }
        ],
        "category": [
          {
            "coding": [
              {
                "system": "http://terminology.hl7.org/CodeSystem/observation-category",
                "code": "laboratory"
              }
            ]
          }
        ],
        "status": "final",
        "code": {
          "coding": [
            {
              "code": "2028-9",
              "display": "CO2",
              "system": "http://loinc.org"
            }
          ]
        },
        "effectiveDateTime": "2012-08-15",
        "valueQuantity": {
          "value": 25,
          "unit": "mmol/L"
        },
        "subject": {
          "reference": "Patient/a656b459-dec5-7b46-77eb-41c20c9a5901"
        }
      },
      "request": {
        "method": "PUT",
        "url": "Observation/e4e0e09b-592c-d2ce-9dc6-cc6c4303c698"
      }
    },
    {
      "fullUrl": "urn:uuid:5e203a24-4f4d-92ad-1afd-67edbeb18004",
      "resource": {
        "resourceType": "Observation",
        "id": "5e203a24-4f4d-92ad-1afd-67edbeb18004",
        "meta": {
          "profile": [
            "http://hl7.org/fhir/us/core/StructureDefinition/us-core-observationresults"
          ]
        },
        "category": [
          {
            "coding": [
              {
                "system": "http://terminology.hl7.org/CodeSystem/observation-category",
                "code": "social-history"
              }
            ]
          }
        ],
        "status": "final",
        "code": {
          "coding": [
            {
              "code": "ASSERTION",
              "display": "Assertion",
              "system": "urn:oid:2.16.840.1.113883.5.4"
            }
          ]
        },
        "effectivePeriod": {
          "start": "2012"
        },
        "valueCodeableConcept": {
          "coding": [
            {
              "code": "266919005",
              "display": "Never smoker",
              "system": "http://snomed.info/sct"
            }
          ]
        },
        "subject": {
          "reference": "Patient/a656b459-dec5-7b46-77eb-41c20c9a5901"
        }
      },
      "request": {
        "method": "PUT",
        "url": "Observation/5e203a24-4f4d-92ad-1afd-67edbeb18004"
      }
    },
    {
      "fullUrl": "urn:uuid:fe7a527f-e3af-84b6-65ac-248dcfd7a9ac",
      "resource": {
        "resourceType": "Observation",
        "id": "fe7a527f-e3af-84b6-65ac-248dcfd7a9ac",
        "meta": {
          "profile": [
            "http://hl7.org/fhir/us/core/StructureDefinition/us-core-observationresults"
          ]
        },
        "category": [
          {
            "coding": [
              {
                "system": "http://terminology.hl7.org/CodeSystem/observation-category",
                "code": "social-history"
              }
            ]
          }
        ],
        "status": "final",
        "code": {
          "coding": [
            {
              "code": "ASSERTION",
              "display": "Assertion",
              "system": "urn:oid:2.16.840.1.113883.5.4"
            }
          ]
        },
        "effectivePeriod": {
          "start": "2012"
        },
        "valueCodeableConcept": {
          "coding": [
            {
              "code": "428041000124106",
              "display": "Current some day smoker",
              "system": "http://snomed.info/sct"
            }
          ]
        },
        "subject": {
          "reference": "Patient/a656b459-dec5-7b46-77eb-41c20c9a5901"
        }
      },
      "request": {
        "method": "PUT",
        "url": "Observation/fe7a527f-e3af-84b6-65ac-248dcfd7a9ac"
      }
    },
    {
      "fullUrl": "urn:uuid:9449eea3-40a3-8b4f-25a4-174ef5a47a6a",
      "resource": {
        "resourceType": "Immunization",
        "id": "9449eea3-40a3-8b4f-25a4-174ef5a47a6a",
        "identifier": [
          {
            "system": "urn:oid:1.3.6.1.4.1.22812.3.99930.3.4.4",
            "value": "637382500009"
          },
          {
            "system": "urn:oid:1.3.6.1.4.1.22812.3.99930.3.4.4",
            "value": "637382500011"
          }
        ],
        "occurrenceDateTime": "2012-08-15",
        "vaccineCode": {
          "coding": [
            {
              "code": "88",
              "display": "Influenza virus vaccine",
              "system": "urn:oid:2.16.840.1.113883.12.292"
            }
          ]
        },
        "status": "completed",
        "route": {
          "coding": [
            {
              "code": "C28161",
              "display": "INTRAMUSCULAR",
              "system": "urn:oid:2.16.840.1.113883.3.26.1.1"
            }
          ]
        },
        "site": {
          "coding": [
            {
              "code": "368208006",
              "display": "Left Arm",
              "system": "http://snomed.info/sct"
            }
          ]
        },
        "patient": {
          "reference": "Patient/a656b459-dec5-7b46-77eb-41c20c9a5901"
        }
      },
      "request": {
        "method": "PUT",
        "url": "Immunization/9449eea3-40a3-8b4f-25a4-174ef5a47a6a"
      }
    },
    {
      "fullUrl": "urn:uuid:a3193e11-6898-b8bc-5d6b-e04cb4479e18",
      "resource": {
        "resourceType": "DocumentReference",
        "id": "a3193e11-6898-b8bc-5d6b-e04cb4479e18",
        "type": {
          "coding": [
            {
              "code": "34133-9",
              "display": "SUMMARIZATION OF EPISODE NOTE",
              "system": "http://loinc.org"
            }
          ]
        },
        "date": "2024-10-31T15:05:04.622Z",
        "status": "current",
        "content": [
          {
            "attachment": {
              "contentType": "text/plain",
              "data": "",
              "hash": "ZWNkOGE4N2Q0MDI5YzZmNGM1MGU1ZWNiYzFjOTQ5NzZkZmJmNzlhYg=="
            }
          }
        ]
      },
      "request": {
        "method": "PUT",
        "url": "DocumentReference/a3193e11-6898-b8bc-5d6b-e04cb4479e18"
      }
    }
  ]
}