{
  "resourceType": "Bundle",
  "type": "batch",
  "entry": [
    {
      "fullUrl": "urn:uuid:6b87b270-87b3-8228-88a1-cce874b81907",
      "resource": {
        "resourceType": "Composition",
        "id": "6b87b270-87b3-8228-88a1-cce874b81907",
        "identifier": {
          "use": "official",
          "value": "2.16.840.1.113883.19.5.99999.1"
        },
        "status": "final",
        "type": {
          "coding": [
            {
              "code": "34133-9",
              "display": "Summarization of Episode Note",
              "system": "http://loinc.org"
            }
          ]
        },
        "date": "2013-08-15T10:30:00-08:00",
        "title": "Patient Chart Summary",
        "confidentiality": "N",
        "attester": [
          {
            "mode": "legal",
            "time": "2013-08-15T22:36:15-08:00",
            "party": {
              "reference": "Practitioner/b0ac12ce-9e58-22b8-f79a-aba2409dac02"
            }
          }
        ],
        "event": [
          {
            "period": {
              "start": "1975-05-01",
              "end": "2013-08-15"
            }
          }
        ],
        "section": [
          {
            "title": "ADVANCE DIRECTIVES",
            "text": {
              "status": "generated",
              "div": "<div xmlns=\"http://www.w3.org/1999/xhtml\">ADVANCE DIRECTIVES</div>"
            },
            "code": {
              "coding": [
                {
                  "code": "42348-3",
                  "system": "http://loinc.org"
                }
              ]
            },
            "mode": "snapshot"
          },
          {
            "title": "ALLERGIES AND ADVERSE REACTIONS",
            "text": {
              "status": "generated",
              "div": "<div xmlns=\"http://www.w3.org/1999/xhtml\">ALLERGIES AND ADVERSE REACTIONS</div>"
            },
            "code": {
              "coding": [
                {
                  "code": "48765-2",
                  "system": "http://loinc.org"
                }
              ]
            },
            "mode": "snapshot"
          },
          {
            "title": "ENCOUNTERS",
            "text": {
              "status": "generated",
              "div": "<div xmlns=\"http://www.w3.org/1999/xhtml\">ENCOUNTERS</div>"
            },
            "code": {
              "coding": [
                {
                  "code": "46240-8",
                  "display": "History of encounters",
                  "system": "http://loinc.org"
                }
              ]
            },
            "mode": "snapshot"
          },
          {
            "title": "FAMILY HISTORY",
            "text": {
              "status": "generated",
              "div": "<div xmlns=\"http://www.w3.org/1999/xhtml\">FAMILY HISTORY</div>"
            },
            "code": {
              "coding": [
                {
                  "code": "10157-6",
                  "system": "http://loinc.org"
                }
              ]
            },
            "mode": "snapshot"
          },
          {
            "title": "FUNCTIONAL STATUS",
            "text": {
              "status": "generated",
              "div": "<div xmlns=\"http://www.w3.org/1999/xhtml\">FUNCTIONAL STATUS</div>"
            },
            "code": {
              "coding": [
                {
                  "code": "47420-5",
                  "display": "Functional Status",
                  "system": "http://loinc.org"
                }
              ]
            },
            "mode": "snapshot"
          },
          {
            "title": "IMMUNIZATIONS",
            "text": {
              "status": "generated",
              "div": "<div xmlns=\"http://www.w3.org/1999/xhtml\">IMMUNIZATIONS</div>"
            },
            "code": {
              "coding": [
                {
                  "code": "11369-6",
                  "display": "History of immunizations",
                  "system": "http://loinc.org"
                }
              ]
            },
            "mode": "snapshot"
          },
          {
            "title": "MEDICAL EQUIPMENT",
            "text": {
              "status": "generated",
              "div": "<div xmlns=\"http://www.w3.org/1999/xhtml\">MEDICAL EQUIPMENT</div>"
            },
            "code": {
              "coding": [
                {
                  "code": "46264-8",
                  "system": "http://loinc.org"
                }
              ]
            },
            "mode": "snapshot"
          },
          {
            "title": "MEDICATIONS",
            "text": {
              "status": "generated",
              "div": "<div xmlns=\"http://www.w3.org/1999/xhtml\">MEDICATIONS</div>"
            },
            "code": {
              "coding": [
                {
                  "code": "10160-0",
                  "display": "HISTORY OF MEDICATION USE",
                  "system": "http://loinc.org"
                }
              ]
            },
            "mode": "snapshot"
          },
          {
            "title": "INSURANCE PROVIDERS",
            "text": {
              "status": "generated",
              "div": "<div xmlns=\"http://www.w3.org/1999/xhtml\">INSURANCE PROVIDERS</div>"
            },
            "code": {
              "coding": [
                {
                  "code": "48768-6",
                  "display": "Payer",
                  "system": "http://loinc.org"
                }
              ]
            },
            "mode": "snapshot"
          },
          {
            "title": "TREATMENT PLAN",
            "text": {
              "status": "generated",
              "div": "<div xmlns=\"http://www.w3.org/1999/xhtml\">TREATMENT PLAN</div>"
            },
            "code": {
              "coding": [
                {
                  "code": "18776-5",
                  "display": "Treatment plan",
                  "system": "http://loinc.org"
                }
              ]
            },
            "mode": "snapshot"
          },
          {
            "title": "PROBLEMS",
            "text": {
              "status": "generated",
              "div": "<div xmlns=\"http://www.w3.org/1999/xhtml\">PROBLEMS</div>"
            },
            "code": {
              "coding": [
                {
                  "code": "11450-4",
                  "display": "PROBLEM LIST",
                  "system": "http://loinc.org"
                }
              ]
            },
            "mode": "snapshot"
          },
          {
            "title": "PROCEDURES",
            "text": {
              "status": "generated",
              "div": "<div xmlns=\"http://www.w3.org/1999/xhtml\">PROCEDURES</div>"
            },
            "code": {
              "coding": [
                {
                  "code": "47519-4",
                  "display": "HISTORY OF PROCEDURES",
                  "system": "http://loinc.org"
                }
              ]
            },
            "mode": "snapshot"
          },
          {
            "title": "RESULTS",
            "text": {
              "status": "generated",
              "div": "<div xmlns=\"http://www.w3.org/1999/xhtml\">RESULTS</div>"
            },
            "code": {
              "coding": [
                {
                  "code": "30954-2",
                  "display": "RESULTS",
                  "system": "http://loinc.org"
                }
              ]
            },
            "mode": "snapshot"
          },
          {
            "title": "SOCIAL HISTORY",
            "text": {
              "status": "generated",
              "div": "<div xmlns=\"http://www.w3.org/1999/xhtml\">SOCIAL HISTORY</div>"
            },
            "code": {
              "coding": [
                {
                  "code": "29762-2",
                  "display": "Social History",
                  "system": "http://loinc.org"
                }
              ]
            },
            "mode": "snapshot"
          },
          {
            "title": "VITAL SIGNS",
            "text": {
              "status": "generated",
              "div": "<div xmlns=\"http://www.w3.org/1999/xhtml\">VITAL SIGNS</div>"
            },
            "code": {
              "coding": [
                {
                  "code": "8716-3",
                  "display": "VITAL SIGNS",
                  "system": "http://loinc.org"
                }
              ]
            },
            "mode": "snapshot"
          }
        ],
        "subject": {
          "reference": "Patient/aca97b95-3c1c-ce73-ac65-f520242997a9"
        },
        "custodian": {
          "reference": "Organization/63407f17-1d85-02ee-516d-1fc729e6eae9"
        },
        "author": [
          {
            "reference": "Practitioner/b0ac12ce-9e58-22b8-f79a-aba2409dac02"
          }
        ]
      },
      "request": {
        "method": "PUT",
        "url": "Composition/6b87b270-87b3-8228-88a1-cce874b81907"
      }
    },
    {
      "fullUrl": "urn:uuid:b0ac12ce-9e58-22b8-f79a-aba2409dac02",
      "resource": {
        "resourceType": "Practitioner",
        "id": "b0ac12ce-9e58-22b8-f79a-aba2409dac02",
        "meta": {
          "profile": [
            "http://hl7.org/fhir/us/core/StructureDefinition/us-core-practitioner"
          ]
        },
        "identifier": [
          {
            "system": "http://hl7.org/fhir/sid/us-npi",
            "value": "5555555555"
          }
        ],
        "name": [
          {
            "family": "Primary",
            "given": [
              "Patricia",
              "Patty"
            ],
            "suffix": [
              "M.D."
            ]
          }
        ],
        "address": [
          {
            "line": [
              "1004 Healthcare Drive "
            ],
            "city": "Portland",
            "state": "OR",
            "country": "US",
            "postalCode": "99123"
          }
        ],
        "telecom": [
          {
            "system": "phone",
            "value": "+1(555)555-1004",
            "use": "work"
          }
        ],
        "qualification": [
          {
            "code": {
              "coding": [
                {
                  "code": "207QA0505X",
                  "display": "Adult Medicine",
                  "system": "http://nucc.org/provider-taxonomy"
                }
              ]
            }
          }
        ]
      },
      "request": {
        "method": "PUT",
        "url": "Practitioner/b0ac12ce-9e58-22b8-f79a-aba2409dac02"
      }
    },
    {
      "fullUrl": "urn:uuid:63407f17-1d85-02ee-516d-1fc729e6eae9",
      "resource": {
        "resourceType": "Organization",
        "id": "63407f17-1d85-02ee-516d-1fc729e6eae9",
        "identifier": [
          {
            "system": "http://hl7.org/fhir/sid/us-npi",
            "value": "321CX"
          }
        ],
        "name": "Good Health HIE",
        "address": [
          {
            "use": "work",
            "line": [
              "1009 Healthcare Drive "
            ],
            "city": "Portland",
            "state": "OR",
            "country": "US",
            "postalCode": "99123"
          }
        ],
        "telecom": [
          {
            "system": "phone",
            "value": "+1(555)555-1009",
            "use": "work"
          }
        ]
      },
      "request": {
        "method": "PUT",
        "url": "Organization/63407f17-1d85-02ee-516d-1fc729e6eae9"
      }
    },
    {
      "fullUrl": "urn:uuid:aca97b95-3c1c-ce73-ac65-f520242997a9",
      "resource": {
        "resourceType": "Patient",
        "id": "aca97b95-3c1c-ce73-ac65-f520242997a9",
        "meta": {
          "profile": [
            "http://hl7.org/fhir/us/core/StructureDefinition/us-core-patient"
          ]
        },
        "identifier": [
          {
            "system": "http://hl7.org/fhir/sid/us-ssn",
            "value": "444222222"
          }
        ],
        "name": [
          {
            "use": "usual",
            "family": "Betterhalf",
            "given": [
              "Eve"
            ]
          }
        ],
        "birthDate": "1975-05-01",
        "gender": "female",
        "extension": [
          {
            "url": "http://hl7.org/fhir/us/core/StructureDefinition/us-core-race",
            "extension": [
              {
                "url": "ombCategory",
                "valueCoding": {
                  "code": "2106-3",
                  "display": "White"
                }
              },
              {
                "url": "ombCategory",
                "valueCoding": {
                  "code": "2076-8",
                  "display": "Hawaiian or Other Pacific Islander"
                }
              },
              {
                "url": "text",
                "valueString": "Mixed"
              }
            ]
          },
          {
            "url": "http://hl7.org/fhir/us/core/StructureDefinition/us-core-ethnicity",
            "extension": [
              {
                "url": "ombCategory",
                "valueCoding": {
                  "code": "2186-5",
                  "display": "Not Hispanic or Latino"
                }
              },
              {
                "url": "text",
                "valueString": "Not Hispanic or Latino"
              }
            ]
          }
        ],
        "address": [
          {
            "use": "home",
            "line": [
              "2222 Home Street"
            ],
            "city": "Beaverton",
            "state": "OR",
            "country": "US",
            "postalCode": "97867"
          }
        ],
        "telecom": [
          {
            "system": "phone",
            "value": "+1(555)555-2003",
            "use": "home"
          }
        ],
        "communication": [
          {
            "language": {
              "coding": [
                {
                  "system": "urn:ietf:bcp:47",
                  "code": "en",
                  "display": "English"
                }
              ]
            },
            "preferred": true
          }
        ]
      },
      "request": {
        "method": "PUT",
        "url": "Patient/aca97b95-3c1c-ce73-ac65-f520242997a9"
      }
    },
    {
      "fullUrl": "urn:uuid:1e516bfc-532c-65a4-45e2-e8536f0eb630",
      "resource": {
        "resourceType": "RelatedPerson",
        "id": "1e516bfc-532c-65a4-45e2-e8536f0eb630",
        "relationship": [
          {
            "coding": [
              {
                "code": "POWATT",
                "display": "Power of Attorney",
                "system": "urn:oid:2.16.840.1.113883.1.11.19830"
              }
            ]
          }
        ],
        "name": [
          {
            "family": "Betterhalf",
            "given": [
              "Boris",
              "Bo"
            ]
          }
        ],
        "telecom": [
          {
            "system": "phone",
            "value": "+1(555)555-2008",
            "use": "mobile"
          }
        ],
        "address": [
          {
            "use": "home",
            "line": [
              "2222 Home Street"
            ],
            "city": "Beaverton",
            "state": "OR",
            "country": "US",
            "postalCode": "97867"
          }
        ],
        "patient": {
          "reference": "Patient/aca97b95-3c1c-ce73-ac65-f520242997a9"
        }
      },
      "request": {
        "method": "PUT",
        "url": "RelatedPerson/1e516bfc-532c-65a4-45e2-e8536f0eb630"
      }
    },
    {
      "fullUrl": "urn:uuid:0cf3d0f5-caa9-38c8-5930-0f48bf641121",
      "resource": {
        "resourceType": "AllergyIntolerance",
        "id": "0cf3d0f5-caa9-38c8-5930-0f48bf641121",
        "identifier": [
          {
            "system": "urn:ietf:rfc:3986",
            "value": "urn:uuid:4adc1020-7b14-11db-9fe1-0800200c9a66"
          }
        ],
        "clinicalStatus": {
          "coding": [
            {
              "system": "http://terminology.hl7.org/CodeSystem/allergyintolerance-clinical",
              "code": "active"
            }
          ]
        },
        "reaction": [
          {
            "substance": {
              "coding": [
                {
                  "code": "7980",
                  "display": "Penicillin",
                  "system": "http://www.nlm.nih.gov/research/umls/rxnorm"
                }
              ]
            },
            "severity": "severe"
          },
          {
            "substance": {
              "coding": [
                {
                  "code": "7980",
                  "display": "Penicillin",
                  "system": "http://www.nlm.nih.gov/research/umls/rxnorm"
                }
              ]
            },
            "manifestation": [
              {
                "coding": [
                  {
                    "code": "422587007",
                    "display": "Nausea",
                    "system": "http://snomed.info/sct"
                  }
                ]
              }
            ],
            "onset": "2008-02-26T08:05:00-08:00"
          }
        ],
        "onsetDateTime": "1998-05-01",
        "patient": {
          "reference": "Patient/aca97b95-3c1c-ce73-ac65-f520242997a9"
        }
      },
      "request": {
        "method": "PUT",
        "url": "AllergyIntolerance/0cf3d0f5-caa9-38c8-5930-0f48bf641121"
      }
    },
    {
      "fullUrl": "urn:uuid:f7d522dc-81b4-606e-3b7e-f415bb7127dd",
      "resource": {
        "resourceType": "AllergyIntolerance",
        "id": "f7d522dc-81b4-606e-3b7e-f415bb7127dd",
        "identifier": [
          {
            "system": "urn:ietf:rfc:3986",
            "value": "urn:uuid:901db0f8-9355-4794-81cd-fd951ef07917"
          }
        ],
        "clinicalStatus": {
          "coding": [
            {
              "system": "http://terminology.hl7.org/CodeSystem/allergyintolerance-clinical",
              "code": "active"
            }
          ]
        },
        "reaction": [
          {
            "substance": {
              "coding": [
                {
                  "code": "2670",
                  "display": "Codeine",
                  "system": "http://www.nlm.nih.gov/research/umls/rxnorm"
                }
              ]
            },
            "manifestation": [
              {
                "coding": [
                  {
                    "code": "56018004",
                    "display": "Wheezing",
                    "system": "http://snomed.info/sct"
                  }
                ]
              }
            ]
          },
          {
            "substance": {
              "coding": [
                {
                  "code": "2670",
                  "display": "Codeine",
                  "system": "http://www.nlm.nih.gov/research/umls/rxnorm"
                }
              ]
            },
            "severity": "mild"
          }
        ],
        "patient": {
          "reference": "Patient/aca97b95-3c1c-ce73-ac65-f520242997a9"
        }
      },
      "request": {
        "method": "PUT",
        "url": "AllergyIntolerance/f7d522dc-81b4-606e-3b7e-f415bb7127dd"
      }
    },
    {
      "fullUrl": "urn:uuid:e27dbd08-821f-270f-7edc-345bf29540a6",
      "resource": {
        "resourceType": "MedicationStatement",
        "id": "e27dbd08-821f-270f-7edc-345bf29540a6",
        "identifier": [
          {
            "system": "urn:ietf:rfc:3986",
            "value": "urn:uuid:cdbd33f0-6cde-11db-9fe1-0800200c9a66"
          }
        ],
        "dosage": [
          {
            "doseAndRate": [
              {
                "doseQuantity": {
                  "value": 2
                }
              }
            ]
          }
        ],
        "subject": {
          "reference": "Patient/aca97b95-3c1c-ce73-ac65-f520242997a9"
        },
        "medicationReference": {
          "reference": "Medication/24fc2162-97d1-b8b5-b8ab-39a9cd87d621"
        }
      },
      "request": {
        "method": "PUT",
        "url": "MedicationStatement/e27dbd08-821f-270f-7edc-345bf29540a6"
      }
    },
    {
      "fullUrl": "urn:uuid:24fc2162-97d1-b8b5-b8ab-39a9cd87d621",
      "resource": {
        "resourceType": "Medication",
        "id": "24fc2162-97d1-b8b5-b8ab-39a9cd87d621",
        "code": {
          "coding": [
            {
              "code": "573621",
              "display": "Proventil 0.09 MG/ACTUAT inhalant solution",
              "system": "http://www.nlm.nih.gov/research/umls/rxnorm"
            }
          ]
        }
      },
      "request": {
        "method": "PUT",
        "url": "Medication/24fc2162-97d1-b8b5-b8ab-39a9cd87d621"
      }
    },
    {
      "fullUrl": "urn:uuid:0b2ef420-3e23-f746-a68f-c8f6f10906b5",
      "resource": {
        "resourceType": "MedicationRequest",
        "id": "0b2ef420-3e23-f746-a68f-c8f6f10906b5",
        "intent": "order",
        "status": "completed",
        "subject": {
          "reference": "Patient/aca97b95-3c1c-ce73-ac65-f520242997a9"
        },
        "medicationReference": {
          "reference": "Medication/24fc2162-97d1-b8b5-b8ab-39a9cd87d621"
        },
        "requester": {
          "reference": "Practitioner/b0ac12ce-9e58-22b8-f79a-aba2409dac02"
        }
      },
      "request": {
        "method": "PUT",
        "url": "MedicationRequest/0b2ef420-3e23-f746-a68f-c8f6f10906b5"
      }
    },
    {
      "fullUrl": "urn:uuid:ee69cedd-b031-c4b4-f0cd-0db266dd89b3",
      "resource": {
        "resourceType": "MedicationRequest",
        "id": "ee69cedd-b031-c4b4-f0cd-0db266dd89b3",
        "identifier": [
          {
            "system": "urn:oid:1.2.3.4.56789.1",
            "value": "cb734647-fc99-424c-a864-7e3cda82e704"
          }
        ],
        "intent": "order",
        "status": "completed",
        "subject": {
          "reference": "Patient/aca97b95-3c1c-ce73-ac65-f520242997a9"
        },
        "medicationReference": {
          "reference": "Medication/24fc2162-97d1-b8b5-b8ab-39a9cd87d621"
        }
      },
      "request": {
        "method": "PUT",
        "url": "MedicationRequest/ee69cedd-b031-c4b4-f0cd-0db266dd89b3"
      }
    },
    {
      "fullUrl": "urn:uuid:b7bf5e52-57b0-08be-82bf-cac3be34019d",
      "resource": {
        "resourceType": "MedicationStatement",
        "id": "b7bf5e52-57b0-08be-82bf-cac3be34019d",
        "identifier": [
          {
            "system": "urn:ietf:rfc:3986",
            "value": "urn:uuid:6c844c75-aa34-411c-b7bd-5e4a9f206e29"
          }
        ],
        "dosage": [
          {
            "doseAndRate": [
              {
                "doseQuantity": {
                  "value": 1
                }
              }
            ]
          }
        ],
        "subject": {
          "reference": "Patient/aca97b95-3c1c-ce73-ac65-f520242997a9"
        },
        "medicationReference": {
          "reference": "Medication/092be6cb-127b-02a1-f7b1-ce1d289f9368"
        }
      },
      "request": {
        "method": "PUT",
        "url": "MedicationStatement/b7bf5e52-57b0-08be-82bf-cac3be34019d"
      }
    },
    {
      "fullUrl": "urn:uuid:092be6cb-127b-02a1-f7b1-ce1d289f9368",
      "resource": {
        "resourceType": "Medication",
        "id": "092be6cb-127b-02a1-f7b1-ce1d289f9368",
        "code": {
          "coding": [
            {
              "code": "197380",
              "display": "Atenolol 25 MG Oral Tablet",
              "system": "http://www.nlm.nih.gov/research/umls/rxnorm"
            }
          ]
        }
      },
      "request": {
        "method": "PUT",
        "url": "Medication/092be6cb-127b-02a1-f7b1-ce1d289f9368"
      }
    },
    {
      "fullUrl": "urn:uuid:c4760c6c-9c3c-06ec-353e-548868f4cc98",
      "resource": {
        "resourceType": "Condition",
        "id": "c4760c6c-9c3c-06ec-353e-548868f4cc98",
        "identifier": [
          {
            "system": "urn:ietf:rfc:3986",
            "value": "urn:uuid:ab1791b0-5c71-11db-b0de-0800200c9a66"
          }
        ],
        "code": {
          "coding": [
            {
              "code": "233604007",
              "display": "Pneumonia",
              "system": "http://snomed.info/sct"
            }
          ]
        },
        "onsetDateTime": "2013-07-03",
        "subject": {
          "reference": "Patient/aca97b95-3c1c-ce73-ac65-f520242997a9"
        }
      },
      "request": {
        "method": "PUT",
        "url": "Condition/c4760c6c-9c3c-06ec-353e-548868f4cc98"
      }
    },
    {
      "fullUrl": "urn:uuid:97d9f3c7-76d1-be6a-c24f-e0400049db1b",
      "resource": {
        "resourceType": "Condition",
        "id": "97d9f3c7-76d1-be6a-c24f-e0400049db1b",
        "identifier": [
          {
            "system": "urn:ietf:rfc:3986",
            "value": "urn:uuid:11d088a8-b957-401c-8ee0-3bd20a772fc0"
          }
        ],
        "code": {
          "coding": [
            {
              "code": "29857009",
              "display": "Chest pain",
              "system": "http://snomed.info/sct"
            }
          ]
        },
        "onsetDateTime": "2007-04-14",
        "subject": {
          "reference": "Patient/aca97b95-3c1c-ce73-ac65-f520242997a9"
        }
      },
      "request": {
        "method": "PUT",
        "url": "Condition/97d9f3c7-76d1-be6a-c24f-e0400049db1b"
      }
    },
    {
      "fullUrl": "urn:uuid:8077bb92-0b62-cb0f-5ef9-9b396aada379",
      "resource": {
        "resourceType": "Condition",
        "id": "8077bb92-0b62-cb0f-5ef9-9b396aada379",
        "identifier": [
          {
            "system": "urn:ietf:rfc:3986",
            "value": "urn:uuid:4991db40-4c4f-41e8-9146-50c12d716424"
          }
        ],
        "code": {
          "coding": [
            {
              "code": "194828000",
              "display": "Angina",
              "system": "http://snomed.info/sct"
            }
          ]
        },
        "onsetDateTime": "2007-04-17",
        "subject": {
          "reference": "Patient/aca97b95-3c1c-ce73-ac65-f520242997a9"
        }
      },
      "request": {
        "method": "PUT",
        "url": "Condition/8077bb92-0b62-cb0f-5ef9-9b396aada379"
      }
    },
    {
      "fullUrl": "urn:uuid:163a1e81-9f38-df48-eef3-9553705117bb",
      "resource": {
        "resourceType": "Condition",
        "id": "163a1e81-9f38-df48-eef3-9553705117bb",
        "identifier": [
          {
            "system": "urn:ietf:rfc:3986",
            "value": "urn:uuid:10506b4d-c30a-4220-8bec-97bff9568fd1"
          }
        ],
        "code": {
          "coding": [
            {
              "code": "233604007",
              "display": "Pneumonia",
              "system": "http://snomed.info/sct"
            }
          ]
        },
        "onsetDateTime": "1998-03-10",
        "subject": {
          "reference": "Patient/aca97b95-3c1c-ce73-ac65-f520242997a9"
        }
      },
      "request": {
        "method": "PUT",
        "url": "Condition/163a1e81-9f38-df48-eef3-9553705117bb"
      }
    },
    {
      "fullUrl": "urn:uuid:58c77d27-4a19-fa72-6ac5-78a91544f9ea",
      "resource": {
        "resourceType": "DiagnosticReport",
        "id": "58c77d27-4a19-fa72-6ac5-78a91544f9ea",
        "identifier": [
          {
            "system": "urn:ietf:rfc:3986",
            "value": "urn:uuid:7d5a02b0-67a4-11db-bd13-0800200c9a66"
          }
        ],
        "status": "final",
        "code": {
          "coding": [
            {
              "code": "57021-8",
              "display": "CBC W Auto Differential panel in Blood",
              "system": "http://loinc.org"
            }
          ]
        },
        "effectivePeriod": {
          "start": "2008-03-19T08:30:00-08:00",
          "end": "2008-03-19T08:30:00-08:00"
        },
        "subject": {
          "reference": "Patient/aca97b95-3c1c-ce73-ac65-f520242997a9"
        },
        "result": [
          {
            "reference": "Observation/eb4ec292-00c7-9a02-09b7-69e980dafd83"
          },
          {
            "reference": "Observation/91793394-4e7a-b396-6268-619dc0869bed"
          },
          {
            "reference": "Observation/34c27912-f2aa-bb75-2d5d-bcd3250c85bf"
          },
          {
            "reference": "Observation/21b4deea-e551-1ff8-e8b7-709ff71a4371"
          },
          {
            "reference": "Observation/a3cae148-2861-ce60-664f-758cf0c52887"
          }
        ]
      },
      "request": {
        "method": "PUT",
        "url": "DiagnosticReport/58c77d27-4a19-fa72-6ac5-78a91544f9ea"
      }
    },
    {
      "fullUrl": "urn:uuid:eb4ec292-00c7-9a02-09b7-69e980dafd83",
      "resource": {
        "resourceType": "Observation",
        "id": "eb4ec292-00c7-9a02-09b7-69e980dafd83",
        "meta": {
          "profile": [
            "http://hl7.org/fhir/us/core/StructureDefinition/us-core-observationresults"
          ]
        },
        "identifier": [
          {
            "system": "urn:ietf:rfc:3986",
            "value": "urn:uuid:107c2dc0-67a5-11db-bd13-0800200c9a66"
          }
        ],
        "category": [
          {
            "coding": [
              {
                "system": "http://terminology.hl7.org/CodeSystem/observation-category",
                "code": "laboratory"
              }
            ]
          }
        ],
        "status": "final",
        "code": {
          "coding": [
            {
              "code": "718-7",
              "display": "Hemoglobin",
              "system": "http://loinc.org"
            }
          ]
        },
        "effectiveDateTime": "2008-03-19T08:30:00-08:00",
        "valueQuantity": {
          "value": 13.2,
          "unit": "g/dL"
        },
        "referenceRange": [
          {
            "low": {
              "value": 12.0,
              "unit": "g/dL"
            },
            "high": {
              "value": 15.5,
              "unit": "g/dL"
            }
          }
        ],
        "interpretation": [
          {
            "coding": [
              {
                "code": "N",
                "system": "http://terminology.hl7.org/CodeSystem/v3-ObservationInterpretation"
              }
            ]
          }
        ],
        "subject": {
          "reference": "Patient/aca97b95-3c1c-ce73-ac65-f520242997a9"
        },
        "performer": [
          {
            "reference": "Practitioner/f02faa7a-9472-70c5-2aa4-ecad5340bc01"
          }
        ]
      },
      "request": {
        "method": "PUT",
        "url": "Observation/eb4ec292-00c7-9a02-09b7-69e980dafd83"
      }
    },
    {
      "fullUrl": "urn:uuid:f02faa7a-9472-70c5-2aa4-ecad5340bc01",
      "resource": {
        "resourceType": "Practitioner",
        "id": "f02faa7a-9472-70c5-2aa4-ecad5340bc01",
        "meta": {
          "profile": [
            "http://hl7.org/fhir/us/core/StructureDefinition/us-core-practitioner"
          ]
        },
        "identifier": [
          {
            "system": "http://hl7.org/fhir/sid/us-npi",
            "value": "333444444"
          }
        ],
        "qualification": [
          {
            "code": {
              "coding": [
                {
                  "code": "246Q00000X",
                  "display": "Technician, Pathology",
                  "system": "http://nucc.org/provider-taxonomy"
                }
              ]
            }
          }
        ]
      },
      "request": {
        "method": "PUT",
        "url": "Practitioner/f02faa7a-9472-70c5-2aa4-ecad5340bc01"
      }
    },
    {
      "fullUrl": "urn:uuid:91793394-4e7a-b396-6268-619dc0869bed",
      "resource": {
        "resourceType": "Observation",
        "id": "91793394-4e7a-b396-6268-619dc0869bed",
        "meta": {
          "profile": [
            "http://hl7.org/fhir/us/core/StructureDefinition/us-core-observationresults"
          ]
        },
        "identifier": [
          {
            "system": "urn:ietf:rfc:3986",
            "value": "urn:uuid:a69b3d60-2ffd-4440-958b-72b3335ff35f"
          }
        ],
        "category": [
          {
            "coding": [
              {
                "system": "http://terminology.hl7.org/CodeSystem/observation-category",
                "code": "laboratory"
              }
            ]
          }
        ],
        "status": "final",
        "code": {
          "coding": [
            {
              "code": "6690-2",
              "display": "Leukocytes",
              "system": "http://loinc.org"
            }
          ]
        },
        "effectiveDateTime": "2008-03-19T08:30:00-08:00",
        "valueQuantity": {
          "value": 6.7,
          "unit": "10*9/L"
        },
        "referenceRange": [
          {
            "low": {
              "value": 4.3,
              "unit": "10*9/L"
            },
            "high": {
              "value": 10.8,
              "unit": "10*9/L"
            }
          }
        ],
        "interpretation": [
          {
            "coding": [
              {
                "code": "N",
                "system": "http://terminology.hl7.org/CodeSystem/v3-ObservationInterpretation"
              }
            ]
          }
        ],
        "subject": {
          "reference": "Patient/aca97b95-3c1c-ce73-ac65-f520242997a9"
        },
        "performer": [
          {
            "reference": "Practitioner/f02faa7a-9472-70c5-2aa4-ecad5340bc01"
          }
        ]
      },
      "request": {
        "method": "PUT",
        "url": "Observation/91793394-4e7a-b396-6268-619dc0869bed"
      }
    },
    {
      "fullUrl": "urn:uuid:34c27912-f2aa-bb75-2d5d-bcd3250c85bf",
      "resource": {
        "resourceType": "Observation",
        "id": "34c27912-f2aa-bb75-2d5d-bcd3250c85bf",
        "meta": {
          "profile": [
            "http://hl7.org/fhir/us/core/StructureDefinition/us-core-observationresults"
          ]
        },
        "identifier": [
          {
            "system": "urn:ietf:rfc:3986",
            "value": "urn:uuid:ef5c1c58-4665-4556-a8e8-6e720d82f572"
          }
        ],
        "category": [
          {
            "coding": [
              {
                "system": "http://terminology.hl7.org/CodeSystem/observation-category",
                "code": "laboratory"
              }
            ]
          }
        ],
        "status": "final",
        "code": {
          "coding": [
            {
              "code": "777-3",
              "display": "Platelets",
              "system": "http://loinc.org"
            }
          ]
        },
        "effectiveDateTime": "2008-03-19T08:30:00-08:00",
        "valueQuantity": {
          "value": 123,
          "unit": "10*9/L"
        },
        "referenceRange": [
          {
            "low": {
              "value": 150,
              "unit": "10*9/L"
            },
            "high": {
              "value": 350,
              "unit": "10*9/L"
            }
          }
        ],
        "interpretation": [
          {
            "coding": [
              {
                "code": "LX",
                "system": "http://terminology.hl7.org/CodeSystem/v3-ObservationInterpretation"
              }
            ]
          }
        ],
        "subject": {
          "reference": "Patient/aca97b95-3c1c-ce73-ac65-f520242997a9"
        },
        "performer": [
          {
            "reference": "Practitioner/f02faa7a-9472-70c5-2aa4-ecad5340bc01"
          }
        ]
      },
      "request": {
        "method": "PUT",
        "url": "Observation/34c27912-f2aa-bb75-2d5d-bcd3250c85bf"
      }
    },
    {
      "fullUrl": "urn:uuid:21b4deea-e551-1ff8-e8b7-709ff71a4371",
      "resource": {
        "resourceType": "Observation",
        "id": "21b4deea-e551-1ff8-e8b7-709ff71a4371",
        "meta": {
          "profile": [
            "http://hl7.org/fhir/us/core/StructureDefinition/us-core-observationresults"
          ]
        },
        "identifier": [
          {
            "system": "urn:ietf:rfc:3986",
            "value": "urn:uuid:7c0704bb-9c40-41b5-9c7d-26b2d59e234f"
          }
        ],
        "category": [
          {
            "coding": [
              {
                "system": "http://terminology.hl7.org/CodeSystem/observation-category",
                "code": "laboratory"
              }
            ]
          }
        ],
        "status": "final",
        "code": {
          "coding": [
            {
              "code": "4544-3",
              "display": "Hematocrit",
              "system": "http://loinc.org"
            }
          ]
        },
        "effectiveDateTime": "2008-03-19T08:30:00-08:00",
        "valueQuantity": {
          "value": 35.3,
          "unit": "%"
        },
        "referenceRange": [
          {
            "low": {
              "value": 34.9,
              "unit": "%"
            },
            "high": {
              "value": 44.5,
              "unit": "%"
            }
          }
        ],
        "interpretation": [
          {
            "coding": [
              {
                "code": "LX",
                "system": "http://terminology.hl7.org/CodeSystem/v3-ObservationInterpretation"
              }
            ]
          }
        ],
        "subject": {
          "reference": "Patient/aca97b95-3c1c-ce73-ac65-f520242997a9"
        },
        "performer": [
          {
            "reference": "Practitioner/f02faa7a-9472-70c5-2aa4-ecad5340bc01"
          }
        ]
      },
      "request": {
        "method": "PUT",
        "url": "Observation/21b4deea-e551-1ff8-e8b7-709ff71a4371"
      }
    },
    {
      "fullUrl": "urn:uuid:a3cae148-2861-ce60-664f-758cf0c52887",
      "resource": {
        "resourceType": "Observation",
        "id": "a3cae148-2861-ce60-664f-758cf0c52887",
        "meta": {
          "profile": [
            "http://hl7.org/fhir/us/core/StructureDefinition/us-core-observationresults"
          ]
        },
        "identifier": [
          {
            "system": "urn:ietf:rfc:3986",
            "value": "urn:uuid:bccd6fc9-0c7f-455e-8616-923ed0d04d09"
          }
        ],
        "category": [
          {
            "coding": [
              {
                "system": "http://terminology.hl7.org/CodeSystem/observation-category",
                "code": "laboratory"
              }
            ]
          }
        ],
        "status": "final",
        "code": {
          "coding": [
            {
              "code": "789-8",
              "display": "Erythrocytes",
              "system": "http://loinc.org"
            }
          ]
        },
        "effectiveDateTime": "2008-03-19T08:30:00-08:00",
        "valueQuantity": {
          "value": 4.21,
          "unit": "10*12/L"
        },
        "referenceRange": [
          {
            "low": {
              "value": 3.9,
              "unit": "10*12/L"
            },
            "high": {
              "value": 5.03,
              "unit": "10*12/L"
            }
          }
        ],
        "interpretation": [
          {
            "coding": [
              {
                "code": "N",
                "system": "http://terminology.hl7.org/CodeSystem/v3-ObservationInterpretation"
              }
            ]
          }
        ],
        "subject": {
          "reference": "Patient/aca97b95-3c1c-ce73-ac65-f520242997a9"
        },
        "performer": [
          {
            "reference": "Practitioner/f02faa7a-9472-70c5-2aa4-ecad5340bc01"
          }
        ]
      },
      "request": {
        "method": "PUT",
        "url": "Observation/a3cae148-2861-ce60-664f-758cf0c52887"
      }
    },
    {
      "fullUrl": "urn:uuid:0ec66926-8900-c1a8-53f8-a2042638d2fd",
      "resource": {
        "resourceType": "DiagnosticReport",
        "id": "0ec66926-8900-c1a8-53f8-a2042638d2fd",
        "identifier": [
          {
            "system": "urn:ietf:rfc:3986",
            "value": "urn:uuid:122ed3ae-6d9e-43d0-bfa2-434ea34b1426"
          }
        ],
        "code": {
          "coding": [
            {
              "code": "166312007",
              "display": "Blood chemistry test",
              "system": "http://snomed.info/sct"
            }
          ]
        },
        "effectivePeriod": {
          "start": "2008-03-20T09:30:00-08:00",
          "end": "2008-03-20T09:30:00-08:00"
        },
        "subject": {
          "reference": "Patient/aca97b95-3c1c-ce73-ac65-f520242997a9"
        },
        "result": [
          {
            "reference": "Observation/14d2ade8-4788-a395-e12f-5fc978073b6c"
          }
        ]
      },
      "request": {
        "method": "PUT",
        "url": "DiagnosticReport/0ec66926-8900-c1a8-53f8-a2042638d2fd"
      }
    },
    {
      "fullUrl": "urn:uuid:14d2ade8-4788-a395-e12f-5fc978073b6c",
      "resource": {
        "resourceType": "Observation",
        "id": "14d2ade8-4788-a395-e12f-5fc978073b6c",
        "meta": {
          "profile": [
            "http://hl7.org/fhir/us/core/StructureDefinition/us-core-observationresults"
          ]
        },
        "identifier": [
          {
            "system": "urn:ietf:rfc:3986",
            "value": "urn:uuid:aed821af-3330-4138-97f0-e84dfe5f3c35"
          }
        ],
        "category": [
          {
            "coding": [
              {
                "system": "http://terminology.hl7.org/CodeSystem/observation-category",
                "code": "laboratory"
              }
            ]
          }
        ],
        "code": {
          "coding": [
            {
              "code": "3094-0",
              "display": "Urea nitrogen, Serum",
              "system": "http://loinc.org"
            }
          ]
        },
        "effectiveDateTime": "2008-03-20T09:30:00-08:00",
        "subject": {
          "reference": "Patient/aca97b95-3c1c-ce73-ac65-f520242997a9"
        }
      },
      "request": {
        "method": "PUT",
        "url": "Observation/14d2ade8-4788-a395-e12f-5fc978073b6c"
      }
    },
    {
      "fullUrl": "urn:uuid:93df79b5-aba0-d25b-43e4-5a203cc30fb1",
      "resource": {
        "resourceType": "Observation",
        "id": "93df79b5-aba0-d25b-43e4-5a203cc30fb1",
        "meta": {
          "profile": [
            "http://hl7.org/fhir/us/core/StructureDefinition/us-core-observationresults"
          ]
        },
        "identifier": [
          {
            "system": "urn:oid:2.16.840.1.113883.19",
            "value": "123456789"
          }
        ],
        "category": [
          {
            "coding": [
              {
                "system": "http://terminology.hl7.org/CodeSystem/observation-category",
                "code": "social-history"
              }
            ]
          }
        ],
        "status": "final",
        "code": {
          "coding": [
            {
              "code": "72166-2",
              "display": "Tobacco smoking status NHIS",
              "system": "http://loinc.org"
            }
          ]
        },
        "effectiveDateTime": "2012-09-10",
        "valueCodeableConcept": {
          "coding": [
            {
              "code": "8517006",
              "display": "Former smoker",
              "system": "http://snomed.info/sct"
            }
          ]
        },
        "subject": {
          "reference": "Patient/aca97b95-3c1c-ce73-ac65-f520242997a9"
        }
      },
      "request": {
        "method": "PUT",
        "url": "Observation/93df79b5-aba0-d25b-43e4-5a203cc30fb1"
      }
    },
    {
      "fullUrl": "urn:uuid:06c3a616-9146-d982-b7ca-d3871ef981b9",
      "resource": {
        "resourceType": "Observation",
        "id": "06c3a616-9146-d982-b7ca-d3871ef981b9",
        "meta": {
          "profile": [
            "http://hl7.org/fhir/us/core/StructureDefinition/us-core-observationresults"
          ]
        },
        "identifier": [
          {
            "system": "urn:ietf:rfc:3986",
            "value": "urn:uuid:45efb604-7049-4a2e-ad33-d38556c9636c"
          }
        ],
        "category": [
          {
            "coding": [
              {
                "system": "http://terminology.hl7.org/CodeSystem/observation-category",
                "code": "social-history"
              }
            ]
          }
        ],
        "status": "final",
        "code": {
          "coding": [
            {
              "code": "11367-0",
              "display": "History of tobacco use",
              "system": "http://loinc.org"
            }
          ]
        },
        "effectivePeriod": {
          "start": "2009-02-14",
          "end": "2011-02-15"
        },
        "valueCodeableConcept": {
          "coding": [
            {
              "code": "160604004",
              "display": "Moderate cigarette smoker, 10-19/day",
              "system": "http://snomed.info/sct"
            }
          ]
        },
        "subject": {
          "reference": "Patient/aca97b95-3c1c-ce73-ac65-f520242997a9"
        }
      },
      "request": {
        "method": "PUT",
        "url": "Observation/06c3a616-9146-d982-b7ca-d3871ef981b9"
      }
    },
    {
      "fullUrl": "urn:uuid:8125b77f-4826-51f7-22dd-0458e27ccf9e",
      "resource": {
        "resourceType": "Observation",
        "id": "8125b77f-4826-51f7-22dd-0458e27ccf9e",
        "meta": {
          "profile": [
            "http://hl7.org/fhir/us/core/StructureDefinition/us-core-observationresults"
          ]
        },
        "identifier": [
          {
            "system": "urn:ietf:rfc:3986",
            "value": "urn:uuid:37f76c51-6411-4e1d-8a37-957fd49d2cef"
          }
        ],
        "category": [
          {
            "coding": [
              {
                "system": "http://terminology.hl7.org/CodeSystem/observation-category",
                "code": "social-history"
              }
            ]
          }
        ],
        "status": "final",
        "code": {
          "coding": [
            {
              "code": "74013-4",
              "display": "Alcoholic drinks per day",
              "system": "http://loinc.org"
            }
          ]
        },
        "effectivePeriod": {
          "start": "2012-02-15"
        },
        "valueQuantity": {
          "value": 12
        },
        "subject": {
          "reference": "Patient/aca97b95-3c1c-ce73-ac65-f520242997a9"
        }
      },
      "request": {
        "method": "PUT",
        "url": "Observation/8125b77f-4826-51f7-22dd-0458e27ccf9e"
      }
    },
    {
      "fullUrl": "urn:uuid:727f3ab9-74ee-3e0b-d403-13310567ced5",
      "resource": {
        "resourceType": "Observation",
        "id": "727f3ab9-74ee-3e0b-d403-13310567ced5",
        "meta": {
          "profile": [
            "http://hl7.org/fhir/us/core/StructureDefinition/us-core-observationresults"
          ]
        },
        "identifier": [
          {
            "system": "urn:ietf:rfc:3986",
            "value": "urn:uuid:ed9589fd-fda0-41f7-a3d0-dc537554f5c2"
          }
        ],
        "category": [
          {
            "coding": [
              {
                "system": "http://terminology.hl7.org/CodeSystem/observation-category",
                "code": "vital-signs"
              }
            ]
          }
        ],
        "status": "final",
        "code": {
          "coding": [
            {
              "code": "8302-2",
              "display": "Height",
              "system": "http://loinc.org"
            }
          ]
        },
        "effectiveDateTime": "2012-09-10",
        "valueQuantity": {
          "value": 177,
          "unit": "cm"
        },
        "interpretation": [
          {
            "coding": [
              {
                "code": "N",
                "system": "http://terminology.hl7.org/CodeSystem/v3-ObservationInterpretation"
              }
            ]
          }
        ],
        "subject": {
          "reference": "Patient/aca97b95-3c1c-ce73-ac65-f520242997a9"
        }
      },
      "request": {
        "method": "PUT",
        "url": "Observation/727f3ab9-74ee-3e0b-d403-13310567ced5"
      }
    },
    {
      "fullUrl": "urn:uuid:e394ff0e-9112-a813-2423-af4019c50bd8",
      "resource": {
        "resourceType": "Observation",
        "id": "e394ff0e-9112-a813-2423-af4019c50bd8",
        "meta": {
          "profile": [
            "http://hl7.org/fhir/us/core/StructureDefinition/us-core-observationresults"
          ]
        },
        "identifier": [
          {
            "system": "urn:ietf:rfc:3986",
            "value": "urn:uuid:f4e729e2-a97f-4a7e-8e23-c92f9b6b55cf"
          }
        ],
        "category": [
          {
            "coding": [
              {
                "system": "http://terminology.hl7.org/CodeSystem/observation-category",
                "code": "vital-signs"
              }
            ]
          }
        ],
        "status": "final",
        "code": {
          "coding": [
            {
              "code": "3141-9",
              "display": "Patient Body Weight - Measured",
              "system": "http://loinc.org"
            }
          ]
        },
        "effectiveDateTime": "2012-09-10",
        "valueQuantity": {
          "value": 86,
          "unit": "kg"
        },
        "interpretation": [
          {
            "coding": [
              {
                "code": "N",
                "system": "http://terminology.hl7.org/CodeSystem/v3-ObservationInterpretation"
              }
            ]
          }
        ],
        "subject": {
          "reference": "Patient/aca97b95-3c1c-ce73-ac65-f520242997a9"
        }
      },
      "request": {
        "method": "PUT",
        "url": "Observation/e394ff0e-9112-a813-2423-af4019c50bd8"
      }
    },
    {
      "fullUrl": "urn:uuid:3acfc8ef-1617-9bc4-74cc-0e602b3c4fe8",
      "resource": {
        "resourceType": "Observation",
        "id": "3acfc8ef-1617-9bc4-74cc-0e602b3c4fe8",
        "meta": {
          "profile": [
            "http://hl7.org/fhir/us/core/StructureDefinition/us-core-observationresults"
          ]
        },
        "identifier": [
          {
            "system": "urn:ietf:rfc:3986",
            "value": "urn:uuid:a0e39c70-9674-4b2a-9837-cdf74200d8d5"
          }
        ],
        "category": [
          {
            "coding": [
              {
                "system": "http://terminology.hl7.org/CodeSystem/observation-category",
                "code": "vital-signs"
              }
            ]
          }
        ],
        "status": "final",
        "code": {
          "coding": [
            {
              "code": "8480-6",
              "display": "Intravascular Systolic",
              "system": "http://loinc.org"
            }
          ]
        },
        "effectiveDateTime": "2012-09-10",
        "valueQuantity": {
          "value": 132,
          "unit": "mm[Hg]"
        },
        "interpretation": [
          {
            "coding": [
              {
                "code": "N",
                "system": "http://terminology.hl7.org/CodeSystem/v3-ObservationInterpretation"
              }
            ]
          }
        ],
        "subject": {
          "reference": "Patient/aca97b95-3c1c-ce73-ac65-f520242997a9"
        }
      },
      "request": {
        "method": "PUT",
        "url": "Observation/3acfc8ef-1617-9bc4-74cc-0e602b3c4fe8"
      }
    },
    {
      "fullUrl": "urn:uuid:52bf4c6b-5531-cab1-a440-87302feaa219",
      "resource": {
        "resourceType": "Observation",
        "id": "52bf4c6b-5531-cab1-a440-87302feaa219",
        "meta": {
          "profile": [
            "http://hl7.org/fhir/us/core/StructureDefinition/us-core-observationresults"
          ]
        },
        "identifier": [
          {
            "system": "urn:ietf:rfc:3986",
            "value": "urn:uuid:1c2748b7-e440-41ba-bc01-dde97d84a036"
          }
        ],
        "category": [
          {
            "coding": [
              {
                "system": "http://terminology.hl7.org/CodeSystem/observation-category",
                "code": "vital-signs"
              }
            ]
          }
        ],
        "status": "final",
        "code": {
          "coding": [
            {
              "code": "8462-4",
              "display": "BP Diastolic",
              "system": "http://loinc.org"
            }
          ]
        },
        "effectiveDateTime": "2012-09-10",
        "valueQuantity": {
          "value": 88,
          "unit": "mm[Hg]"
        },
        "interpretation": [
          {
            "coding": [
              {
                "code": "N",
                "system": "http://terminology.hl7.org/CodeSystem/v3-ObservationInterpretation"
              }
            ]
          }
        ],
        "subject": {
          "reference": "Patient/aca97b95-3c1c-ce73-ac65-f520242997a9"
        }
      },
      "request": {
        "method": "PUT",
        "url": "Observation/52bf4c6b-5531-cab1-a440-87302feaa219"
      }
    },
    {
      "fullUrl": "urn:uuid:5296ab05-6a75-e102-9814-e6d8a90fdbdf",
      "resource": {
        "resourceType": "Observation",
        "id": "5296ab05-6a75-e102-9814-e6d8a90fdbdf",
        "meta": {
          "profile": [
            "http://hl7.org/fhir/us/core/StructureDefinition/us-core-observationresults"
          ]
        },
        "identifier": [
          {
            "system": "urn:ietf:rfc:3986",
            "value": "urn:uuid:05c047cd-28c3-41cd-be6c-56f8cc0c3f2f"
          }
        ],
        "category": [
          {
            "coding": [
              {
                "system": "http://terminology.hl7.org/CodeSystem/observation-category",
                "code": "vital-signs"
              }
            ]
          }
        ],
        "status": "final",
        "code": {
          "coding": [
            {
              "code": "8302-2",
              "display": "Height",
              "system": "http://loinc.org"
            }
          ]
        },
        "effectiveDateTime": "2011-09-01",
        "valueQuantity": {
          "value": 177,
          "unit": "cm"
        },
        "interpretation": [
          {
            "coding": [
              {
                "code": "N",
                "system": "http://terminology.hl7.org/CodeSystem/v3-ObservationInterpretation"
              }
            ]
          }
        ],
        "subject": {
          "reference": "Patient/aca97b95-3c1c-ce73-ac65-f520242997a9"
        }
      },
      "request": {
        "method": "PUT",
        "url": "Observation/5296ab05-6a75-e102-9814-e6d8a90fdbdf"
      }
    },
    {
      "fullUrl": "urn:uuid:33e54f57-b8f0-0fac-0107-732449ba4257",
      "resource": {
        "resourceType": "Observation",
        "id": "33e54f57-b8f0-0fac-0107-732449ba4257",
        "meta": {
          "profile": [
            "http://hl7.org/fhir/us/core/StructureDefinition/us-core-observationresults"
          ]
        },
        "identifier": [
          {
            "system": "urn:ietf:rfc:3986",
            "value": "urn:uuid:21b0f3d5-7d07-4f4f-ad7e-c33dc2ca3835"
          }
        ],
        "category": [
          {
            "coding": [
              {
                "system": "http://terminology.hl7.org/CodeSystem/observation-category",
                "code": "vital-signs"
              }
            ]
          }
        ],
        "status": "final",
        "code": {
          "coding": [
            {
              "code": "3141-9",
              "display": "Patient Body Weight - Measured",
              "system": "http://loinc.org"
            }
          ]
        },
        "effectiveDateTime": "2011-09-01",
        "valueQuantity": {
          "value": 88,
          "unit": "kg"
        },
        "interpretation": [
          {
            "coding": [
              {
                "code": "N",
                "system": "http://terminology.hl7.org/CodeSystem/v3-ObservationInterpretation"
              }
            ]
          }
        ],
        "subject": {
          "reference": "Patient/aca97b95-3c1c-ce73-ac65-f520242997a9"
        }
      },
      "request": {
        "method": "PUT",
        "url": "Observation/33e54f57-b8f0-0fac-0107-732449ba4257"
      }
    },
    {
      "fullUrl": "urn:uuid:995292f0-5dfb-dd53-02a5-eb79c41ef521",
      "resource": {
        "resourceType": "Observation",
        "id": "995292f0-5dfb-dd53-02a5-eb79c41ef521",
        "meta": {
          "profile": [
            "http://hl7.org/fhir/us/core/StructureDefinition/us-core-observationresults"
          ]
        },
        "identifier": [
          {
            "system": "urn:ietf:rfc:3986",
            "value": "urn:uuid:b046c35a-59c7-4215-ae09-9a8409a30b21"
          }
        ],
        "category": [
          {
            "coding": [
              {
                "system": "http://terminology.hl7.org/CodeSystem/observation-category",
                "code": "vital-signs"
              }
            ]
          }
        ],
        "status": "final",
        "code": {
          "coding": [
            {
              "code": "8480-6",
              "display": "BP Systolic",
              "system": "http://loinc.org"
            }
          ]
        },
        "effectiveDateTime": "2011-09-01",
        "valueQuantity": {
          "value": 128,
          "unit": "mm[Hg]"
        },
        "interpretation": [
          {
            "coding": [
              {
                "code": "N",
                "system": "http://terminology.hl7.org/CodeSystem/v3-ObservationInterpretation"
              }
            ]
          }
        ],
        "subject": {
          "reference": "Patient/aca97b95-3c1c-ce73-ac65-f520242997a9"
        }
      },
      "request": {
        "method": "PUT",
        "url": "Observation/995292f0-5dfb-dd53-02a5-eb79c41ef521"
      }
    },
    {
      "fullUrl": "urn:uuid:eb96c437-9bf5-812c-05aa-4149da0f5b7b",
      "resource": {
        "resourceType": "Observation",
        "id": "eb96c437-9bf5-812c-05aa-4149da0f5b7b",
        "meta": {
          "profile": [
            "http://hl7.org/fhir/us/core/StructureDefinition/us-core-observationresults"
          ]
        },
        "identifier": [
          {
            "system": "urn:ietf:rfc:3986",
            "value": "urn:uuid:44f54e66-fb4b-4ee5-9ced-9574ef307a23"
          }
        ],
        "category": [
          {
            "coding": [
              {
                "system": "http://terminology.hl7.org/CodeSystem/observation-category",
                "code": "vital-signs"
              }
            ]
          }
        ],
        "status": "final",
        "code": {
          "coding": [
            {
              "code": "8462-4",
              "display": "BP Diastolic",
              "system": "http://loinc.org"
            }
          ]
        },
        "effectiveDateTime": "2011-09-01",
        "valueQuantity": {
          "value": 80,
          "unit": "mm[Hg]"
        },
        "interpretation": [
          {
            "coding": [
              {
                "code": "N",
                "system": "http://terminology.hl7.org/CodeSystem/v3-ObservationInterpretation"
              }
            ]
          }
        ],
        "subject": {
          "reference": "Patient/aca97b95-3c1c-ce73-ac65-f520242997a9"
        }
      },
      "request": {
        "method": "PUT",
        "url": "Observation/eb96c437-9bf5-812c-05aa-4149da0f5b7b"
      }
    },
    {
      "fullUrl": "urn:uuid:1ecd40a7-abeb-e682-a650-4e24c2ea18c0",
      "resource": {
        "resourceType": "Procedure",
        "id": "1ecd40a7-abeb-e682-a650-4e24c2ea18c0",
        "meta": {
          "profile": [
            "http://hl7.org/fhir/us/core/StructureDefinition/us-core-procedure"
          ]
        },
        "identifier": [
          {
            "system": "urn:ietf:rfc:3986",
            "value": "urn:uuid:d68b7e32-7810-4f5b-9cc2-acd54b0fd85d"
          }
        ],
        "status": "completed",
        "code": {
          "coding": [
            {
              "code": "73761001",
              "display": "Colonoscopy",
              "system": "http://snomed.info/sct"
            }
          ]
        },
        "performedDateTime": "2012-05-12",
        "bodySite": [
          {
            "coding": [
              {
                "code": "485005",
                "display": "colon",
                "system": "http://snomed.info/sct"
              }
            ]
          }
        ],
        "subject": {
          "reference": "Patient/aca97b95-3c1c-ce73-ac65-f520242997a9"
        },
        "performer": [
          {
            "actor": {
              "reference": "Organization/059bb96e-4186-63b4-3185-3a473aa37437"
            }
          }
        ]
      },
      "request": {
        "method": "PUT",
        "url": "Procedure/1ecd40a7-abeb-e682-a650-4e24c2ea18c0"
      }
    },
    {
      "fullUrl": "urn:uuid:059bb96e-4186-63b4-3185-3a473aa37437",
      "resource": {
        "resourceType": "Organization",
        "id": "059bb96e-4186-63b4-3185-3a473aa37437",
        "identifier": [
          {
            "system": "urn:ietf:rfc:3986",
            "value": "urn:uuid:2.16.840.1.113883.19.5.9999.1393"
          }
        ],
        "name": "Community Health and Hospitals",
        "address": [
          {
            "line": [
              "1001 Village Avenue"
            ],
            "city": "Portland",
            "state": "OR",
            "country": "US",
            "postalCode": "99123"
          }
        ]
      },
      "request": {
        "method": "PUT",
        "url": "Organization/059bb96e-4186-63b4-3185-3a473aa37437"
      }
    },
    {
      "fullUrl": "urn:uuid:2b1dd5fc-5399-63d1-915f-3358337d23a7",
      "resource": {
        "resourceType": "Observation",
        "id": "2b1dd5fc-5399-63d1-915f-3358337d23a7",
        "meta": {
          "profile": [
            "http://hl7.org/fhir/us/core/StructureDefinition/us-core-observationresults"
          ]
        },
        "identifier": [
          {
            "system": "urn:oid:2.16.840.1.113883.19",
            "value": "123456789"
          }
        ],
        "category": [
          {
            "coding": [
              {
                "system": "http://terminology.hl7.org/CodeSystem/observation-category",
                "code": "procedure"
              }
            ]
          }
        ],
        "code": {
          "coding": [
            {
              "code": "274025005",
              "display": "Colonic polypectomy",
              "system": "http://snomed.info/sct"
            }
          ]
        },
        "effectiveDateTime": "2011-02-03",
        "bodySite": {
          "coding": [
            {
              "code": "416949008",
              "display": "Abdomen and pelvis",
              "system": "http://snomed.info/sct"
            }
          ]
        },
        "subject": {
          "reference": "Patient/aca97b95-3c1c-ce73-ac65-f520242997a9"
        }
      },
      "request": {
        "method": "PUT",
        "url": "Observation/2b1dd5fc-5399-63d1-915f-3358337d23a7"
      }
    },
    {
      "fullUrl": "urn:uuid:f2fe2c86-9b7a-92e6-cd9e-5c0227342f7c",
      "resource": {
        "resourceType": "Encounter",
        "id": "f2fe2c86-9b7a-92e6-cd9e-5c0227342f7c",
        "status": "unknown",
        "class": {
          "code": "99213",
          "display": "Office outpatient visit 15 minutes",
          "system": "http://www.ama-assn.org/go/cpt"
        },
        "identifier": [
          {
            "system": "urn:ietf:rfc:3986",
            "value": "urn:uuid:2a620155-9d11-439e-92b3-5d9815ff4de8"
          }
        ],
        "subject": {
          "reference": "Patient/aca97b95-3c1c-ce73-ac65-f520242997a9"
        },
        "participant": [
          {
            "individual": {
              "reference": "Practitioner/0ef51f13-0410-a467-311c-80185ea60201"
            }
          }
        ],
        "location": [
          {
            "location": {
              "reference": "Location/770f5de0-1d99-6322-44e6-fe6fa9dadeb4"
            }
          }
        ]
      },
      "request": {
        "method": "PUT",
        "url": "Encounter/f2fe2c86-9b7a-92e6-cd9e-5c0227342f7c"
      }
    },
    {
      "fullUrl": "urn:uuid:0ef51f13-0410-a467-311c-80185ea60201",
      "resource": {
        "resourceType": "Practitioner",
        "id": "0ef51f13-0410-a467-311c-80185ea60201",
        "meta": {
          "profile": [
            "http://hl7.org/fhir/us/core/StructureDefinition/us-core-practitioner"
          ]
        },
        "identifier": [
          {
            "system": "http://hl7.org/fhir/sid/us-npi",
            "value": "333444555"
          }
        ],
        "qualification": [
          {
            "code": {
              "coding": [
                {
                  "code": "59058001",
                  "display": "General Physician",
                  "system": "http://snomed.info/sct"
                }
              ]
            }
          }
        ]
      },
      "request": {
        "method": "PUT",
        "url": "Practitioner/0ef51f13-0410-a467-311c-80185ea60201"
      }
    },
    {
      "fullUrl": "urn:uuid:770f5de0-1d99-6322-44e6-fe6fa9dadeb4",
      "resource": {
        "resourceType": "Location",
        "id": "770f5de0-1d99-6322-44e6-fe6fa9dadeb4",
        "name": "Good Health Urgent Care",
        "address": {
          "line": [
            "1007 Health Drive"
          ],
          "city": "Portland",
          "state": "OR",
          "country": "US",
          "postalCode": "99123"
        },
        "telecom": [
          {
            "system": "phone",
            "value": "+1(555)555-1030",
            "use": "work"
          }
        ],
        "type": [
          {
            "coding": [
              {
                "code": "1160-1",
                "display": "Urgent Care Center",
                "system": "urn:oid:2.16.840.1.113883.6.259"
              }
            ]
          }
        ]
      },
      "request": {
        "method": "PUT",
        "url": "Location/770f5de0-1d99-6322-44e6-fe6fa9dadeb4"
      }
    },
    {
      "fullUrl": "urn:uuid:89c5cd98-0e08-96a3-36ea-58f24da33fd1",
      "resource": {
        "resourceType": "Immunization",
        "id": "89c5cd98-0e08-96a3-36ea-58f24da33fd1",
        "identifier": [
          {
            "system": "urn:ietf:rfc:3986",
            "value": "urn:uuid:e6f1ba43-c0ed-4b9b-9f12-f435d8ad8f92"
          }
        ],
        "occurrenceDateTime": "1999-11",
        "vaccineCode": {
          "coding": [
            {
              "code": "88",
              "display": "Influenza virus vaccine",
              "system": "http://hl7.org/fhir/sid/cvx"
            }
          ]
        },
        "status": "completed",
        "route": {
          "coding": [
            {
              "code": "C28161",
              "display": "Intramuscular injection",
              "system": "urn:oid:2.16.840.1.113883.3.26.1.1"
            }
          ]
        },
        "patient": {
          "reference": "Patient/aca97b95-3c1c-ce73-ac65-f520242997a9"
        }
      },
      "request": {
        "method": "PUT",
        "url": "Immunization/89c5cd98-0e08-96a3-36ea-58f24da33fd1"
      }
    },
    {
      "fullUrl": "urn:uuid:fb197a48-3c65-ce06-593e-c995e268c47a",
      "resource": {
        "resourceType": "Immunization",
        "id": "fb197a48-3c65-ce06-593e-c995e268c47a",
        "identifier": [
          {
            "system": "urn:ietf:rfc:3986",
            "value": "urn:uuid:e6f1ba43-c0ed-4b9b-9f12-f435d8ad8f92"
          }
        ],
        "occurrenceDateTime": "1998-12-15",
        "vaccineCode": {
          "coding": [
            {
              "code": "88",
              "display": "Influenza virus vaccine",
              "system": "http://hl7.org/fhir/sid/cvx"
            }
          ]
        },
        "status": "completed",
        "route": {
          "coding": [
            {
              "code": "C28161",
              "display": "Intramuscular injection",
              "system": "urn:oid:2.16.840.1.113883.3.26.1.1"
            }
          ]
        },
        "patient": {
          "reference": "Patient/aca97b95-3c1c-ce73-ac65-f520242997a9"
        }
      },
      "request": {
        "method": "PUT",
        "url": "Immunization/fb197a48-3c65-ce06-593e-c995e268c47a"
      }
    },
    {
      "fullUrl": "urn:uuid:34a8736a-fbdb-a99c-7df3-cc7ed7c553b7",
      "resource": {
        "resourceType": "Immunization",
        "id": "34a8736a-fbdb-a99c-7df3-cc7ed7c553b7",
        "identifier": [
          {
            "system": "urn:ietf:rfc:3986",
            "value": "urn:uuid:e6f1ba43-c0ed-4b9b-9f12-f435d8ad8f92"
          }
        ],
        "occurrenceDateTime": "1998-12-15",
        "vaccineCode": {
          "coding": [
            {
              "code": "33",
              "display": "Pneumococcal polysaccharide vaccine",
              "system": "http://hl7.org/fhir/sid/cvx"
            }
          ]
        },
        "status": "completed",
        "route": {
          "coding": [
            {
              "code": "C28161",
              "display": "Intramuscular injection",
              "system": "urn:oid:2.16.840.1.113883.3.26.1.1"
            }
          ]
        },
        "patient": {
          "reference": "Patient/aca97b95-3c1c-ce73-ac65-f520242997a9"
        }
      },
      "request": {
        "method": "PUT",
        "url": "Immunization/34a8736a-fbdb-a99c-7df3-cc7ed7c553b7"
      }
    },
    {
      "fullUrl": "urn:uuid:61f5d354-cb53-c6dc-0a11-e797691a10dd",
      "resource": {
        "resourceType": "Immunization",
        "id": "61f5d354-cb53-c6dc-0a11-e797691a10dd",
        "identifier": [
          {
            "system": "urn:ietf:rfc:3986",
            "value": "urn:uuid:e6f1ba43-c0ed-4b9b-9f12-f435d8ad8f92"
          }
        ],
        "statusReason": {
          "coding": [
            {
              "code": "PATOBJ",
              "display": "Patient Objection",
              "system": "urn:oid:2.16.840.1.113883.5.8"
            }
          ]
        },
        "occurrenceDateTime": "1998-12-15",
        "vaccineCode": {
          "coding": [
            {
              "code": "103",
              "display": "Tetanus and diphtheria toxoids - preservative free",
              "system": "http://hl7.org/fhir/sid/cvx"
            }
          ]
        },
        "status": "completed",
        "route": {
          "coding": [
            {
              "code": "C28161",
              "display": "Intramuscular injection",
              "system": "urn:oid:2.16.840.1.113883.3.26.1.1"
            }
          ]
        },
        "patient": {
          "reference": "Patient/aca97b95-3c1c-ce73-ac65-f520242997a9"
        }
      },
      "request": {
        "method": "PUT",
        "url": "Immunization/61f5d354-cb53-c6dc-0a11-e797691a10dd"
      }
    },
    {
      "fullUrl": "urn:uuid:75596e28-c990-9c26-c378-0370c8b9375f",
      "resource": {
        "resourceType": "Immunization",
        "id": "75596e28-c990-9c26-c378-0370c8b9375f",
        "identifier": [
          {
            "system": "urn:ietf:rfc:3986",
            "value": "urn:uuid:de10790f-1496-4719-8fe6-f1b87b6219f7"
          }
        ],
        "occurrenceDateTime": "2013-08-01",
        "vaccineCode": {
          "coding": [
            {
              "code": "45",
              "display": "Hepatitis B vaccine",
              "system": "http://hl7.org/fhir/sid/cvx"
            }
          ]
        },
        "status": "completed",
        "route": {
          "coding": [
            {
              "code": "C28161",
              "display": "Intramuscular injection",
              "system": "urn:oid:2.16.840.1.113883.3.26.1.1"
            }
          ]
        },
        "patient": {
          "reference": "Patient/aca97b95-3c1c-ce73-ac65-f520242997a9"
        }
      },
      "request": {
        "method": "PUT",
        "url": "Immunization/75596e28-c990-9c26-c378-0370c8b9375f"
      }
    },
    {
      "fullUrl": "urn:uuid:01aa5198-a2bd-60c8-de09-af2d2d4584b7",
      "resource": {
        "resourceType": "FamilyMemberHistory",
        "id": "01aa5198-a2bd-60c8-de09-af2d2d4584b7",
        "identifier": [
          {
            "system": "urn:ietf:rfc:3986",
            "value": "urn:uuid:d42ebf70-5c89-11db-b0de-0855200c9a66"
          }
        ],
        "status": "completed",
        "relationship": {
          "coding": [
            {
              "code": "FTH",
              "display": "Father",
              "system": "urn:oid:2.16.840.1.113883.5.111"
            }
          ]
        },
        "sex": {
          "coding": [
            {
              "code": "M",
              "display": "Male",
              "system": "urn:oid:2.16.840.1.113883.1.11.1"
            }
          ]
        },
        "bornString": "1910",
        "condition": [
          {
            "code": {
              "coding": [
                {
                  "code": "22298006",
                  "display": "Myocardial infarction",
                  "system": "http://snomed.info/sct"
                }
              ]
            },
            "contributedToDeath": true,
            "onsetAge": {
              "value": 57,
              "system": "http://unitsofmeasure.org",
              "code": "a"
            }
          },
          {
            "code": {
              "coding": [
                {
                  "code": "44054006",
                  "display": "Diabetes mellitus type 2",
                  "system": "http://snomed.info/sct"
                }
              ]
            },
            "onsetAge": {
              "value": 40,
              "system": "http://unitsofmeasure.org",
              "code": "a"
            }
          }
        ],
        "patient": {
          "reference": "Patient/aca97b95-3c1c-ce73-ac65-f520242997a9"
        }
      },
      "request": {
        "method": "PUT",
        "url": "FamilyMemberHistory/01aa5198-a2bd-60c8-de09-af2d2d4584b7"
      }
    },
    {
      "fullUrl": "urn:uuid:f8b7f219-63c9-bb10-bd34-3f354479812d",
      "resource": {
        "resourceType": "Consent",
        "id": "f8b7f219-63c9-bb10-bd34-3f354479812d",
        "identifier": [
          {
            "system": "urn:ietf:rfc:3986",
            "value": "urn:uuid:af6ebdf2-d996-11e2-a5b8-f23c91aec05e"
          }
        ],
        "status": "active",
        "scope": {
          "coding": [
            {
              "system": "http://terminology.hl7.org/CodeSystem/consentscope",
              "code": "adr"
            }
          ]
        },
        "category": [
          {
            "coding": [
              {
                "code": "45473-6",
                "display": "advance directive - living will",
                "system": "http://loinc.org"
              }
            ]
          }
        ],
        "dateTime": "2011-02-19",
        "provision": {
          "code": [
            {
              "coding": [
                {
                  "code": "304253006",
                  "display": "Do not resuscitate",
                  "system": "http://snomed.info/sct"
                }
              ]
            }
          ]
        },
        "patient": {
          "reference": "Patient/aca97b95-3c1c-ce73-ac65-f520242997a9"
        },
        "sourceReference": {
          "reference": "DocumentReference/f5efdf8c-651c-5b3a-c9f2-26677ad90da0"
        },
        "performer": [
          {
            "reference": "Practitioner/2cc9a3a8-789c-1981-1868-ed0f20d85191"
          }
        ]
      },
      "request": {
        "method": "PUT",
        "url": "Consent/f8b7f219-63c9-bb10-bd34-3f354479812d"
      }
    },
    {
      "fullUrl": "urn:uuid:f5efdf8c-651c-5b3a-c9f2-26677ad90da0",
      "resource": {
        "resourceType": "DocumentReference",
        "id": "f5efdf8c-651c-5b3a-c9f2-26677ad90da0",
        "status": "current",
        "content": [
          {
            "attachment": {
              "contentType": "application/pdf",
              "url": "AdvanceDirective.b50b7910.pdf"
            }
          }
        ]
      },
      "request": {
        "method": "PUT",
        "url": "DocumentReference/f5efdf8c-651c-5b3a-c9f2-26677ad90da0"
      }
    },
    {
      "fullUrl": "urn:uuid:2cc9a3a8-789c-1981-1868-ed0f20d85191",
      "resource": {
        "resourceType": "Practitioner",
        "id": "2cc9a3a8-789c-1981-1868-ed0f20d85191",
        "meta": {
          "profile": [
            "http://hl7.org/fhir/us/core/StructureDefinition/us-core-practitioner"
          ]
        },
        "identifier": [
          {
            "system": "urn:ietf:rfc:3986",
            "value": "urn:uuid:20cf14fb-b65c-4c8c-a54d-b0cca834c18c"
          }
        ],
        "name": [
          {
            "family": "Nightingale",
            "given": [
              "Nurse"
            ],
            "suffix": [
              "RN"
            ]
          }
        ],
        "qualification": [
          {
            "code": {
              "coding": [
                {
                  "code": "163W00000X",
                  "display": "Registered nurse",
                  "system": "http://nucc.org/provider-taxonomy"
                }
              ]
            }
          }
        ]
      },
      "request": {
        "method": "PUT",
        "url": "Practitioner/2cc9a3a8-789c-1981-1868-ed0f20d85191"
      }
    },
    {
      "fullUrl": "urn:uuid:38b62015-54a1-cc1e-a9d8-a03bb267c50d",
      "resource": {
        "resourceType": "Device",
        "id": "38b62015-54a1-cc1e-a9d8-a03bb267c50d",
        "identifier": [
          {
            "system": "urn:ietf:rfc:3986",
            "value": "urn:uuid:3e414708-0e61-4d48-8863-484a2d473a02"
          }
        ],
        "type": {
          "coding": [
            {
              "code": "40388003",
              "display": "Implant",
              "system": "http://snomed.info/sct"
            }
          ]
        }
      },
      "request": {
        "method": "PUT",
        "url": "Device/38b62015-54a1-cc1e-a9d8-a03bb267c50d"
      }
    },
    {
      "fullUrl": "urn:uuid:be8b0c5a-7747-9c4f-6bdb-9be9bab1dd54",
      "resource": {
        "resourceType": "Device",
        "id": "be8b0c5a-7747-9c4f-6bdb-9be9bab1dd54",
        "identifier": [
          {
            "system": "urn:ietf:rfc:3986",
            "value": "urn:uuid:39b5f1b4-a8e1-4ad7-8849-0deab10c97b1"
          }
        ],
        "type": {
          "coding": [
            {
              "code": "14106009",
              "display": "cardiac pacemaker, device (physical object)",
              "system": "http://snomed.info/sct"
            }
          ]
        },
        "manufacturer": "Good Health Durable Medical Equipment"
      },
      "request": {
        "method": "PUT",
        "url": "Device/be8b0c5a-7747-9c4f-6bdb-9be9bab1dd54"
      }
    },
    {
      "fullUrl": "urn:uuid:336b3fa8-f155-22b6-75ef-4746136c07c0",
      "resource": {
        "resourceType": "Device",
        "id": "336b3fa8-f155-22b6-75ef-4746136c07c0",
        "identifier": [
          {
            "system": "urn:ietf:rfc:3986",
            "value": "urn:uuid:39b5f1b4-a8e1-4ad7-8849-0deab10c97b1"
          }
        ],
        "type": {
          "coding": [
            {
              "code": "303406003",
              "display": "upper gastrointestinal prosthesis (physical object)",
              "system": "http://snomed.info/sct"
            }
          ]
        },
        "manufacturer": "Good Health Durable Medical Equipment"
      },
      "request": {
        "method": "PUT",
        "url": "Device/336b3fa8-f155-22b6-75ef-4746136c07c0"
      }
    },
    {
      "fullUrl": "urn:uuid:2747cb4b-eac8-74ae-2de3-852147d3b59f",
      "resource": {
        "resourceType": "Device",
        "id": "2747cb4b-eac8-74ae-2de3-852147d3b59f",
        "identifier": [
          {
            "system": "urn:ietf:rfc:3986",
            "value": "urn:uuid:cf75f5be-1da0-4256-8276-94b7fc73f9f9"
          }
        ],
        "type": {
          "coding": [
            {
              "code": "87405001",
              "display": "cane",
              "system": "http://snomed.info/sct"
            }
          ]
        },
        "manufacturer": "Good Health Durable Medical Equipment"
      },
      "request": {
        "method": "PUT",
        "url": "Device/2747cb4b-eac8-74ae-2de3-852147d3b59f"
      }
    },
    {
      "fullUrl": "urn:uuid:5820ea7a-9778-3661-8e06-734c08aae31b",
      "resource": {
        "resourceType": "Procedure",
        "id": "5820ea7a-9778-3661-8e06-734c08aae31b",
        "meta": {
          "profile": [
            "http://hl7.org/fhir/us/core/StructureDefinition/us-core-procedure"
          ]
        },
        "identifier": [
          {
            "system": "urn:ietf:rfc:3986",
            "value": "urn:uuid:d5b614bd-01ce-410d-8726-e1fd01dcc72a"
          }
        ],
        "status": "completed",
        "code": {
          "coding": [
            {
              "code": "103716009",
              "display": "Stent Placement",
              "system": "http://snomed.info/sct"
            }
          ]
        },
        "performedDateTime": "2013-05-12",
        "bodySite": [
          {
            "coding": [
              {
                "code": "28273000",
                "display": "bile duct",
                "system": "http://snomed.info/sct"
              }
            ]
          }
        ],
        "subject": {
          "reference": "Patient/aca97b95-3c1c-ce73-ac65-f520242997a9"
        },
        "performer": [
          {
            "actor": {
              "reference": "Organization/306c4c51-3243-1d4d-fb8e-717b94d56e23"
            }
          }
        ]
      },
      "request": {
        "method": "PUT",
        "url": "Procedure/5820ea7a-9778-3661-8e06-734c08aae31b"
      }
    },
    {
      "fullUrl": "urn:uuid:306c4c51-3243-1d4d-fb8e-717b94d56e23",
      "resource": {
        "resourceType": "Organization",
        "id": "306c4c51-3243-1d4d-fb8e-717b94d56e23",
        "identifier": [
          {
            "system": "urn:ietf:rfc:3986",
            "value": "urn:uuid:2.16.840.1.113883.19.5"
          }
        ],
        "name": "Community Health and Hospitals",
        "address": [
          {
            "line": [
              "1003 Health Care Drive"
            ],
            "city": "Ann Arbor",
            "state": "MI",
            "country": "US",
            "postalCode": "02368"
          }
        ],
        "telecom": [
          {
            "system": "phone",
            "value": "+1(555)-555-5005",
            "use": "work"
          }
        ]
      },
      "request": {
        "method": "PUT",
        "url": "Organization/306c4c51-3243-1d4d-fb8e-717b94d56e23"
      }
    },
    {
      "fullUrl": "urn:uuid:c93f90b9-1403-0e0e-a581-bf4a7d72b408",
      "resource": {
        "resourceType": "Coverage",
        "id": "c93f90b9-1403-0e0e-a581-bf4a7d72b408",
        "identifier": [
          {
            "system": "urn:ietf:rfc:3986",
            "value": "urn:uuid:3e676a50-7aac-11db-9fe1-0800200c9a66"
          }
        ]
      },
      "request": {
        "method": "PUT",
        "url": "Coverage/c93f90b9-1403-0e0e-a581-bf4a7d72b408"
      }
    },
    {
      "fullUrl": "urn:uuid:96234c12-f825-7e78-5c23-911e87bac91f",
      "resource": {
        "resourceType": "Organization",
        "id": "96234c12-f825-7e78-5c23-911e87bac91f",
        "name": "Good Health Insurance",
        "address": [
          {
            "use": "work",
            "line": [
              "9009 Health Drive"
            ],
            "city": "Portland",
            "state": "OR",
            "postalCode": "99123"
          }
        ],
        "telecom": [
          {
            "system": "phone",
            "value": "+1(555)555-1515",
            "use": "work"
          }
        ]
      },
      "request": {
        "method": "PUT",
        "url": "Organization/96234c12-f825-7e78-5c23-911e87bac91f"
      }
    },
    {
      "fullUrl": "urn:uuid:dad4cfa6-9899-4e28-d888-a4768752d1f0",
      "resource": {
        "resourceType": "DocumentReference",
        "id": "dad4cfa6-9899-4e28-d888-a4768752d1f0",
        "type": {
          "coding": [
            {
              "code": "34133-9",
              "display": "Summarization of Episode Note",
              "system": "http://loinc.org"
            }
          ]
        },
        "date": "2024-10-31T15:05:06.491Z",
        "status": "current",
        "content": [
          {
            "attachment": {
              "contentType": "text/plain",
              "data": "",
              "hash": "YmNiNzJjZWFlYTQzMGQ3M2RkODVmNTcyOTU2NWFjZWNmNThjZWQ1ZA=="
            }
          }
        ]
      },
      "request": {
        "method": "PUT",
        "url": "DocumentReference/dad4cfa6-9899-4e28-d888-a4768752d1f0"
      }
    }
  ]
}