{
  "resourceType": "Bundle",
  "type": "batch",
  "entry": [
    {
      "fullUrl": "urn:uuid:36c00c1c-049f-a6bb-a0e5-c4afd6c8a6c6",
      "resource": {
        "resourceType": "Composition",
        "id": "36c00c1c-049f-a6bb-a0e5-c4afd6c8a6c6",
        "identifier": {
          "use": "official",
          "value": "be84a8e4-a22e-4210-a4a6-b3c48273e84c"
        },
        "status": "final",
        "type": {
          "coding": [
            {
              "code": "34133-9",
              "display": "Summarization of Episode Note",
              "system": "http://loinc.org"
            }
          ]
        },
        "date": "2014-10-15T10:30:26-05:00",
        "title": "Summary of Patient Chart",
        "confidentiality": "N",
        "attester": [
          {
            "mode": "legal",
            "time": "2014-10-15T10:30:26-05:00",
            "party": {
              "reference": "Practitioner/b0ac12ce-9e58-22b8-f79a-aba2409dac02"
            }
          }
        ],
        "event": [
          {
            "period": {
              "start": "2014-10-01",
              "end": "2014-10-15T10:30:26-05:00"
            }
          }
        ],
        "section": [
          {
            "title": "ALLERGIES AND ADVERSE REACTIONS",
            "text": {
              "status": "generated",
              "div": "<div xmlns=\"http://www.w3.org/1999/xhtml\">ALLERGIES AND ADVERSE REACTIONS</div>"
            },
            "code": {
              "coding": [
                {
                  "code": "48765-2",
                  "system": "http://loinc.org"
                }
              ]
            },
            "mode": "snapshot"
          },
          {
            "title": "MEDICATIONS",
            "text": {
              "status": "generated",
              "div": "<div xmlns=\"http://www.w3.org/1999/xhtml\">MEDICATIONS</div>"
            },
            "code": {
              "coding": [
                {
                  "code": "10160-0",
                  "display": "HISTORY OF MEDICATION USE",
                  "system": "http://loinc.org"
                }
              ]
            },
            "mode": "snapshot"
          },
          {
            "title": "PROBLEMS",
            "text": {
              "status": "generated",
              "div": "<div xmlns=\"http://www.w3.org/1999/xhtml\">PROBLEMS</div>"
            },
            "code": {
              "coding": [
                {
                  "code": "11450-4",
                  "display": "PROBLEM LIST",
                  "system": "http://loinc.org"
                }
              ]
            },
            "mode": "snapshot"
          },
          {
            "title": "PROCEDURES",
            "text": {
              "status": "generated",
              "div": "<div xmlns=\"http://www.w3.org/1999/xhtml\">PROCEDURES</div>"
            },
            "code": {
              "coding": [
                {
                  "code": "47519-4",
                  "display": "HISTORY OF PROCEDURES",
                  "system": "http://loinc.org"
                }
              ]
            },
            "mode": "snapshot"
          },
          {
            "title": "RESULTS",
            "text": {
              "status": "generated",
              "div": "<div xmlns=\"http://www.w3.org/1999/xhtml\">RESULTS</div>"
            },
            "code": {
              "coding": [
                {
                  "code": "30954-2",
                  "display": "RESULTS",
                  "system": "http://loinc.org"
                }
              ]
            },
            "mode": "snapshot"
          },
          {
            "title": "SOCIAL HISTORY",
            "text": {
              "status": "generated",
              "div": "<div xmlns=\"http://www.w3.org/1999/xhtml\">SOCIAL HISTORY</div>"
            },
            "code": {
              "coding": [
                {
                  "code": "29762-2",
                  "display": "Social History",
                  "system": "http://loinc.org"
                }
              ]
            },
            "mode": "snapshot"
          },
          {
            "title": "Vital Signs (Last Filed)",
            "text": {
              "status": "generated",
              "div": "<div xmlns=\"http://www.w3.org/1999/xhtml\">Vital Signs (Last Filed)</div>"
            },
            "code": {
              "coding": [
                {
                  "code": "8716-3",
                  "display": "Vital Signs",
                  "system": "http://loinc.org"
                }
              ]
            },
            "mode": "snapshot"
          }
        ],
        "subject": {
          "reference": "Patient/03a91833-bc93-2b74-b2a0-7851c2c34ebc"
        },
        "custodian": {
          "reference": "Organization/c0268e44-8b25-fc83-6d91-534ed12f794b"
        },
        "author": [
          {
            "reference": "Practitioner/b0ac12ce-9e58-22b8-f79a-aba2409dac02"
          },
          {
            "reference": "Device/d51e0d43-a5bb-d53e-b265-6a569b79e5ec"
          }
        ]
      },
      "request": {
        "method": "PUT",
        "url": "Composition/36c00c1c-049f-a6bb-a0e5-c4afd6c8a6c6"
      }
    },
    {
      "fullUrl": "urn:uuid:b0ac12ce-9e58-22b8-f79a-aba2409dac02",
      "resource": {
        "resourceType": "Practitioner",
        "id": "b0ac12ce-9e58-22b8-f79a-aba2409dac02",
        "meta": {
          "profile": [
            "http://hl7.org/fhir/us/core/StructureDefinition/us-core-practitioner"
          ]
        },
        "identifier": [
          {
            "system": "http://hl7.org/fhir/sid/us-npi",
            "value": "5555555555"
          }
        ],
        "name": [
          {
            "family": "Primary",
            "given": [
              "Patricia",
              "Patty"
            ],
            "suffix": [
              "M.D."
            ]
          }
        ],
        "address": [
          {
            "line": [
              "1004 Healthcare Drive "
            ],
            "city": "Portland",
            "state": "OR",
            "country": "US",
            "postalCode": "99123"
          }
        ],
        "telecom": [
          {
            "system": "phone",
            "value": "+1(555)555-1004",
            "use": "work"
          }
        ],
        "qualification": [
          {
            "code": {
              "coding": [
                {
                  "code": "207QA0505X",
                  "display": "Adult Medicine",
                  "system": "http://nucc.org/provider-taxonomy"
                }
              ]
            }
          }
        ]
      },
      "request": {
        "method": "PUT",
        "url": "Practitioner/b0ac12ce-9e58-22b8-f79a-aba2409dac02"
      }
    },
    {
      "fullUrl": "urn:uuid:c0268e44-8b25-fc83-6d91-534ed12f794b",
      "resource": {
        "resourceType": "Organization",
        "id": "c0268e44-8b25-fc83-6d91-534ed12f794b",
        "identifier": [
          {
            "system": "urn:oid:1.1.1.1.1.1.1.1.3",
            "value": "321CX"
          }
        ],
        "name": "Good Health HIE",
        "address": [
          {
            "use": "work",
            "line": [
              "1009 Healthcare Drive "
            ],
            "city": "Portland",
            "state": "OR",
            "country": "US",
            "postalCode": "99123"
          }
        ],
        "telecom": [
          {
            "system": "phone",
            "value": "+1(555)555-1009",
            "use": "work"
          }
        ]
      },
      "request": {
        "method": "PUT",
        "url": "Organization/c0268e44-8b25-fc83-6d91-534ed12f794b"
      }
    },
    {
      "fullUrl": "urn:uuid:d51e0d43-a5bb-d53e-b265-6a569b79e5ec",
      "resource": {
        "resourceType": "Device",
        "id": "d51e0d43-a5bb-d53e-b265-6a569b79e5ec",
        "type": {
          "coding": [
            {
              "display": "Generic EHR Clinical System 2.0.0.0.0.0"
            }
          ]
        },
        "manufacturer": "Generic EHR Clinical System 2.0.0.0.0.0",
        "version": [
          {
            "value": "Generic EHR C-CDA Factory 2.0.0.0.0.0 - C-CDA Transform 2.0.0.0.0"
          }
        ],
        "owner": {
          "reference": "Organization/8be20678-75c3-0677-9d89-54eb10e09bc4"
        }
      },
      "request": {
        "method": "PUT",
        "url": "Device/d51e0d43-a5bb-d53e-b265-6a569b79e5ec"
      }
    },
    {
      "fullUrl": "urn:uuid:8be20678-75c3-0677-9d89-54eb10e09bc4",
      "resource": {
        "resourceType": "Organization",
        "id": "8be20678-75c3-0677-9d89-54eb10e09bc4",
        "identifier": [
          {
            "system": "urn:oid:1.3.6.1.4.1.22812.3.99930.3",
            "value": "3"
          }
        ],
        "name": "The Doctors Together Physician Group",
        "address": [
          {
            "line": [
              "1004 Healthcare Drive "
            ],
            "city": "Portland",
            "state": "OR",
            "country": "US",
            "postalCode": "99123"
          }
        ],
        "telecom": [
          {
            "system": "phone",
            "value": "+1(555)555-1004"
          }
        ]
      },
      "request": {
        "method": "PUT",
        "url": "Organization/8be20678-75c3-0677-9d89-54eb10e09bc4"
      }
    },
    {
      "fullUrl": "urn:uuid:03a91833-bc93-2b74-b2a0-7851c2c34ebc",
      "resource": {
        "resourceType": "Patient",
        "id": "03a91833-bc93-2b74-b2a0-7851c2c34ebc",
        "meta": {
          "profile": [
            "http://hl7.org/fhir/us/core/StructureDefinition/us-core-patient"
          ]
        },
        "identifier": [
          {
            "system": "urn:oid:1.3.6.1.4.1.16517.1",
            "value": "98765432"
          },
          {
            "system": "http://hl7.org/fhir/sid/us-ssn",
            "value": "12345679"
          }
        ],
        "name": [
          {
            "use": "usual",
            "family": "Jones",
            "given": [
              "Isabella"
            ]
          }
        ],
        "birthDate": "1950-12-19",
        "gender": "female",
        "extension": [
          {
            "url": "http://hl7.org/fhir/us/core/StructureDefinition/us-core-race",
            "extension": [
              {
                "url": "ombCategory",
                "valueCoding": {
                  "code": "2106-3",
                  "display": "White"
                }
              },
              {
                "url": "detailed",
                "valueCoding": {
                  "code": "2114-7",
                  "display": "Italian"
                }
              },
              {
                "url": "text",
                "valueString": "Mixed"
              }
            ]
          },
          {
            "url": "http://hl7.org/fhir/us/core/StructureDefinition/us-core-ethnicity",
            "extension": [
              {
                "url": "ombCategory",
                "valueCoding": {
                  "code": "2186-5",
                  "display": "Not Hispanic or Latino"
                }
              },
              {
                "url": "text",
                "valueString": "Not Hispanic or Latino"
              }
            ]
          }
        ],
        "address": [
          {
            "use": "home",
            "line": [
              "4567 Residence Rd"
            ],
            "city": "Beaverton",
            "state": "OR",
            "country": "US",
            "postalCode": "97867"
          }
        ],
        "telecom": [
          {
            "system": "phone",
            "value": "+1(444)444-4444",
            "use": "mobile"
          },
          {
            "system": "email",
            "value": "//Isbella.Jones.CCD@gmail.com"
          }
        ],
        "communication": [
          {
            "language": {
              "coding": [
                {
                  "system": "urn:ietf:bcp:47",
                  "code": "it",
                  "display": "Italian"
                }
              ]
            },
            "preferred": true
          },
          {
            "language": {
              "coding": [
                {
                  "system": "urn:ietf:bcp:47",
                  "code": "en",
                  "display": "English"
                }
              ]
            },
            "preferred": false
          }
        ]
      },
      "request": {
        "method": "PUT",
        "url": "Patient/03a91833-bc93-2b74-b2a0-7851c2c34ebc"
      }
    },
    {
      "fullUrl": "urn:uuid:aca85b80-fc89-0e88-bd74-fbc9fb03ab6b",
      "resource": {
        "resourceType": "RelatedPerson",
        "id": "aca85b80-fc89-0e88-bd74-fbc9fb03ab6b",
        "relationship": [
          {
            "coding": [
              {
                "code": "POWATT",
                "display": "Power of Attorney",
                "system": "urn:oid:2.16.840.1.113883.1.11.19830"
              }
            ]
          }
        ],
        "name": [
          {
            "family": "Jones",
            "given": [
              "Boris",
              "Bo"
            ]
          }
        ],
        "telecom": [
          {
            "system": "phone",
            "value": "+1(444)444-4444",
            "use": "mobile"
          }
        ],
        "address": [
          {
            "use": "home",
            "line": [
              "4567 Residence Rd"
            ],
            "city": "Beaverton",
            "state": "OR",
            "country": "US",
            "postalCode": "97867"
          }
        ],
        "patient": {
          "reference": "Patient/03a91833-bc93-2b74-b2a0-7851c2c34ebc"
        }
      },
      "request": {
        "method": "PUT",
        "url": "RelatedPerson/aca85b80-fc89-0e88-bd74-fbc9fb03ab6b"
      }
    },
    {
      "fullUrl": "urn:uuid:a3b8a951-a8d3-23e1-e617-f657f630ce39",
      "resource": {
        "resourceType": "AllergyIntolerance",
        "id": "a3b8a951-a8d3-23e1-e617-f657f630ce39",
        "identifier": [
          {
            "system": "urn:ietf:rfc:3986",
            "value": "urn:uuid:4adc1020-7b14-11db-9fe1-0800200c9a66"
          }
        ],
        "clinicalStatus": {
          "coding": [
            {
              "system": "http://terminology.hl7.org/CodeSystem/allergyintolerance-clinical",
              "code": "active"
            }
          ]
        },
        "patient": {
          "reference": "Patient/03a91833-bc93-2b74-b2a0-7851c2c34ebc"
        }
      },
      "request": {
        "method": "PUT",
        "url": "AllergyIntolerance/a3b8a951-a8d3-23e1-e617-f657f630ce39"
      }
    },
    {
      "fullUrl": "urn:uuid:f33ec2a8-616d-3adf-a1f8-4461bbc7ce0a",
      "resource": {
        "resourceType": "DiagnosticReport",
        "id": "f33ec2a8-616d-3adf-a1f8-4461bbc7ce0a",
        "identifier": [
          {
            "system": "urn:ietf:rfc:3986",
            "value": "urn:uuid:7d5a02b0-67a4-11db-bd13-0800200c9a66"
          }
        ],
        "code": {
          "coding": [
            {
              "code": "57782-5",
              "display": "CBC with Ordered Manual Differential panel - Blood",
              "system": "http://loinc.org"
            }
          ]
        },
        "subject": {
          "reference": "Patient/03a91833-bc93-2b74-b2a0-7851c2c34ebc"
        },
        "result": [
          {
            "reference": "Observation/41c7e13d-3ce7-4d7f-a001-6fca3e624af4"
          }
        ]
      },
      "request": {
        "method": "PUT",
        "url": "DiagnosticReport/f33ec2a8-616d-3adf-a1f8-4461bbc7ce0a"
      }
    },
    {
      "fullUrl": "urn:uuid:41c7e13d-3ce7-4d7f-a001-6fca3e624af4",
      "resource": {
        "resourceType": "Observation",
        "id": "41c7e13d-3ce7-4d7f-a001-6fca3e624af4",
        "meta": {
          "profile": [
            "http://hl7.org/fhir/us/core/StructureDefinition/us-core-observationresults"
          ]
        },
        "identifier": [
          {
            "system": "urn:ietf:rfc:3986",
            "value": "urn:uuid:68762391-bfa5-4dfa-9f6f-d37109a97d19"
          }
        ],
        "category": [
          {
            "coding": [
              {
                "system": "http://terminology.hl7.org/CodeSystem/observation-category",
                "code": "laboratory"
              }
            ]
          }
        ],
        "code": {
          "coding": [
            {
              "code": "804-5",
              "display": "Leukocytes [#/​volume] in Blood by Manual count",
              "system": "http://loinc.org"
            }
          ]
        },
        "effectiveDateTime": "2014-10-15T10:30:26-05:00",
        "subject": {
          "reference": "Patient/03a91833-bc93-2b74-b2a0-7851c2c34ebc"
        }
      },
      "request": {
        "method": "PUT",
        "url": "Observation/41c7e13d-3ce7-4d7f-a001-6fca3e624af4"
      }
    },
    {
      "fullUrl": "urn:uuid:ae1f6d15-a493-c87e-b164-31a29b6afee9",
      "resource": {
        "resourceType": "Observation",
        "id": "ae1f6d15-a493-c87e-b164-31a29b6afee9",
        "meta": {
          "profile": [
            "http://hl7.org/fhir/us/core/StructureDefinition/us-core-observationresults"
          ]
        },
        "identifier": [
          {
            "system": "urn:oid:2.16.840.1.113883.19",
            "value": "123456789"
          }
        ],
        "category": [
          {
            "coding": [
              {
                "system": "http://terminology.hl7.org/CodeSystem/observation-category",
                "code": "social-history"
              }
            ]
          }
        ],
        "status": "final",
        "code": {
          "coding": [
            {
              "code": "72166-2",
              "display": "Tobacco smoking status NHIS",
              "system": "http://loinc.org"
            }
          ]
        },
        "effectiveDateTime": "2014-10-01T10:30:26-05:00",
        "valueCodeableConcept": {
          "coding": [
            {
              "code": "266927001",
              "display": "Unknown if ever smoked",
              "system": "http://snomed.info/sct"
            }
          ]
        },
        "subject": {
          "reference": "Patient/03a91833-bc93-2b74-b2a0-7851c2c34ebc"
        }
      },
      "request": {
        "method": "PUT",
        "url": "Observation/ae1f6d15-a493-c87e-b164-31a29b6afee9"
      }
    },
    {
      "fullUrl": "urn:uuid:5bbdc3ab-87f1-d754-2113-92c60248d7a1",
      "resource": {
        "resourceType": "Observation",
        "id": "5bbdc3ab-87f1-d754-2113-92c60248d7a1",
        "meta": {
          "profile": [
            "http://hl7.org/fhir/us/core/StructureDefinition/us-core-observationresults"
          ]
        },
        "identifier": [
          {
            "system": "urn:ietf:rfc:3986",
            "value": "urn:uuid:fdbd831b-5919-4f06-9467-76b07022f8e8"
          }
        ],
        "category": [
          {
            "coding": [
              {
                "system": "http://terminology.hl7.org/CodeSystem/observation-category",
                "code": "vital-signs"
              }
            ]
          }
        ],
        "status": "final",
        "code": {
          "coding": [
            {
              "code": "8480-6",
              "display": "SYSTOLIC BLOOD PRESSURE",
              "system": "http://loinc.org"
            }
          ]
        },
        "effectiveDateTime": "2014-10-01T10:30:26-05:00",
        "valueQuantity": {
          "value": 120,
          "unit": "mm[Hg]"
        },
        "subject": {
          "reference": "Patient/03a91833-bc93-2b74-b2a0-7851c2c34ebc"
        }
      },
      "request": {
        "method": "PUT",
        "url": "Observation/5bbdc3ab-87f1-d754-2113-92c60248d7a1"
      }
    },
    {
      "fullUrl": "urn:uuid:75356d2e-370f-8ff4-2234-f5bbc46dd713",
      "resource": {
        "resourceType": "Observation",
        "id": "75356d2e-370f-8ff4-2234-f5bbc46dd713",
        "meta": {
          "profile": [
            "http://hl7.org/fhir/us/core/StructureDefinition/us-core-observationresults"
          ]
        },
        "identifier": [
          {
            "system": "urn:ietf:rfc:3986",
            "value": "urn:uuid:553f3f45-9046-4659-b3e7-5de904003550"
          }
        ],
        "category": [
          {
            "coding": [
              {
                "system": "http://terminology.hl7.org/CodeSystem/observation-category",
                "code": "vital-signs"
              }
            ]
          }
        ],
        "status": "final",
        "code": {
          "coding": [
            {
              "code": "8462-4",
              "display": "DIASTOLIC BLOOD PRESSURE",
              "system": "http://loinc.org"
            }
          ]
        },
        "effectiveDateTime": "2014-10-01T10:30:26-05:00",
        "valueQuantity": {
          "value": 80,
          "unit": "mm[Hg]"
        },
        "subject": {
          "reference": "Patient/03a91833-bc93-2b74-b2a0-7851c2c34ebc"
        }
      },
      "request": {
        "method": "PUT",
        "url": "Observation/75356d2e-370f-8ff4-2234-f5bbc46dd713"
      }
    },
    {
      "fullUrl": "urn:uuid:98c3b97e-9377-7bd3-d041-de70dda33c27",
      "resource": {
        "resourceType": "Observation",
        "id": "98c3b97e-9377-7bd3-d041-de70dda33c27",
        "meta": {
          "profile": [
            "http://hl7.org/fhir/us/core/StructureDefinition/us-core-observationresults"
          ]
        },
        "identifier": [
          {
            "system": "urn:ietf:rfc:3986",
            "value": "urn:uuid:77bfe276-a1dd-4372-9072-e603905acc07"
          }
        ],
        "category": [
          {
            "coding": [
              {
                "system": "http://terminology.hl7.org/CodeSystem/observation-category",
                "code": "vital-signs"
              }
            ]
          }
        ],
        "status": "final",
        "code": {
          "coding": [
            {
              "code": "8867-4",
              "display": "HEART RATE",
              "system": "http://loinc.org"
            }
          ]
        },
        "effectiveDateTime": "2014-10-01T10:30:26-05:00",
        "valueQuantity": {
          "value": 80,
          "unit": "/min"
        },
        "subject": {
          "reference": "Patient/03a91833-bc93-2b74-b2a0-7851c2c34ebc"
        }
      },
      "request": {
        "method": "PUT",
        "url": "Observation/98c3b97e-9377-7bd3-d041-de70dda33c27"
      }
    },
    {
      "fullUrl": "urn:uuid:d3363661-44dd-49f2-7133-49a4922aa678",
      "resource": {
        "resourceType": "Observation",
        "id": "d3363661-44dd-49f2-7133-49a4922aa678",
        "meta": {
          "profile": [
            "http://hl7.org/fhir/us/core/StructureDefinition/us-core-observationresults"
          ]
        },
        "identifier": [
          {
            "system": "urn:ietf:rfc:3986",
            "value": "urn:uuid:24faa204-db62-4610-864f-cb50b650d0fa"
          }
        ],
        "category": [
          {
            "coding": [
              {
                "system": "http://terminology.hl7.org/CodeSystem/observation-category",
                "code": "vital-signs"
              }
            ]
          }
        ],
        "status": "final",
        "code": {
          "coding": [
            {
              "code": "8310-5",
              "display": "BODY TEMPERATURE",
              "system": "http://loinc.org"
            }
          ]
        },
        "effectiveDateTime": "2014-10-01T10:30:26-05:00",
        "valueQuantity": {
          "value": 37.2,
          "unit": "Cel"
        },
        "subject": {
          "reference": "Patient/03a91833-bc93-2b74-b2a0-7851c2c34ebc"
        }
      },
      "request": {
        "method": "PUT",
        "url": "Observation/d3363661-44dd-49f2-7133-49a4922aa678"
      }
    },
    {
      "fullUrl": "urn:uuid:7f9fc8c3-f91f-5d8e-e966-41eb4167a939",
      "resource": {
        "resourceType": "Observation",
        "id": "7f9fc8c3-f91f-5d8e-e966-41eb4167a939",
        "meta": {
          "profile": [
            "http://hl7.org/fhir/us/core/StructureDefinition/us-core-observationresults"
          ]
        },
        "identifier": [
          {
            "system": "urn:ietf:rfc:3986",
            "value": "urn:uuid:79f25395-8ec6-488b-8c05-becc97f79995"
          }
        ],
        "category": [
          {
            "coding": [
              {
                "system": "http://terminology.hl7.org/CodeSystem/observation-category",
                "code": "vital-signs"
              }
            ]
          }
        ],
        "status": "final",
        "code": {
          "coding": [
            {
              "code": "9279-1",
              "display": "RESPIRATORY RATE",
              "system": "http://loinc.org"
            }
          ]
        },
        "effectiveDateTime": "2014-10-01T10:30:26-05:00",
        "valueQuantity": {
          "value": 18,
          "unit": "/min"
        },
        "subject": {
          "reference": "Patient/03a91833-bc93-2b74-b2a0-7851c2c34ebc"
        }
      },
      "request": {
        "method": "PUT",
        "url": "Observation/7f9fc8c3-f91f-5d8e-e966-41eb4167a939"
      }
    },
    {
      "fullUrl": "urn:uuid:c25c90f7-42b3-944c-6a37-c0185f4ae8ad",
      "resource": {
        "resourceType": "Observation",
        "id": "c25c90f7-42b3-944c-6a37-c0185f4ae8ad",
        "meta": {
          "profile": [
            "http://hl7.org/fhir/us/core/StructureDefinition/us-core-observationresults"
          ]
        },
        "identifier": [
          {
            "system": "urn:ietf:rfc:3986",
            "value": "urn:uuid:6d3fa9f8-6049-41bd-b0c3-b0196bb6bd37"
          }
        ],
        "category": [
          {
            "coding": [
              {
                "system": "http://terminology.hl7.org/CodeSystem/observation-category",
                "code": "vital-signs"
              }
            ]
          }
        ],
        "status": "final",
        "code": {
          "coding": [
            {
              "code": "8302-2",
              "display": "HEIGHT",
              "system": "http://loinc.org"
            }
          ]
        },
        "effectiveDateTime": "2014-10-01T10:30:26-05:00",
        "valueQuantity": {
          "value": 170.2,
          "unit": "cm"
        },
        "subject": {
          "reference": "Patient/03a91833-bc93-2b74-b2a0-7851c2c34ebc"
        }
      },
      "request": {
        "method": "PUT",
        "url": "Observation/c25c90f7-42b3-944c-6a37-c0185f4ae8ad"
      }
    },
    {
      "fullUrl": "urn:uuid:f74c9745-6852-8b6f-c24d-6a14c3479cd5",
      "resource": {
        "resourceType": "Observation",
        "id": "f74c9745-6852-8b6f-c24d-6a14c3479cd5",
        "meta": {
          "profile": [
            "http://hl7.org/fhir/us/core/StructureDefinition/us-core-observationresults"
          ]
        },
        "identifier": [
          {
            "system": "urn:ietf:rfc:3986",
            "value": "urn:uuid:2594e631-2189-4e72-9dd1-d6769ee2a7be"
          }
        ],
        "category": [
          {
            "coding": [
              {
                "system": "http://terminology.hl7.org/CodeSystem/observation-category",
                "code": "vital-signs"
              }
            ]
          }
        ],
        "status": "final",
        "code": {
          "coding": [
            {
              "code": "3141-9",
              "display": "WEIGHT",
              "system": "http://loinc.org"
            }
          ]
        },
        "effectiveDateTime": "2014-10-01T10:30:26-05:00",
        "valueQuantity": {
          "value": 108.863,
          "unit": "kg"
        },
        "subject": {
          "reference": "Patient/03a91833-bc93-2b74-b2a0-7851c2c34ebc"
        }
      },
      "request": {
        "method": "PUT",
        "url": "Observation/f74c9745-6852-8b6f-c24d-6a14c3479cd5"
      }
    },
    {
      "fullUrl": "urn:uuid:31dc70fc-da84-9ba0-aa51-9e9c9d2a0a8e",
      "resource": {
        "resourceType": "Observation",
        "id": "31dc70fc-da84-9ba0-aa51-9e9c9d2a0a8e",
        "meta": {
          "profile": [
            "http://hl7.org/fhir/us/core/StructureDefinition/us-core-observationresults"
          ]
        },
        "identifier": [
          {
            "system": "urn:ietf:rfc:3986",
            "value": "urn:uuid:5858e765-2ffe-413f-9197-260f2c6e7aa8"
          }
        ],
        "category": [
          {
            "coding": [
              {
                "system": "http://terminology.hl7.org/CodeSystem/observation-category",
                "code": "vital-signs"
              }
            ]
          }
        ],
        "status": "final",
        "code": {
          "coding": [
            {
              "code": "39156-5",
              "display": "BODY MASS INDEX",
              "system": "http://loinc.org"
            }
          ]
        },
        "effectiveDateTime": "2014-10-01T10:30:26-05:00",
        "valueQuantity": {
          "value": 37.58,
          "unit": "kg/m2"
        },
        "subject": {
          "reference": "Patient/03a91833-bc93-2b74-b2a0-7851c2c34ebc"
        }
      },
      "request": {
        "method": "PUT",
        "url": "Observation/31dc70fc-da84-9ba0-aa51-9e9c9d2a0a8e"
      }
    },
    {
      "fullUrl": "urn:uuid:99559a0c-0c18-eafa-9494-bced48ef1103",
      "resource": {
        "resourceType": "Observation",
        "id": "99559a0c-0c18-eafa-9494-bced48ef1103",
        "meta": {
          "profile": [
            "http://hl7.org/fhir/us/core/StructureDefinition/us-core-observationresults"
          ]
        },
        "identifier": [
          {
            "system": "urn:ietf:rfc:3986",
            "value": "urn:uuid:4ce6046c-f6e3-41b0-91fc-2d5325f2bbc3"
          }
        ],
        "category": [
          {
            "coding": [
              {
                "system": "http://terminology.hl7.org/CodeSystem/observation-category",
                "code": "vital-signs"
              }
            ]
          }
        ],
        "status": "final",
        "code": {
          "coding": [
            {
              "code": "2710-2",
              "display": "OXYGEN SATURATION",
              "system": "http://loinc.org"
            }
          ]
        },
        "effectiveDateTime": "2014-10-01T10:30:26-05:00",
        "valueQuantity": {
          "value": 98,
          "unit": "%"
        },
        "subject": {
          "reference": "Patient/03a91833-bc93-2b74-b2a0-7851c2c34ebc"
        }
      },
      "request": {
        "method": "PUT",
        "url": "Observation/99559a0c-0c18-eafa-9494-bced48ef1103"
      }
    },
    {
      "fullUrl": "urn:uuid:700cb48d-4337-4d71-b567-643e72f6efa2",
      "resource": {
        "resourceType": "Procedure",
        "id": "700cb48d-4337-4d71-b567-643e72f6efa2",
        "meta": {
          "profile": [
            "http://hl7.org/fhir/us/core/StructureDefinition/us-core-procedure"
          ]
        },
        "identifier": [
          {
            "system": "urn:ietf:rfc:3986",
            "value": "urn:uuid:64af26d5-88ef-4169-ba16-c6ef16a1824f"
          }
        ],
        "status": "completed",
        "code": {
          "coding": [
            {
              "code": "6025007",
              "display": "Laparoscopic appendectomy",
              "system": "http://snomed.info/sct"
            }
          ]
        },
        "performedPeriod": {
          "start": "2014-10-02T10:30:26-05:00",
          "end": "2014-10-02T12:42:45-05:00"
        },
        "bodySite": [
          {
            "coding": [
              {
                "code": "181255000",
                "display": "Entire Appendix",
                "system": "http://snomed.info/sct"
              }
            ]
          }
        ],
        "subject": {
          "reference": "Patient/03a91833-bc93-2b74-b2a0-7851c2c34ebc"
        },
        "performer": [
          {
            "actor": {
              "reference": "Organization/059bb96e-4186-63b4-3185-3a473aa37437"
            }
          }
        ]
      },
      "request": {
        "method": "PUT",
        "url": "Procedure/700cb48d-4337-4d71-b567-643e72f6efa2"
      }
    },
    {
      "fullUrl": "urn:uuid:059bb96e-4186-63b4-3185-3a473aa37437",
      "resource": {
        "resourceType": "Organization",
        "id": "059bb96e-4186-63b4-3185-3a473aa37437",
        "identifier": [
          {
            "system": "urn:ietf:rfc:3986",
            "value": "urn:uuid:2.16.840.1.113883.19.5.9999.1393"
          }
        ],
        "name": "Community Health and Hospitals",
        "address": [
          {
            "line": [
              "1001 Village Avenue"
            ],
            "city": "Portland",
            "state": "OR",
            "country": "US",
            "postalCode": "99123"
          }
        ]
      },
      "request": {
        "method": "PUT",
        "url": "Organization/059bb96e-4186-63b4-3185-3a473aa37437"
      }
    },
    {
      "fullUrl": "urn:uuid:f849d82c-90cd-6a30-398e-5a0850b41c19",
      "resource": {
        "resourceType": "Observation",
        "id": "f849d82c-90cd-6a30-398e-5a0850b41c19",
        "meta": {
          "profile": [
            "http://hl7.org/fhir/us/core/StructureDefinition/us-core-observationresults"
          ]
        },
        "identifier": [
          {
            "system": "urn:ietf:rfc:3986",
            "value": "urn:uuid:c03e5445-af1b-4911-a419-e2782f21448c"
          }
        ],
        "category": [
          {
            "coding": [
              {
                "system": "http://terminology.hl7.org/CodeSystem/observation-category",
                "code": "procedure"
              }
            ]
          }
        ],
        "status": "final",
        "code": {
          "coding": [
            {
              "code": "268400002",
              "display": "12 lead ECG",
              "system": "http://snomed.info/sct"
            }
          ]
        },
        "effectiveDateTime": "2014-10-01T10:30:26-05:00",
        "bodySite": {
          "coding": [
            {
              "code": "302509004",
              "display": "Entire Heart",
              "system": "http://snomed.info/sct"
            }
          ]
        },
        "valueCodeableConcept": {
          "coding": [
            {
              "code": "251135002",
              "display": "Borderline normal ECG",
              "system": "http://snomed.info/sct"
            }
          ]
        },
        "subject": {
          "reference": "Patient/03a91833-bc93-2b74-b2a0-7851c2c34ebc"
        }
      },
      "request": {
        "method": "PUT",
        "url": "Observation/f849d82c-90cd-6a30-398e-5a0850b41c19"
      }
    },
    {
      "fullUrl": "urn:uuid:1626d0fd-f545-d46f-087a-d7a559288a14",
      "resource": {
        "resourceType": "DocumentReference",
        "id": "1626d0fd-f545-d46f-087a-d7a559288a14",
        "type": {
          "coding": [
            {
              "code": "34133-9",
              "display": "Summarization of Episode Note",
              "system": "http://loinc.org"
            }
          ]
        },
        "date": "2024-10-31T15:05:04.938Z",
        "status": "current",
        "content": [
          {
            "attachment": {
              "contentType": "text/plain",
              "data": "",
              "hash": "ZDQ0Yzg1NjVhZmM0NmNkMzRmZDE4NThhZjA2ZGEyMDQzOTQwNzUwMw=="
            }
          }
        ]
      },
      "request": {
        "method": "PUT",
        "url": "DocumentReference/1626d0fd-f545-d46f-087a-d7a559288a14"
      }
    }
  ]
}