{
  "resourceType": "Bundle",
  "type": "batch",
  "entry": [
    {
      "fullUrl": "urn:uuid:e6360b51-6a85-aa35-bf03-6e39c613870f",
      "resource": {
        "resourceType": "Composition",
        "id": "e6360b51-6a85-aa35-bf03-6e39c613870f",
        "identifier": {
          "use": "official",
          "value": "2.16.840.1.113883.19.5.99999.1"
        },
        "status": "final",
        "type": {
          "coding": [
            {
              "code": "34133-9",
              "display": "Summarization of Episode Note",
              "system": "http://loinc.org"
            }
          ]
        },
        "date": "2015-07-22T18:00:00-05:00",
        "title": "CCD Demonstrating Replacement of Prior CCD",
        "confidentiality": "N",
        "attester": [
          {
            "mode": "legal",
            "time": "2015-07-22",
            "party": {
              "reference": "Practitioner/94866a00-1f48-91e8-9327-cc1da205e69b"
            }
          }
        ],
        "event": [
          {
            "period": {
              "start": "2015-07-22T18:00:00-05:00",
              "end": "2015-07-22T23:00:00-05:00"
            }
          }
        ],
        "section": [
          {
            "title": "ALLERGIES AND ADVERSE REACTIONS",
            "text": {
              "status": "generated",
              "div": "<div xmlns=\"http://www.w3.org/1999/xhtml\">ALLERGIES AND ADVERSE REACTIONS</div>"
            },
            "code": {
              "coding": [
                {
                  "code": "48765-2",
                  "system": "http://loinc.org"
                }
              ]
            },
            "mode": "snapshot"
          },
          {
            "title": "MEDICATIONS",
            "text": {
              "status": "generated",
              "div": "<div xmlns=\"http://www.w3.org/1999/xhtml\">MEDICATIONS</div>"
            },
            "code": {
              "coding": [
                {
                  "code": "10160-0",
                  "display": "HISTORY OF MEDICATION USE",
                  "system": "http://loinc.org"
                }
              ]
            },
            "mode": "snapshot"
          },
          {
            "title": "Admission Medications",
            "text": {
              "status": "generated",
              "div": "<div xmlns=\"http://www.w3.org/1999/xhtml\">Admission Medications</div>"
            },
            "code": {
              "coding": [
                {
                  "code": "42346-7",
                  "display": "MEDICATIONS ON ADMISSION",
                  "system": "http://loinc.org"
                }
              ]
            },
            "mode": "snapshot"
          },
          {
            "title": "Discharge Medications",
            "text": {
              "status": "generated",
              "div": "<div xmlns=\"http://www.w3.org/1999/xhtml\">Discharge Medications</div>"
            },
            "code": {
              "coding": [
                {
                  "code": "10183-2",
                  "display": "Hospital Discharge Medications",
                  "system": "http://loinc.org"
                }
              ]
            },
            "mode": "snapshot"
          },
          {
            "title": "PROBLEMS",
            "text": {
              "status": "generated",
              "div": "<div xmlns=\"http://www.w3.org/1999/xhtml\">PROBLEMS</div>"
            },
            "code": {
              "coding": [
                {
                  "code": "11450-4",
                  "display": "PROBLEM LIST",
                  "system": "http://loinc.org"
                }
              ]
            },
            "mode": "snapshot"
          },
          {
            "title": "ENCOUNTERS",
            "text": {
              "status": "generated",
              "div": "<div xmlns=\"http://www.w3.org/1999/xhtml\">ENCOUNTERS</div>"
            },
            "code": {
              "coding": [
                {
                  "code": "46240-8",
                  "display": "History of encounters",
                  "system": "http://loinc.org"
                }
              ]
            },
            "mode": "snapshot"
          },
          {
            "title": "Procedures",
            "text": {
              "status": "generated",
              "div": "<div xmlns=\"http://www.w3.org/1999/xhtml\">Procedures</div>"
            },
            "code": {
              "coding": [
                {
                  "code": "47519-4",
                  "display": "PROCEDURES",
                  "system": "http://loinc.org"
                }
              ]
            },
            "mode": "snapshot"
          },
          {
            "title": "MEDICAL EQUIPMENT",
            "text": {
              "status": "generated",
              "div": "<div xmlns=\"http://www.w3.org/1999/xhtml\">MEDICAL EQUIPMENT</div>"
            },
            "code": {
              "coding": [
                {
                  "code": "46264-8",
                  "system": "http://loinc.org"
                }
              ]
            },
            "mode": "snapshot"
          },
          {
            "title": "IMMUNIZATIONS",
            "text": {
              "status": "generated",
              "div": "<div xmlns=\"http://www.w3.org/1999/xhtml\">IMMUNIZATIONS</div>"
            },
            "code": {
              "coding": [
                {
                  "code": "11369-6",
                  "display": "History of immunizations",
                  "system": "http://loinc.org"
                }
              ]
            },
            "mode": "snapshot"
          },
          {
            "title": "VITAL SIGNS",
            "text": {
              "status": "generated",
              "div": "<div xmlns=\"http://www.w3.org/1999/xhtml\">VITAL SIGNS</div>"
            },
            "code": {
              "coding": [
                {
                  "code": "8716-3",
                  "display": "VITAL SIGNS",
                  "system": "http://loinc.org"
                }
              ]
            },
            "mode": "snapshot"
          },
          {
            "title": "SOCIAL HISTORY",
            "text": {
              "status": "generated",
              "div": "<div xmlns=\"http://www.w3.org/1999/xhtml\">SOCIAL HISTORY</div>"
            },
            "code": {
              "coding": [
                {
                  "code": "29762-2",
                  "display": "Social History",
                  "system": "http://loinc.org"
                }
              ]
            },
            "mode": "snapshot"
          },
          {
            "title": "RESULTS",
            "text": {
              "status": "generated",
              "div": "<div xmlns=\"http://www.w3.org/1999/xhtml\">RESULTS</div>"
            },
            "code": {
              "coding": [
                {
                  "code": "30954-2",
                  "display": "RESULTS",
                  "system": "http://loinc.org"
                }
              ]
            },
            "mode": "snapshot"
          },
          {
            "title": "ASSESSMENTS",
            "text": {
              "status": "generated",
              "div": "<div xmlns=\"http://www.w3.org/1999/xhtml\">ASSESSMENTS</div>"
            },
            "code": {
              "coding": [
                {
                  "code": "51848-0",
                  "display": "ASSESSMENTS",
                  "system": "http://loinc.org"
                }
              ]
            },
            "mode": "snapshot"
          },
          {
            "title": "TREATMENT PLAN",
            "text": {
              "status": "generated",
              "div": "<div xmlns=\"http://www.w3.org/1999/xhtml\">TREATMENT PLAN</div>"
            },
            "code": {
              "coding": [
                {
                  "code": "18776-5",
                  "display": "Treatment plan",
                  "system": "http://loinc.org"
                }
              ]
            },
            "mode": "snapshot"
          },
          {
            "title": "Goals Section",
            "text": {
              "status": "generated",
              "div": "<div xmlns=\"http://www.w3.org/1999/xhtml\">Goals Section</div>"
            },
            "code": {
              "coding": [
                {
                  "code": "61146-7",
                  "display": "Goals",
                  "system": "http://loinc.org"
                }
              ]
            },
            "mode": "snapshot"
          },
          {
            "title": "Health Concerns",
            "text": {
              "status": "generated",
              "div": "<div xmlns=\"http://www.w3.org/1999/xhtml\">Health Concerns</div>"
            },
            "code": {
              "coding": [
                {
                  "code": "75310-3",
                  "display": "Health Concerns Document",
                  "system": "http://loinc.org"
                }
              ]
            },
            "mode": "snapshot"
          },
          {
            "title": "HOSPITAL DISCHARGE INSTRUCTIONS",
            "text": {
              "status": "generated",
              "div": "<div xmlns=\"http://www.w3.org/1999/xhtml\">HOSPITAL DISCHARGE INSTRUCTIONS</div>"
            },
            "code": {
              "coding": [
                {
                  "code": "8653-8",
                  "display": "HOSPITAL DISCHARGE INSTRUCTIONS",
                  "system": "http://loinc.org"
                }
              ]
            },
            "mode": "snapshot"
          },
          {
            "title": "MENTAL STATUS",
            "text": {
              "status": "generated",
              "div": "<div xmlns=\"http://www.w3.org/1999/xhtml\">MENTAL STATUS</div>"
            },
            "code": {
              "coding": [
                {
                  "code": "10190-7",
                  "display": "MENTAL STATUS",
                  "system": "http://loinc.org"
                }
              ]
            },
            "mode": "snapshot"
          },
          {
            "title": "FUNCTIONAL STATUS",
            "text": {
              "status": "generated",
              "div": "<div xmlns=\"http://www.w3.org/1999/xhtml\">FUNCTIONAL STATUS</div>"
            },
            "code": {
              "coding": [
                {
                  "code": "47420-5",
                  "display": "Functional Status",
                  "system": "http://loinc.org"
                }
              ]
            },
            "mode": "snapshot"
          },
          {
            "title": "Interventions Section",
            "text": {
              "status": "generated",
              "div": "<div xmlns=\"http://www.w3.org/1999/xhtml\">Interventions Section</div>"
            },
            "code": {
              "coding": [
                {
                  "code": "62387-6",
                  "display": "Interventions Provided",
                  "system": "http://loinc.org"
                }
              ]
            },
            "mode": "snapshot"
          }
        ],
        "subject": {
          "reference": "Patient/89236d99-8509-7d3a-9dfb-a82c6b81d268"
        },
        "encounter": {
          "reference": "Encounter/c98de50d-6b03-5072-e3db-0d3352273824"
        },
        "custodian": {
          "reference": "Organization/60584e77-f1e2-7864-31ce-931c9781c1dc"
        },
        "author": [
          {
            "reference": "Practitioner/c90aeaec-bb03-beee-f30a-9397bf62eb93"
          }
        ]
      },
      "request": {
        "method": "PUT",
        "url": "Composition/e6360b51-6a85-aa35-bf03-6e39c613870f"
      }
    },
    {
      "fullUrl": "urn:uuid:94866a00-1f48-91e8-9327-cc1da205e69b",
      "resource": {
        "resourceType": "Practitioner",
        "id": "94866a00-1f48-91e8-9327-cc1da205e69b",
        "meta": {
          "profile": [
            "http://hl7.org/fhir/us/core/StructureDefinition/us-core-practitioner"
          ]
        },
        "identifier": [
          {
            "system": "http://hl7.org/fhir/sid/us-npi",
            "value": "999998899"
          }
        ],
        "name": [
          {
            "family": "Seven",
            "given": [
              "Henry"
            ],
            "prefix": [
              "Dr"
            ]
          }
        ],
        "address": [
          {
            "line": [
              "1002 Healthcare Dr"
            ],
            "city": "Portland",
            "state": "OR",
            "country": "US",
            "postalCode": "97266"
          }
        ],
        "telecom": [
          {
            "system": "phone",
            "value": "+1(555)-555-1002",
            "use": "work"
          }
        ]
      },
      "request": {
        "method": "PUT",
        "url": "Practitioner/94866a00-1f48-91e8-9327-cc1da205e69b"
      }
    },
    {
      "fullUrl": "urn:uuid:c98de50d-6b03-5072-e3db-0d3352273824",
      "resource": {
        "resourceType": "Encounter",
        "id": "c98de50d-6b03-5072-e3db-0d3352273824",
        "status": "unknown",
        "identifier": [
          {
            "system": "urn:oid:2.16.840.1.113883.19",
            "value": "9937012"
          }
        ],
        "period": {
          "start": "2015-07-22T18:00:00-05:00",
          "end": "2015-07-22T23:00:00-05:00"
        }
      },
      "request": {
        "method": "PUT",
        "url": "Encounter/c98de50d-6b03-5072-e3db-0d3352273824"
      }
    },
    {
      "fullUrl": "urn:uuid:60584e77-f1e2-7864-31ce-931c9781c1dc",
      "resource": {
        "resourceType": "Organization",
        "id": "60584e77-f1e2-7864-31ce-931c9781c1dc",
        "identifier": [
          {
            "system": "http://hl7.org/fhir/sid/us-npi",
            "value": "99998899"
          }
        ],
        "name": "Community Health and Hospitals",
        "address": [
          {
            "line": [
              "1002 Healthcare Dr"
            ],
            "city": "Portland",
            "state": "OR",
            "country": "US",
            "postalCode": "97266"
          }
        ],
        "telecom": [
          {
            "system": "phone",
            "value": "+1(555)-555-5000",
            "use": "work"
          }
        ]
      },
      "request": {
        "method": "PUT",
        "url": "Organization/60584e77-f1e2-7864-31ce-931c9781c1dc"
      }
    },
    {
      "fullUrl": "urn:uuid:c90aeaec-bb03-beee-f30a-9397bf62eb93",
      "resource": {
        "resourceType": "Practitioner",
        "id": "c90aeaec-bb03-beee-f30a-9397bf62eb93",
        "meta": {
          "profile": [
            "http://hl7.org/fhir/us/core/StructureDefinition/us-core-practitioner"
          ]
        },
        "identifier": [
          {
            "system": "http://hl7.org/fhir/sid/us-npi",
            "value": "111111"
          }
        ],
        "name": [
          {
            "family": "Seven",
            "given": [
              "Henry"
            ],
            "prefix": [
              "Dr"
            ]
          }
        ],
        "address": [
          {
            "line": [
              "1002 Healthcare Dr"
            ],
            "city": "Portland",
            "state": "OR",
            "country": "US",
            "postalCode": "97266"
          }
        ],
        "telecom": [
          {
            "system": "phone",
            "value": "+1(555)-555-1002",
            "use": "work"
          }
        ],
        "qualification": [
          {
            "code": {
              "coding": [
                {
                  "code": "281P00000X",
                  "display": "Chronic Disease Hospital",
                  "system": "http://nucc.org/provider-taxonomy"
                }
              ]
            }
          }
        ]
      },
      "request": {
        "method": "PUT",
        "url": "Practitioner/c90aeaec-bb03-beee-f30a-9397bf62eb93"
      }
    },
    {
      "fullUrl": "urn:uuid:89236d99-8509-7d3a-9dfb-a82c6b81d268",
      "resource": {
        "resourceType": "Patient",
        "id": "89236d99-8509-7d3a-9dfb-a82c6b81d268",
        "meta": {
          "profile": [
            "http://hl7.org/fhir/us/core/StructureDefinition/us-core-patient"
          ]
        },
        "identifier": [
          {
            "system": "http://hl7.org/fhir/sid/us-ssn",
            "value": "414122222"
          }
        ],
        "name": [
          {
            "use": "usual",
            "family": "Maur",
            "given": [
              "Richard"
            ],
            "suffix": [
              "jr"
            ]
          }
        ],
        "birthDate": "1980-08-01",
        "gender": "male",
        "extension": [
          {
            "url": "http://hl7.org/fhir/us/core/StructureDefinition/us-core-race",
            "extension": [
              {
                "url": "ombCategory",
                "valueCoding": {
                  "system": "http://terminology.hl7.org/CodeSystem/v3-NullFlavor",
                  "code": "UNK",
                  "display": "Unknown"
                }
              },
              {
                "url": "ombCategory",
                "valueCoding": {
                  "system": "http://terminology.hl7.org/CodeSystem/v3-NullFlavor",
                  "code": "UNK",
                  "display": "Unknown"
                }
              },
              {
                "url": "text",
                "valueString": "Mixed"
              }
            ]
          },
          {
            "url": "http://hl7.org/fhir/us/core/StructureDefinition/us-core-ethnicity",
            "extension": [
              {
                "url": "ombCategory",
                "valueCoding": {
                  "system": "http://terminology.hl7.org/CodeSystem/v3-NullFlavor",
                  "code": "UNK",
                  "display": "Unknown"
                }
              },
              {
                "url": "text",
                "valueString": "Unknown"
              }
            ]
          }
        ],
        "address": [
          {
            "use": "home",
            "line": [
              "1357 Amber Dr"
            ],
            "city": "Beaverton",
            "state": "OR",
            "country": "US",
            "postalCode": "97006"
          }
        ],
        "telecom": [
          {
            "system": "phone",
            "value": "+1(555)-777-1234",
            "use": "mobile"
          },
          {
            "system": "phone",
            "value": "+1(555)-723-1544",
            "use": "home"
          }
        ],
        "communication": [
          {
            "language": {
              "coding": [
                {
                  "system": "urn:ietf:bcp:47",
                  "code": "en",
                  "display": "English"
                }
              ]
            },
            "preferred": true
          }
        ]
      },
      "request": {
        "method": "PUT",
        "url": "Patient/89236d99-8509-7d3a-9dfb-a82c6b81d268"
      }
    },
    {
      "fullUrl": "urn:uuid:9c900362-80a3-a844-0d6b-f34fcf42701a",
      "resource": {
        "resourceType": "AllergyIntolerance",
        "id": "9c900362-80a3-a844-0d6b-f34fcf42701a",
        "identifier": [
          {
            "system": "urn:ietf:rfc:3986",
            "value": "urn:uuid:4adc1020-7b16-11db-9fe1-0832200c9a66"
          }
        ],
        "clinicalStatus": {
          "coding": [
            {
              "system": "http://terminology.hl7.org/CodeSystem/allergyintolerance-clinical",
              "code": "active"
            }
          ]
        },
        "patient": {
          "reference": "Patient/89236d99-8509-7d3a-9dfb-a82c6b81d268"
        }
      },
      "request": {
        "method": "PUT",
        "url": "AllergyIntolerance/9c900362-80a3-a844-0d6b-f34fcf42701a"
      }
    },
    {
      "fullUrl": "urn:uuid:e8591e1e-9293-353e-29a2-f44b39769de1",
      "resource": {
        "resourceType": "MedicationStatement",
        "id": "e8591e1e-9293-353e-29a2-f44b39769de1",
        "identifier": [
          {
            "system": "urn:ietf:rfc:3986",
            "value": "urn:uuid:cdbd33f0-6cde-11db-9fe1-0833200c9a66"
          }
        ],
        "subject": {
          "reference": "Patient/89236d99-8509-7d3a-9dfb-a82c6b81d268"
        },
        "medicationReference": {
          "reference": "Medication/45ca540d-7e15-d7a9-7158-7426191f7a72"
        }
      },
      "request": {
        "method": "PUT",
        "url": "MedicationStatement/e8591e1e-9293-353e-29a2-f44b39769de1"
      }
    },
    {
      "fullUrl": "urn:uuid:45ca540d-7e15-d7a9-7158-7426191f7a72",
      "resource": {
        "resourceType": "Medication",
        "id": "45ca540d-7e15-d7a9-7158-7426191f7a72",
        "code": {
          "coding": [
            {
              "code": "410942007",
              "display": "drug or medication",
              "system": "http://snomed.info/sct"
            }
          ]
        }
      },
      "request": {
        "method": "PUT",
        "url": "Medication/45ca540d-7e15-d7a9-7158-7426191f7a72"
      }
    },
    {
      "fullUrl": "urn:uuid:b2dd4321-dfd0-b8c6-8d51-e422d867482f",
      "resource": {
        "resourceType": "Condition",
        "id": "b2dd4321-dfd0-b8c6-8d51-e422d867482f",
        "identifier": [
          {
            "system": "urn:ietf:rfc:3986",
            "value": "urn:uuid:4adc1021-7b14-11db-9fe1-0836200c9a67"
          }
        ],
        "code": {
          "coding": [
            {
              "code": "55607006",
              "display": "Problem",
              "system": "http://snomed.info/sct"
            }
          ]
        },
        "onsetDateTime": "2015-07-22",
        "subject": {
          "reference": "Patient/89236d99-8509-7d3a-9dfb-a82c6b81d268"
        }
      },
      "request": {
        "method": "PUT",
        "url": "Condition/b2dd4321-dfd0-b8c6-8d51-e422d867482f"
      }
    },
    {
      "fullUrl": "urn:uuid:06087fbf-6e75-889d-7d31-4723bf8b4c3f",
      "resource": {
        "resourceType": "Observation",
        "id": "06087fbf-6e75-889d-7d31-4723bf8b4c3f",
        "meta": {
          "profile": [
            "http://hl7.org/fhir/us/core/StructureDefinition/us-core-observationresults"
          ]
        },
        "identifier": [
          {
            "system": "urn:oid:2.16.840.1.113883.19",
            "value": "123456789"
          }
        ],
        "category": [
          {
            "coding": [
              {
                "system": "http://terminology.hl7.org/CodeSystem/observation-category",
                "code": "social-history"
              }
            ]
          }
        ],
        "status": "final",
        "code": {
          "coding": [
            {
              "code": "72166-2",
              "display": "Tobacco smoking status NHIS",
              "system": "http://loinc.org"
            }
          ]
        },
        "effectiveDateTime": "2015-07-22",
        "valueCodeableConcept": {
          "coding": [
            {
              "code": "449868002",
              "display": "Current every day smoker",
              "system": "http://snomed.info/sct"
            }
          ]
        },
        "subject": {
          "reference": "Patient/89236d99-8509-7d3a-9dfb-a82c6b81d268"
        }
      },
      "request": {
        "method": "PUT",
        "url": "Observation/06087fbf-6e75-889d-7d31-4723bf8b4c3f"
      }
    },
    {
      "fullUrl": "urn:uuid:03266a30-3c1e-93bc-7784-7c2988855aeb",
      "resource": {
        "resourceType": "Observation",
        "id": "03266a30-3c1e-93bc-7784-7c2988855aeb",
        "meta": {
          "profile": [
            "http://hl7.org/fhir/us/core/StructureDefinition/us-core-observationresults"
          ]
        },
        "category": [
          {
            "coding": [
              {
                "system": "http://terminology.hl7.org/CodeSystem/observation-category",
                "code": "social-history"
              }
            ]
          }
        ],
        "status": "final",
        "code": {
          "coding": [
            {
              "code": "76689-9",
              "display": "Sex Assigned At Birth",
              "system": "http://loinc.org"
            }
          ]
        },
        "effectiveDateTime": "2015-07-22",
        "valueCodeableConcept": {
          "coding": [
            {
              "code": "M",
              "display": "Male",
              "system": "urn:oid:2.16.840.1.113883.5.1"
            }
          ]
        },
        "subject": {
          "reference": "Patient/89236d99-8509-7d3a-9dfb-a82c6b81d268"
        }
      },
      "request": {
        "method": "PUT",
        "url": "Observation/03266a30-3c1e-93bc-7784-7c2988855aeb"
      }
    },
    {
      "fullUrl": "urn:uuid:2458abdd-0359-8097-d703-80a33fabea1c",
      "resource": {
        "resourceType": "Immunization",
        "id": "2458abdd-0359-8097-d703-80a33fabea1c",
        "identifier": [
          {
            "system": "urn:ietf:rfc:3986",
            "value": "urn:uuid:de10790f-1496-4729-8fe6-f1b87b6219f7"
          }
        ],
        "vaccineCode": {
          "coding": [
            {
              "code": "71181003",
              "display": "vaccine",
              "system": "http://snomed.info/sct"
            }
          ]
        },
        "patient": {
          "reference": "Patient/89236d99-8509-7d3a-9dfb-a82c6b81d268"
        }
      },
      "request": {
        "method": "PUT",
        "url": "Immunization/2458abdd-0359-8097-d703-80a33fabea1c"
      }
    },
    {
      "fullUrl": "urn:uuid:20bee81f-d6d0-543f-61c1-69eb26b5d9e9",
      "resource": {
        "resourceType": "Procedure",
        "id": "20bee81f-d6d0-543f-61c1-69eb26b5d9e9",
        "meta": {
          "profile": [
            "http://hl7.org/fhir/us/core/StructureDefinition/us-core-procedure"
          ]
        },
        "identifier": [
          {
            "system": "urn:ietf:rfc:3986",
            "value": "urn:uuid:d5b614bd-01ce-410d-8728-e1fd01dcc72a"
          }
        ],
        "status": "completed",
        "code": {
          "coding": [
            {
              "code": "71388002",
              "display": "Procedure",
              "system": "http://snomed.info/sct"
            }
          ]
        },
        "subject": {
          "reference": "Patient/89236d99-8509-7d3a-9dfb-a82c6b81d268"
        }
      },
      "request": {
        "method": "PUT",
        "url": "Procedure/20bee81f-d6d0-543f-61c1-69eb26b5d9e9"
      }
    },
    {
      "fullUrl": "urn:uuid:55ca462c-a6b4-0708-dffc-b5eaced1242d",
      "resource": {
        "resourceType": "DocumentReference",
        "id": "55ca462c-a6b4-0708-dffc-b5eaced1242d",
        "type": {
          "coding": [
            {
              "code": "34133-9",
              "display": "Summarization of Episode Note",
              "system": "http://loinc.org"
            }
          ]
        },
        "date": "2022-03-25T08:35:30.84Z",
        "status": "current",
        "content": [
          {
            "attachment": {
              "contentType": "text/plain",
              "data": "",
              "hash": "ZDU1ZmI5MmRjYWM3ZjQ0NDEyYmYxYjMzZTNkOWFlZDc5OWRjYjU0Zg=="
            }
          }
        ]
      },
      "request": {
        "method": "PUT",
        "url": "DocumentReference/55ca462c-a6b4-0708-dffc-b5eaced1242d"
      }
    }
  ]
}