{
  "resourceType": "Bundle",
  "type": "batch",
  "timestamp": "1989-08-18T14:41:00+05:30",
  "identifier": {
      "value": "MSG00001"
  },
  "id": "513a3d06-5e87-6fbc-ad1b-170ab430499f",
  "entry": [
      {
          "fullUrl": "urn:uuid:b4ca189b-51ae-33df-cbe2-559b4423a321",
          "resource": {
              "resourceType": "MessageHeader",
              "id": "b4ca189b-51ae-33df-cbe2-559b4423a321",
              "source": {
                  "name": "24GHH",
                  "endpoint": "urn:oid:2.16.840.1.114884.10.20"
              },
              "destination": [
                  {
                      "name": "25GHH",
                      "endpoint": "urn:oid:2.16.840.1.114884.10.23",
                      "receiver": {
                          "reference": "Organization/527280c1-34d1-c639-e9ba-61986d28e266"
                      }
                  }
              ],
              "meta": {
                  "security": [
                      {
                          "display": "SECURITY"
                      }
                  ],
                  "tag": [
                      {
                          "code": "P",
                          "system": "http://terminology.hl7.org/CodeSystem/v2-0103"
                      }
                  ]
              },
              "eventCoding": {
                  "code": "A60",
                  "system": "http://terminology.hl7.org/CodeSystem/v2-0003",
                  "display": "ADT^A60^ADT_A60"
              },
              "language": "en-US",
              "sender": {
                  "reference": "Organization/4356fb81-6ecd-2d70-57b1-47812638e785"
              },
              "responsible": {
                  "reference": "Organization/33532a82-d220-4c0d-1abe-53e48951c201"
              }
          },
          "request": {
              "method": "PUT",
              "url": "MessageHeader/b4ca189b-51ae-33df-cbe2-559b4423a321"
          }
      },
      {
          "fullUrl": "urn:uuid:0a7545d7-202f-96e5-31e9-bb7d27ade3c2",
          "resource": {
              "resourceType": "Provenance",
              "id": "0a7545d7-202f-96e5-31e9-bb7d27ade3c2",
              "text": {
                  "status": "generated",
                  "div": "<div xmlns=\"http://www.w3.org/1999/xhtml\"><p><span>Resource bundle generated on 2022-03-28T07:36:15.029Z using Microsoft FHIR Converter.</span><span>Template Version: TEMPLATE_VERSION_PLACEHOLDER.</span><span>Template URL: https://github.com/microsoft/FHIR-Converter/releases/download/vTEMPLATE_VERSION_PLACEHOLDER/Hl7v2DefaultTemplates.tar.gz.</span><span>Root template: ADT_A60.</span></p></div>"
              },
              "occurredDateTime": "1989-08-18T14:41:00+05:30",
              "recorded": "1989-08-18T14:41:00+05:30",
              "agent": [
                  {
                      "type": {
                          "coding": [
                              {
                                  "code": "author",
                                  "system": "http://terminology.hl7.org/CodeSystem/provenance-participant-type"
                              }
                          ]
                      },
                      "who": {
                          "reference": "Organization/33532a82-d220-4c0d-1abe-53e48951c201"
                      }
                  }
              ],
              "activity": {
                  "coding": [
                      {
                          "display": "ADT^A60^ADT_A60"
                      }
                  ]
              },
              "entity": [
                  {
                      "role": "source",
                      "what": {
                          "reference": "Device/503eb873-22fb-8199-ae28-3604ad59fe13"
                      }
                  }
              ],
              "target": [
                  {
                      "reference": "Bundle/513a3d06-5e87-6fbc-ad1b-170ab430499f"
                  }
              ]
          },
          "request": {
              "method": "PUT",
              "url": "Provenance/0a7545d7-202f-96e5-31e9-bb7d27ade3c2"
          }
      },
      {
          "fullUrl": "urn:uuid:4356fb81-6ecd-2d70-57b1-47812638e785",
          "resource": {
              "resourceType": "Organization",
              "id": "4356fb81-6ecd-2d70-57b1-47812638e785",
              "identifier": [
                  {
                      "value": "GHHSFacility",
                      "system": "http://example.com/v2-to-fhir-converter/Identifier/GHHSFacility"
                  },
                  {
                      "value": "urn:oid:2.16.840.1.122848.1.30",
                      "system": "urn:ietf:rfc:3986",
                      "type": {
                          "coding": [
                              {
                                  "code": "ISO",
                                  "display": "An International Standards Organization Object Identifier (OID), in accordance with ISO/IEC 8824. Formatted as decimal digits separated by periods; recommended limit of 64 characters",
                                  "system": "http://terminology.hl7.org/CodeSystem/v2-0301"
                              }
                          ]
                      }
                  }
              ],
              "partOf": {
                  "reference": "Organization/33532a82-d220-4c0d-1abe-53e48951c201"
              },
              "address": [
                  {
                      "country": "USA"
                  }
              ]
          },
          "request": {
              "method": "PUT",
              "url": "Organization/4356fb81-6ecd-2d70-57b1-47812638e785"
          }
      },
      {
          "fullUrl": "urn:uuid:62781ad6-3896-cb63-0178-ead0c4a432b5",
          "resource": {
              "resourceType": "Organization",
              "id": "62781ad6-3896-cb63-0178-ead0c4a432b5",
              "identifier": [
                  {
                      "value": "GHHRFacility",
                      "system": "http://example.com/v2-to-fhir-converter/Identifier/GHHRFacility"
                  },
                  {
                      "value": "urn:oid:2.16.840.1.1122848.1.32",
                      "system": "urn:ietf:rfc:3986",
                      "type": {
                          "coding": [
                              {
                                  "code": "ISO",
                                  "display": "An International Standards Organization Object Identifier (OID), in accordance with ISO/IEC 8824. Formatted as decimal digits separated by periods; recommended limit of 64 characters",
                                  "system": "http://terminology.hl7.org/CodeSystem/v2-0301"
                              }
                          ]
                      }
                  }
              ],
              "partOf": {
                  "reference": "Organization/527280c1-34d1-c639-e9ba-61986d28e266"
              },
              "address": [
                  {
                      "country": "USA"
                  }
              ]
          },
          "request": {
              "method": "PUT",
              "url": "Organization/62781ad6-3896-cb63-0178-ead0c4a432b5"
          }
      },
      {
          "fullUrl": "urn:uuid:33532a82-d220-4c0d-1abe-53e48951c201",
          "resource": {
              "resourceType": "Organization",
              "id": "33532a82-d220-4c0d-1abe-53e48951c201",
              "name": "22 GHH Inc."
          },
          "request": {
              "method": "PUT",
              "url": "Organization/33532a82-d220-4c0d-1abe-53e48951c201"
          }
      },
      {
          "fullUrl": "urn:uuid:527280c1-34d1-c639-e9ba-61986d28e266",
          "resource": {
              "resourceType": "Organization",
              "id": "527280c1-34d1-c639-e9ba-61986d28e266",
              "name": "23 GHH Inc."
          },
          "request": {
              "method": "PUT",
              "url": "Organization/527280c1-34d1-c639-e9ba-61986d28e266"
          }
      },
      {
          "fullUrl": "urn:uuid:503eb873-22fb-8199-ae28-3604ad59fe13",
          "resource": {
              "resourceType": "Device",
              "id": "503eb873-22fb-8199-ae28-3604ad59fe13",
              "identifier": [
                  {
                      "value": "ADTApp"
                  }
              ]
          },
          "request": {
              "method": "PUT",
              "url": "Device/503eb873-22fb-8199-ae28-3604ad59fe13"
          }
      },
      {
          "fullUrl": "urn:uuid:9e909e52-61a1-be50-1878-a12ef8c36346",
          "resource": {
              "resourceType": "Patient",
              "id": "9e909e52-61a1-be50-1878-a12ef8c36346",
              "identifier": [
                  {
                      "value": "1234567",
                      "type": {
                          "coding": [
                              {
                                  "code": "MR",
                                  "system": "http://terminology.hl7.org/CodeSystem/v2-0203",
                                  "display": "Medical record number"
                              }
                          ]
                      },
                      "system": "http://example.com/v2-to-fhir-converter/Identifier/test",
                      "period": {
                          "start": "1924-10-11",
                          "end": "1924-10-12"
                      }
                  },
                  {
                      "value": "PATID1234",
                      "type": {
                          "coding": [
                              {
                                  "code": "MR",
                                  "system": "http://terminology.hl7.org/CodeSystem/v2-0203",
                                  "display": "Medical record number"
                              }
                          ]
                      },
                      "system": "http://example.com/v2-to-fhir-converter/Identifier/HCD",
                      "assigner": {
                          "reference": "Organization/b3ad3a9f-d4f6-4638-0a09-2da771733488"
                      }
                  },
                  {
                      "value": "123456789",
                      "type": {
                          "coding": [
                              {
                                  "code": "SS",
                                  "system": "http://terminology.hl7.org/CodeSystem/v2-0203",
                                  "display": "Social Security number"
                              }
                          ]
                      },
                      "system": "http://example.com/v2-to-fhir-converter/Identifier/USSSA"
                  },
                  {
                      "value": "PATID567",
                      "system": "http://example.com/v2-to-fhir-converter/Identifier/test2"
                  },
                  {
                      "value": "PSSN123121234",
                      "type": {
                          "coding": [
                              {
                                  "code": "SB",
                                  "system": "http://terminology.hl7.org/CodeSystem/v2-0203"
                              }
                          ]
                      },
                      "system": "http://hl7.org/fhir/sid/us-ssn"
                  },
                  {
                      "value": "DLN-123",
                      "type": {
                          "coding": [
                              {
                                  "code": "DL"
                              }
                          ]
                      },
                      "system": "http://example.com/v2-to-fhir-converter/CodeSystem/US",
                      "period": {
                          "end": "2001-01-23"
                      }
                  }
              ],
              "name": [
                  {
                      "family": "EVERYMAN",
                      "given": [
                          "ADAM",
                          "A",
                          "Addsm"
                      ],
                      "suffix": [
                          "III",
                          "MD",
                          "PF"
                      ],
                      "prefix": [
                          "Dr."
                      ],
                      "use": "usual",
                      "period": {
                          "start": "1924-10-12"
                      }
                  },
                  {
                      "family": "Josh",
                      "given": [
                          "stanley"
                      ],
                      "use": "official",
                      "period": {
                          "start": "1924-10-10",
                          "end": "1924-10-15"
                      }
                  },
                  {
                      "family": "elbert",
                      "given": [
                          "Son"
                      ]
                  }
              ],
              "birthDate": "1988-08-18",
              "_birthDate": {
                  "extension": [
                      {
                          "url": "http://hl7.org/fhir/StructureDefinition/patient-birthTime",
                          "valueDateTime": "1988-08-18T14:41:00+05:30"
                      }
                  ]
              },
              "gender": "male",
              "address": [
                  {
                      "line": [
                          "1000",
                          "Hospital Lane",
                          "Ste. 123",
                          "Near Highway"
                      ],
                      "city": "Ann Arbor",
                      "state": "MI",
                      "postalCode": "99999",
                      "country": "USA",
                      "type": "postal",
                      "district": "W",
                      "period": {
                          "start": "2000-01-10",
                          "end": "2000-01-20"
                      }
                  }
              ],
              "telecom": [
                  {
                      "value": "2222",
                      "system": "phone",
                      "period": {
                          "start": "2001-01-10",
                          "end": "2002-01-10"
                      },
                      "rank": 18,
                      "use": "home"
                  },
                  {
                      "value": "12121212",
                      "system": "phone",
                      "use": "home"
                  },
                  {
                      "value": "7777",
                      "system": "phone",
                      "use": "work"
                  },
                  {
                      "value": "1111",
                      "system": "other",
                      "use": "work"
                  },
                  {
                      "value": "89898989",
                      "use": "work",
                      "system": "email"
                  }
              ],
              "communication": [
                  {
                      "language": {
                          "coding": [
                              {
                                  "code": "ar",
                                  "display": "Arabic",
                                  "system": "urn:ietf:bcp:47",
                                  "version": "v2"
                              },
                              {
                                  "code": "en",
                                  "display": "English",
                                  "system": "urn:ietf:bcp:47",
                                  "version": "v2.1"
                              }
                          ],
                          "text": "TextInEnglish"
                      },
                      "preferred": true
                  }
              ],
              "maritalStatus": {
                  "coding": [
                      {
                          "code": "M",
                          "display": "Married",
                          "system": "http://terminology.hl7.org/CodeSystem/v3-MaritalStatus"
                      }
                  ]
              },
              "multipleBirthInteger": 2,
              "deceasedDateTime": "2008-08-25T15:31:30+05:30",
              "meta": {
                  "lastUpdated": "2005-01-10T04:05:14+05:30"
              },
              "extension": [
                  {
                      "url": "http://hl7.org/fhir/us/core/StructureDefinition/us-core-race",
                      "extension": [
                          {
                              "url": "ombCategory",
                              "valueCoding": {
                                  "code": "2106-3",
                                  "display": "White",
                                  "system": "urn:oid:2.16.840.1.113883.6.238"
                              }
                          },
                          {
                              "url": "ombCategory",
                              "valueCoding": {
                                  "code": "2028-9",
                                  "display": "Asian",
                                  "system": "urn:oid:2.16.840.1.113883.6.238"
                              }
                          },
                          {
                              "url": "text",
                              "valueString": "White+Asian"
                          }
                      ]
                  },
                  {
                      "url": "http://hl7.org/fhir/StructureDefinition/patient-mothersMaidenName",
                      "valueString": "SMITH--Angela--L"
                  },
                  {
                      "url": "http://hl7.org/fhir/StructureDefinition/patient-birthPlace",
                      "valueAddress": {
                          "text": "St. Francis Community Hospital of Lower South Side"
                      }
                  },
                  {
                      "url": "http://hl7.org/fhir/StructureDefinition/patient-religion",
                      "valueCodeableConcept": {
                          "coding": [
                              {
                                  "code": "1002",
                                  "display": "African Religions",
                                  "system": "http://terminology.hl7.org/CodeSystem/v3-ReligiousAffiliation"
                              }
                          ]
                      }
                  },
                  {
                      "url": "http://hl7.org/fhir/us/core/StructureDefinition/us-core-ethnicity",
                      "extension": [
                          {
                              "url": "ombCategory",
                              "valueCoding": {
                                  "code": "2186-5",
                                  "display": "Non Hispanic or Latino",
                                  "system": "urn:oid:2.16.840.1.113883.6.238"
                              }
                          },
                          {
                              "url": "text",
                              "valueString": "Non Hispanic or Latino"
                          }
                      ]
                  },
                  {
                      "url": "http://example.com/v2-to-fhir-converter/StructureDefinition/VeteranMilitaryStatus",
                      "valueCodeableConcept": {
                          "coding": [
                              {
                                  "code": "Vet123",
                                  "display": "retired",
                                  "system": "http://example.com/v2-to-fhir-converter/CodeSystem/ART"
                              }
                          ],
                          "text": "retired"
                      }
                  },
                  {
                      "url": "http://hl7.org/fhir/StructureDefinition/patient-animal",
                      "extension": [
                          {
                              "url": "species",
                              "valueCodeableConcept": {
                                  "coding": [
                                      {
                                          "code": "125097000",
                                          "display": "Goat",
                                          "system": "http://snomed.info/sct"
                                      }
                                  ],
                                  "text": "Goat"
                              }
                          },
                          {
                              "url": "breed",
                              "valueCodeableConcept": {
                                  "coding": [
                                      {
                                          "code": "4880003",
                                          "display": "Beagle",
                                          "system": "http://snomed.info/sct"
                                      }
                                  ],
                                  "text": "Beagle"
                              }
                          }
                      ]
                  },
                  {
                      "url": "http://hl7.org/fhir/StructureDefinition/patient-citizenship",
                      "extension": [
                          {
                              "url": "code",
                              "valueCodeableConcept": {
                                  "coding": [
                                      {
                                          "code": "US",
                                          "display": "United States of America",
                                          "system": "urn:iso:std:iso:3166"
                                      }
                                  ],
                                  "text": "United States of America"
                              }
                          }
                      ]
                  },
                  {
                      "url": "http://hl7.org/fhir/StructureDefinition/patient-citizenship",
                      "extension": [
                          {
                              "url": "code",
                              "valueCodeableConcept": {
                                  "coding": [
                                      {
                                          "code": "CA",
                                          "display": "Canada",
                                          "system": "urn:iso:std:iso:3166"
                                      }
                                  ],
                                  "text": "Canada"
                              }
                          }
                      ]
                  },
                  {
                      "url": "http://hl7.org/fhir/StructureDefinition/patient-nationality",
                      "extension": [
                          {
                              "url": "code",
                              "valueCodeableConcept": {
                                  "coding": [
                                      {
                                          "code": "BT",
                                          "display": "Bhutan",
                                          "system": "urn:iso:std:iso:3166"
                                      }
                                  ],
                                  "text": "Bhutan"
                              }
                          }
                      ]
                  }
              ]
          },
          "request": {
              "method": "PUT",
              "url": "Patient/9e909e52-61a1-be50-1878-a12ef8c36346"
          }
      },
      {
          "fullUrl": "urn:uuid:4ad7c7d0-b69a-0653-9ea9-0979b8a66b39",
          "resource": {
              "resourceType": "Account",
              "id": "4ad7c7d0-b69a-0653-9ea9-0979b8a66b39",
              "identifier": [
                  {
                      "value": "4000776",
                      "type": {
                          "coding": [
                              {
                                  "code": "VN",
                                  "system": "http://terminology.hl7.org/CodeSystem/v2-0203",
                                  "display": "Visit number"
                              }
                          ]
                      },
                      "system": "urn:oid:1.3.6.1.4.1.44750.1.2.2",
                      "assigner": {
                          "reference": "Organization/816e4ec3-f5a6-5969-08c8-a71ef576263e"
                      },
                      "period": {
                          "start": "1924-10-11",
                          "end": "1924-10-12"
                      }
                  }
              ],
              "status": "active",
              "subject": [
                  {
                      "reference": "Patient/9e909e52-61a1-be50-1878-a12ef8c36346"
                  }
              ]
          },
          "request": {
              "method": "PUT",
              "url": "Account/4ad7c7d0-b69a-0653-9ea9-0979b8a66b39"
          }
      },
      {
          "fullUrl": "urn:uuid:816e4ec3-f5a6-5969-08c8-a71ef576263e",
          "resource": {
              "resourceType": "Organization",
              "id": "816e4ec3-f5a6-5969-08c8-a71ef576263e",
              "identifier": [
                  {
                      "value": "AccMgr",
                      "system": "http://example.com/v2-to-fhir-converter/Identifier/AccMgr"
                  },
                  {
                      "value": "urn:oid:1.3.6.1.4.1.44750.1.2.2",
                      "system": "urn:ietf:rfc:3986",
                      "type": {
                          "coding": [
                              {
                                  "code": "ISO",
                                  "display": "An International Standards Organization Object Identifier (OID), in accordance with ISO/IEC 8824. Formatted as decimal digits separated by periods; recommended limit of 64 characters",
                                  "system": "http://terminology.hl7.org/CodeSystem/v2-0301"
                              }
                          ]
                      }
                  }
              ]
          },
          "request": {
              "method": "PUT",
              "url": "Organization/816e4ec3-f5a6-5969-08c8-a71ef576263e"
          }
      },
      {
          "fullUrl": "urn:uuid:b3ad3a9f-d4f6-4638-0a09-2da771733488",
          "resource": {
              "resourceType": "Organization",
              "id": "b3ad3a9f-d4f6-4638-0a09-2da771733488",
              "identifier": [
                  {
                      "value": "test1",
                      "system": "http://example.com/v2-to-fhir-converter/Identifier/test1"
                  },
                  {
                      "value": "2.16.1",
                      "system": "http://example.com/v2-to-fhir-converter/Identifier/HCD",
                      "type": {
                          "coding": [
                              {
                                  "code": "HCD",
                                  "display": "The CEN Healthcare Coding Scheme Designator",
                                  "system": "http://terminology.hl7.org/CodeSystem/v2-0301"
                              }
                          ]
                      }
                  }
              ]
          },
          "request": {
              "method": "PUT",
              "url": "Organization/b3ad3a9f-d4f6-4638-0a09-2da771733488"
          }
      },
      {
          "fullUrl": "urn:uuid:f3954ae4-dec6-f114-1b9e-3a8a85d93f99",
          "resource": {
              "resourceType": "Organization",
              "id": "f3954ae4-dec6-f114-1b9e-3a8a85d93f99",
              "identifier": [
                  {
                      "value": "NTH",
                      "system": "http://example.com/v2-to-fhir-converter/Identifier/NTH"
                  },
                  {
                      "value": "rt23",
                      "system": "http://example.com/v2-to-fhir-converter/Identifier/HCD",
                      "type": {
                          "coding": [
                              {
                                  "code": "HCD",
                                  "display": "The CEN Healthcare Coding Scheme Designator",
                                  "system": "http://terminology.hl7.org/CodeSystem/v2-0301"
                              }
                          ]
                      }
                  }
              ]
          },
          "request": {
              "method": "PUT",
              "url": "Organization/f3954ae4-dec6-f114-1b9e-3a8a85d93f99"
          }
      },
      {
          "fullUrl": "urn:uuid:62b2e1ee-a272-4ffe-692e-a1fbfd49af6a",
          "resource": {
              "resourceType": "RelatedPerson",
              "id": "62b2e1ee-a272-4ffe-692e-a1fbfd49af6a",
              "identifier": [
                  {
                      "value": "1212121",
                      "type": {
                          "coding": [
                              {
                                  "code": "AND",
                                  "system": "http://terminology.hl7.org/CodeSystem/v2-0203",
                                  "display": "Account number debitor"
                              }
                          ]
                      },
                      "system": "http://example.com/v2-to-fhir-converter/Identifier/HCD",
                      "assigner": {
                          "reference": "Organization/f3954ae4-dec6-f114-1b9e-3a8a85d93f99"
                      },
                      "period": {
                          "start": "1924-10-11",
                          "end": "1924-10-12"
                      }
                  }
              ],
              "relationship": [
                  {
                      "coding": [
                          {
                              "code": "MTH",
                              "system": "http://terminology.hl7.org/CodeSystem/v3-RoleCode"
                          }
                      ]
                  }
              ],
              "patient": {
                  "reference": "Patient/9e909e52-61a1-be50-1878-a12ef8c36346"
              }
          },
          "request": {
              "method": "PUT",
              "url": "RelatedPerson/62b2e1ee-a272-4ffe-692e-a1fbfd49af6a"
          }
      },
      {
          "fullUrl": "urn:uuid:07eea8d4-d9d1-105e-9d76-23efad1ef94d",
          "resource": {
              "resourceType": "Provenance",
              "id": "07eea8d4-d9d1-105e-9d76-23efad1ef94d",
              "occurredDateTime": "2021-08-17T18:49:43.4+05:30",
              "recorded": "2029-08-01T11:21:24+05:30",
              "reason": [
                  {
                      "coding": [
                          {
                              "code": "PATRQT",
                              "display": "patient requested",
                              "system": "http://terminology.hl7.org/CodeSystem/v3-ActReason"
                          }
                      ]
                  }
              ],
              "agent": [
                  {
                      "who": {
                          "reference": "Practitioner/96931008-2247-6199-b3c0-0ee12e528d72"
                      }
                  }
              ],
              "activity": {
                  "text": "ADT^A60^ADT_A60"
              },
              "location": {
                  "reference": "Location/59d5e519-0108-5dd8-adfa-1eef5658009e"
              },
              "target": [
                  {
                      "reference": "Bundle/513a3d06-5e87-6fbc-ad1b-170ab430499f"
                  }
              ]
          },
          "request": {
              "method": "PUT",
              "url": "Provenance/07eea8d4-d9d1-105e-9d76-23efad1ef94d"
          }
      },
      {
          "fullUrl": "urn:uuid:3cd92576-75fd-2465-a15f-b469be921588",
          "resource": {
              "resourceType": "Organization",
              "id": "3cd92576-75fd-2465-a15f-b469be921588",
              "identifier": [
                  {
                      "value": "DRNBR",
                      "system": "http://example.com/v2-to-fhir-converter/Identifier/DRNBR"
                  },
                  {
                      "value": "urn:oid:1.3.6.1.4.1.44750.1.2.2",
                      "system": "urn:ietf:rfc:3986",
                      "type": {
                          "coding": [
                              {
                                  "code": "ISO",
                                  "display": "An International Standards Organization Object Identifier (OID), in accordance with ISO/IEC 8824. Formatted as decimal digits separated by periods; recommended limit of 64 characters",
                                  "system": "http://terminology.hl7.org/CodeSystem/v2-0301"
                              }
                          ]
                      }
                  }
              ]
          },
          "request": {
              "method": "PUT",
              "url": "Organization/3cd92576-75fd-2465-a15f-b469be921588"
          }
      },
      {
          "fullUrl": "urn:uuid:96931008-2247-6199-b3c0-0ee12e528d72",
          "resource": {
              "resourceType": "Practitioner",
              "id": "96931008-2247-6199-b3c0-0ee12e528d72",
              "identifier": [
                  {
                      "value": "C08",
                      "system": "urn:oid:1.3.6.1.4.1.44750.1.2.2",
                      "assigner": {
                          "reference": "Organization/3cd92576-75fd-2465-a15f-b469be921588"
                      },
                      "type": {
                          "coding": [
                              {
                                  "code": "ANON",
                                  "display": "Anonymous identifier",
                                  "system": "http://terminology.hl7.org/CodeSystem/v2-0203"
                              }
                          ]
                      }
                  }
              ],
              "name": [
                  {
                      "family": "Woolfson",
                      "given": [
                          "Kathleen",
                          "2ndname"
                      ],
                      "suffix": [
                          "Jr",
                          "MD"
                      ],
                      "prefix": [
                          "Dr"
                      ],
                      "use": "official"
                  }
              ]
          },
          "request": {
              "method": "PUT",
              "url": "Practitioner/96931008-2247-6199-b3c0-0ee12e528d72"
          }
      },
      {
          "fullUrl": "urn:uuid:59d5e519-0108-5dd8-adfa-1eef5658009e",
          "resource": {
              "resourceType": "Location",
              "id": "59d5e519-0108-5dd8-adfa-1eef5658009e",
              "name": "Cona_Health",
              "identifier": [
                  {
                      "value": "urn:oid:1.3.6.1.4.1.44750.1.4",
                      "system": "urn:ietf:rfc:3986"
                  }
              ],
              "physicalType": {
                  "coding": [
                      {
                          "code": "si",
                          "display": "site",
                          "system": "http://terminology.hl7.org/CodeSystem/location-physical-type"
                      }
                  ]
              }
          },
          "request": {
              "method": "PUT",
              "url": "Location/59d5e519-0108-5dd8-adfa-1eef5658009e"
          }
      },
      {
          "fullUrl": "urn:uuid:373c1fcc-c86b-470a-6469-b7642c16262d",
          "resource": {
              "resourceType": "AllergyIntolerance",
              "id": "373c1fcc-c86b-470a-6469-b7642c16262d",
              "identifier": [
                  {
                      "value": "56789",
                      "system": "urn:oid:1.3.6.1.4.1.44750.1.4",
                      "type": {
                          "coding": [
                              {
                                  "code": "ISO",
                                  "display": "An International Standards Organization Object Identifier (OID), in accordance with ISO/IEC 8824. Formatted as decimal digits separated by periods; recommended limit of 64 characters",
                                  "system": "http://terminology.hl7.org/CodeSystem/v2-0301"
                              }
                          ]
                      }
                  }
              ],
              "category": [
                  "food"
              ],
              "code": {
                  "coding": [
                      {
                          "code": "12345",
                          "display": "Peanut Allergy",
                          "system": "http://example.com/v2-to-fhir-converter/CodeSystem/L"
                      },
                      {
                          "code": "91935009",
                          "display": "Allergy to Peanuts",
                          "system": "http://snomed.info/sct"
                      }
                  ]
              },
              "onsetDateTime": "2018-05",
              "recordedDate": "2020-10-10T19:15:00+05:30",
              "verificationStatus": {
                  "coding": [
                      {
                          "code": "confirmed",
                          "display": "Confirmed",
                          "system": "http://terminology.hl7.org/CodeSystem/allergyintolerance-verification"
                      }
                  ]
              },
              "clinicalStatus": {
                  "coding": [
                      {
                          "code": "active",
                          "display": "Active",
                          "system": "http://terminology.hl7.org/CodeSystem/allergyintolerance-clinical"
                      }
                  ]
              },
              "meta": {
                  "lastUpdated": "2020-10-15T19:15:00+05:30"
              },
              "patient": {
                  "reference": "Patient/9e909e52-61a1-be50-1878-a12ef8c36346"
              },
              "recorder": {
                  "reference": "Practitioner/6c9ea0f5-1b45-04f9-e07d-bae5096b7a4a"
              },
              "asserter": {
                  "reference": "RelatedPerson/0a6b16c1-29cf-715d-336e-ab26980ed904"
              },
              "type": "allergy",
              "_type": {
                  "extension": [
                      {
                          "url": "http://example.com/v2-to-fhir-converter/StructureDefinition/allergyintolerance-type",
                          "valueCode": "SE"
                      }
                  ]
              }
          },
          "request": {
              "method": "PUT",
              "url": "AllergyIntolerance/373c1fcc-c86b-470a-6469-b7642c16262d"
          }
      },
      {
          "fullUrl": "urn:uuid:df03b003-6818-1abd-209e-0889025aad16",
          "resource": {
              "resourceType": "Organization",
              "id": "df03b003-6818-1abd-209e-0889025aad16",
              "identifier": [
                  {
                      "value": "NPIID",
                      "system": "http://example.com/v2-to-fhir-converter/Identifier/NPIID"
                  },
                  {
                      "value": "urn:oid:2.16.840.1.113883.4.6",
                      "system": "urn:ietf:rfc:3986",
                      "type": {
                          "coding": [
                              {
                                  "code": "ISO",
                                  "display": "An International Standards Organization Object Identifier (OID), in accordance with ISO/IEC 8824. Formatted as decimal digits separated by periods; recommended limit of 64 characters",
                                  "system": "http://terminology.hl7.org/CodeSystem/v2-0301"
                              }
                          ]
                      }
                  }
              ]
          },
          "request": {
              "method": "PUT",
              "url": "Organization/df03b003-6818-1abd-209e-0889025aad16"
          }
      },
      {
          "fullUrl": "urn:uuid:6c9ea0f5-1b45-04f9-e07d-bae5096b7a4a",
          "resource": {
              "resourceType": "Practitioner",
              "id": "6c9ea0f5-1b45-04f9-e07d-bae5096b7a4a",
              "identifier": [
                  {
                      "value": "9941339108",
                      "system": "urn:oid:2.16.840.1.113883.4.6",
                      "assigner": {
                          "reference": "Organization/df03b003-6818-1abd-209e-0889025aad16"
                      },
                      "type": {
                          "coding": [
                              {
                                  "code": "NPI",
                                  "display": "National provider identifier",
                                  "system": "http://terminology.hl7.org/CodeSystem/v2-0203"
                              }
                          ]
                      }
                  }
              ],
              "name": [
                  {
                      "family": "Smith",
                      "given": [
                          "Adam",
                          "Mellie"
                      ],
                      "suffix": [
                          "Jr",
                          "MD",
                          "GP"
                      ],
                      "prefix": [
                          "Dr"
                      ],
                      "use": "official",
                      "period": {
                          "start": "2010-01-15",
                          "end": "2020-01-15"
                      }
                  }
              ]
          },
          "request": {
              "method": "PUT",
              "url": "Practitioner/6c9ea0f5-1b45-04f9-e07d-bae5096b7a4a"
          }
      },
      {
          "fullUrl": "urn:uuid:0a6b16c1-29cf-715d-336e-ab26980ed904",
          "resource": {
              "resourceType": "RelatedPerson",
              "id": "0a6b16c1-29cf-715d-336e-ab26980ed904",
              "relationship": [
                  {
                      "coding": [
                          {
                              "code": "SPS",
                              "display": "spouse",
                              "system": "http://terminology.hl7.org/CodeSystem/v3-RoleCode"
                          }
                      ]
                  }
              ],
              "name": [
                  {
                      "family": "Doe",
                      "given": [
                          "Rosallie",
                          "John"
                      ],
                      "suffix": [
                          "III",
                          "Bachelors"
                      ],
                      "prefix": [
                          "Mrs."
                      ],
                      "use": "official"
                  }
              ],
              "patient": {
                  "reference": "Patient/9e909e52-61a1-be50-1878-a12ef8c36346"
              }
          },
          "request": {
              "method": "PUT",
              "url": "RelatedPerson/0a6b16c1-29cf-715d-336e-ab26980ed904"
          }
      }
  ]
}