{
    "resourceType": "Bundle",
    "type": "batch",
    "entry": [
        {
            "fullUrl": "urn:uuid:b5fb64eb-f707-376a-b7e4-7e85a4b24f48",
            "resource": {
                "resourceType": "Composition",
                "id": "b5fb64eb-f707-376a-b7e4-7e85a4b24f48",
                "identifier": {
                    "use": "official",
                    "value": "2.16.840.1.113883.19"
                },
                "status": "final",
                "type": {
                    "coding": [
                        {
                            "code": "11490-0",
                            "display": "Discharge summarization note",
                            "system": "http://loinc.org"
                        }
                    ]
                },
                "date": "2005-03-29T12:15:04.000Z",
                "title": "Discharge Summary (UD)",
                "confidentiality": "N",
                "attester": [
                    {
                        "mode": "legal",
                        "time": "2005-03-29T17:44:11.000Z",
                        "party": {
                            "reference": "Practitioner/d503a497-3239-328b-900d-7fdff816f8a9"
                        }
                    }
                ],
                "subject": {
                    "reference": "Patient/4c6e05ad-5408-3d42-a64f-b9d1e603c9c6"
                },
                "custodian": {
                    "reference": "Organization/6af2a719-a618-34d6-90d1-0e1f1b07185c"
                },
                "author": [
                    {
                        "reference": "Practitioner/d276aed6-83a7-313b-b45b-d59f2aafe9ad"
                    }
                ]
            },
            "request": {
                "method": "PUT",
                "url": "Composition/b5fb64eb-f707-376a-b7e4-7e85a4b24f48"
            }
        },
        {
            "fullUrl": "urn:uuid:6af2a719-a618-34d6-90d1-0e1f1b07185c",
            "resource": {
                "resourceType": "Organization",
                "id": "6af2a719-a618-34d6-90d1-0e1f1b07185c",
                "identifier": [
                    {
                        "system": "urn:ietf:rfc:3986",
                        "value": "urn:uuid:2.16.840.1.113883.19.5"
                    }
                ],
                "name": "Good Health Clinic",
                "address": [
                    {
                        "use": "work",
                        "line": [
                            "17 Daws Rd."
                        ],
                        "city": "Blue Bell",
                        "state": "MA",
                        "country": "USA",
                        "postalCode": "02368"
                    }
                ],
                "telecom": [
                    {
                        "system": "phone",
                        "value": "(555)555-1212",
                        "use": "work"
                    }
                ]
            },
            "request": {
                "method": "PUT",
                "url": "Organization/6af2a719-a618-34d6-90d1-0e1f1b07185c"
            }
        },
        {
            "fullUrl": "urn:uuid:d276aed6-83a7-313b-b45b-d59f2aafe9ad",
            "resource": {
                "resourceType": "Practitioner",
                "meta": {
                    "profile": [
                        "http://hl7.org/fhir/us/core/StructureDefinition/us-core-practitioner"
                    ]
                },
                "id": "d276aed6-83a7-313b-b45b-d59f2aafe9ad",
                "identifier": [
                    {
                        "system": "urn:oid:2.16.840.1.113883.19.5",
                        "value": "KP00017"
                    }
                ],
                "name": [
                    {
                        "family": "Seven",
                        "given": [
                            "Henry"
                        ]
                    }
                ],
                "address": [
                    {
                        "line": [
                            "21 North Ave."
                        ],
                        "city": "Burlington",
                        "state": "MA",
                        "country": "USA",
                        "postalCode": "02368"
                    }
                ],
                "telecom": [
                    {
                        "system": "phone",
                        "value": "(555)555-1003",
                        "use": "work"
                    }
                ]
            },
            "request": {
                "method": "PUT",
                "url": "Practitioner/d276aed6-83a7-313b-b45b-d59f2aafe9ad"
            }
        },
        {
            "fullUrl": "urn:uuid:4c6e05ad-5408-3d42-a64f-b9d1e603c9c6",
            "resource": {
                "resourceType": "Patient",
                "meta": {
                    "profile": [
                        "http://hl7.org/fhir/us/core/StructureDefinition/us-core-patient"
                    ]
                },
                "id": "4c6e05ad-5408-3d42-a64f-b9d1e603c9c6",
                "identifier": [
                    {
                        "system": "urn:oid:2.16.840.1.113883.19",
                        "value": "12345"
                    }
                ],
                "name": [
                    {
                        "use": "usual",
                        "family": "Everyman",
                        "given": [
                            "Adam",
                            "Frankie"
                        ],
                        "prefix": [
                            "Mr."
                        ]
                    }
                ],
                "birthDate": "1954-11-25",
                "gender": "male",
                "extension": [
                    {
                        "url": "http://hl7.org/fhir/us/core/StructureDefinition/us-core-race",
                        "extension": [
                            {
                                "url": "ombCategory",
                                "valueCoding": {
                                    "code": "2106-3",
                                    "display": "White",
                                    "system": "urn:oid:2.16.840.1.113883.6.238"
                                }
                            },
                            {
                                "url": "text",
                                "valueString": "White"
                            }
                        ]
                    },
                    {
                        "url": "http://hl7.org/fhir/us/core/StructureDefinition/us-core-ethnicity",
                        "extension": [
                            {
                                "url": "ombCategory",
                                "valueCoding": {
                                    "code": "2186-5",
                                    "display": "Not Hispanic or Latino",
                                    "system": "urn:oid:2.16.840.1.113883.6.238"
                                }
                            },
                            {
                                "url": "text",
                                "valueString": "Not Hispanic or Latino"
                            }
                        ]
                    }
                ],
                "address": [
                    {
                        "use": "home",
                        "line": [
                            "17 Daws Rd."
                        ],
                        "city": "Blue Bell",
                        "state": "MA",
                        "country": "US",
                        "postalCode": "02368"
                    }
                ],
                "telecom": [
                    {
                        "system": "phone",
                        "value": "(781)555-1212",
                        "use": "home"
                    }
                ],
                "communication": [
                    {
                        "language": {
                            "coding": [
                                {
                                    "system": "urn:ietf:bcp:47",
                                    "code": "fr-CN"
                                }
                            ]
                        },
                        "preferred": true
                    }
                ]
            },
            "request": {
                "method": "PUT",
                "url": "Patient/4c6e05ad-5408-3d42-a64f-b9d1e603c9c6"
            }
        },
        {
            "fullUrl": "urn:uuid:ab06cca0-80d5-3efe-9322-84093fb5c5da",
            "resource": {
                "resourceType": "RelatedPerson",
                "id": "ab06cca0-80d5-3efe-9322-84093fb5c5da",
                "relationship": [
                    {
                        "coding": [
                            {
                                "code": "GRFTH",
                                "display": "Grandfather",
                                "system": "urn:oid:2.16.840.1.113883.5.111"
                            }
                        ]
                    }
                ],
                "name": [
                    {
                        "family": "Relative",
                        "given": [
                            "Ralph"
                        ]
                    }
                ],
                "telecom": [
                    {
                        "system": "phone",
                        "value": "(781)555-1212",
                        "use": "home"
                    }
                ],
                "address": [
                    {
                        "use": "home",
                        "line": [
                            "17 Daws Rd."
                        ],
                        "city": "Blue Bell",
                        "state": "MA",
                        "country": "US",
                        "postalCode": "02368"
                    }
                ],
                "patient": {
                    "reference": "Patient/4c6e05ad-5408-3d42-a64f-b9d1e603c9c6"
                }
            },
            "request": {
                "method": "PUT",
                "url": "RelatedPerson/ab06cca0-80d5-3efe-9322-84093fb5c5da"
            }
        },
        {
            "fullUrl": "urn:uuid:e0486a3e-4027-3a6b-9659-191309355f1d",
            "resource": {
                "resourceType": "DocumentReference",
                "id": "e0486a3e-4027-3a6b-9659-191309355f1d",
                "type": {
                    "coding": [
                        {
                            "code": "11490-0",
                            "display": "Discharge summarization note",
                            "system": "http://loinc.org"
                        }
                    ]
                },
                "date": "2020-08-27T04:06:08.148Z",
                "status": "current",
                "content": [
                    {
                        "attachment": {
                            "contentType": "text/plain",
                            "data": "",
                            "hash": "rjCfhWBHl4xUJr4mTUeM6SMQyn8="
                        }
                    }
                ]
            },
            "request": {
                "method": "PUT",
                "url": "DocumentReference/e0486a3e-4027-3a6b-9659-191309355f1d"
            }
        }
    ]
}