{
    "sourceData": {
        "v2": {
          "data": [
            [
              [
                [
                  "^~\\&"
                ]
              ],
              [
                [
                  "AccMgr"
                ]
              ],
              [
                [
                  "1"
                ]
              ],
              null,
              null,
              [
                [
                  "20050110045504"
                ]
              ],
              null,
              [
                [
                  "ADT"
                ],
                [
                  "A01"
                ]
              ],
              [
                [
                  "599102"
                ]
              ],
              [
                [
                  "P"
                ]
              ],
              [
                [
                  "2.3"
                ]
              ],
              null,
              null,
              [
                [
                  " "
                ]
              ]
            ],
            [
              [
                [
                  "A01"
                ]
              ],
              [
                [
                  "20050110045502"
                ]
              ],
              null,
              null,
              null,
              null,
              [
                [
                  " "
                ]
              ]
            ],
            [
              [
                [
                  "1"
                ]
              ],
              null,
              [
                [
                  "10006579"
                ],
                null,
                null,
                [
                  "1"
                ],
                [
                  "MR"
                ],
                [
                  "1"
                ]
              ],
              null,
              [
                [
                  "DUCK"
                ],
                [
                  "DONALD"
                ],
                [
                  "D"
                ]
              ],
              null,
              [
                [
                  "19241010"
                ]
              ],
              [
                [
                  "M"
                ]
              ],
              null,
              [
                [
                  "1"
                ]
              ],
              [
                [
                  "111 DUCK ST"
                ],
                null,
                [
                  "FOWL"
                ],
                [
                  "CA"
                ],
                [
                  "999990000"
                ],
                null,
                [
                  "M"
                ]
              ],
              [
                [
                  "1"
                ]
              ],
              [
                [
                  "8885551212"
                ]
              ],
              [
                [
                  "8885551212"
                ]
              ],
              [
                [
                  "1"
                ]
              ],
              [
                [
                  "2"
                ]
              ],
              null,
              [
                [
                  "40007716"
                ],
                null,
                null,
                [
                  "AccMgr"
                ],
                [
                  "VN"
                ],
                [
                  "1"
                ]
              ],
              [
                [
                  "123121234"
                ]
              ],
              null,
              null,
              null,
              null,
              null,
              null,
              null,
              null,
              null,
              null,
              [
                [
                  "NO "
                ]
              ]
            ],
            [
              [
                [
                  "1"
                ]
              ],
              [
                [
                  "DUCK"
                ],
                [
                  "HUEY"
                ]
              ],
              [
                [
                  "SO"
                ]
              ],
              [
                [
                  "3583 DUCK RD"
                ],
                null,
                [
                  "FOWL"
                ],
                [
                  "CA"
                ],
                [
                  "999990000"
                ]
              ],
              [
                [
                  "8885552222"
                ]
              ],
              null,
              [
                [
                  "Y"
                ]
              ],
              null,
              null,
              null,
              null,
              null,
              null,
              null,
              null,
              null,
              null,
              null,
              null,
              null,
              [
                [
                  " "
                ]
              ]
            ],
            [
              [
                [
                  "1"
                ]
              ],
              [
                [
                  "I"
                ]
              ],
              [
                [
                  "PREOP"
                ],
                [
                  "101"
                ],
                [
                  "1"
                ],
                [
                  "1"
                ],
                null,
                null,
                [
                  "S"
                ]
              ],
              [
                [
                  "3"
                ]
              ],
              null,
              null,
              [
                [
                  "37"
                ],
                [
                  "DISNEY"
                ],
                [
                  "WALT"
                ],
                null,
                null,
                null,
                null,
                null,
                [
                  "AccMgr"
                ],
                null,
                null,
                null,
                [
                  "CI"
                ]
              ],
              null,
              null,
              [
                [
                  "01"
                ]
              ],
              null,
              null,
              null,
              [
                [
                  "1"
                ]
              ],
              null,
              null,
              [
                [
                  "37"
                ],
                [
                  "DISNEY"
                ],
                [
                  "WALT"
                ],
                null,
                null,
                null,
                null,
                null,
                [
                  "AccMgr"
                ],
                null,
                null,
                null,
                [
                  "CI"
                ]
              ],
              [
                [
                  "2"
                ]
              ],
              [
                [
                  "40007716"
                ],
                null,
                null,
                [
                  "AccMgr"
                ],
                [
                  "VN"
                ]
              ],
              [
                [
                  "4"
                ]
              ],
              null,
              null,
              null,
              null,
              null,
              null,
              null,
              null,
              null,
              null,
              null,
              null,
              null,
              null,
              null,
              null,
              null,
              null,
              [
                [
                  "1"
                ]
              ],
              null,
              [
                [
                  "G"
                ]
              ],
              null,
              null,
              [
                [
                  "20050110045253"
                ]
              ],
              null,
              null,
              null,
              null,
              null,
              [
                [
                  " "
                ]
              ]
            ],
            [
              [
                [
                  "1"
                ]
              ],
              [
                [
                  "8291"
                ]
              ],
              [
                [
                  "DUCK"
                ],
                [
                  "DONALD"
                ],
                [
                  "D"
                ]
              ],
              null,
              [
                [
                  "111"
                ],
                [
                  "DUCK ST"
                ],
                null,
                [
                  "FOWL"
                ],
                [
                  "CA"
                ],
                [
                  "999990000"
                ]
              ],
              [
                [
                  "8885551212"
                ]
              ],
              null,
              [
                [
                  "19241010"
                ]
              ],
              [
                [
                  "M"
                ]
              ],
              null,
              [
                [
                  "1"
                ]
              ],
              [
                [
                  "123121234"
                ]
              ],
              null,
              null,
              null,
              [
                [
                  "#Cartoon Ducks Inc"
                ]
              ],
              [
                [
                  "111"
                ],
                [
                  "DUCK ST"
                ],
                null,
                [
                  "FOWL"
                ],
                [
                  "CA"
                ],
                [
                  "999990000"
                ]
              ],
              [
                [
                  "8885551212"
                ]
              ],
              null,
              [
                [
                  "PT"
                ]
              ],
              [
                [
                  " "
                ]
              ]
            ],
            [
              [
                [
                  "1"
                ]
              ],
              [
                [
                  "I9"
                ]
              ],
              [
                [
                  "71596"
                ],
                [
                  "OSTEOARTHROS NOS-L/LEG "
                ],
                [
                  "I9"
                ]
              ],
              [
                [
                  "OSTEOARTHROS NOS-L/LEG "
                ]
              ],
              null,
              [
                [
                  "A"
                ]
              ],
              [
                [
                  " "
                ]
              ]
            ],
            [
              [
                [
                  "1"
                ]
              ],
              [
                [
                  "MEDICARE"
                ]
              ],
              [
                [
                  "3"
                ]
              ],
              [
                [
                  "MEDICARE"
                ]
              ],
              null,
              null,
              null,
              null,
              null,
              null,
              [
                [
                  "Cartoon Ducks Inc"
                ]
              ],
              [
                [
                  "19891001"
                ]
              ],
              null,
              null,
              [
                [
                  "4"
                ]
              ],
              [
                [
                  "DUCK"
                ],
                [
                  "DONALD"
                ],
                [
                  "D"
                ]
              ],
              [
                [
                  "1"
                ]
              ],
              [
                [
                  "19241010"
                ]
              ],
              [
                [
                  "111"
                ],
                [
                  "DUCK ST"
                ],
                null,
                [
                  "FOWL"
                ],
                [
                  "CA"
                ],
                [
                  "999990000"
                ]
              ],
              null,
              null,
              null,
              null,
              null,
              null,
              null,
              null,
              null,
              null,
              null,
              null,
              null,
              null,
              null,
              null,
              [
                [
                  "123121234A"
                ]
              ],
              null,
              null,
              null,
              null,
              null,
              [
                [
                  "PT"
                ]
              ],
              [
                [
                  "M"
                ]
              ],
              [
                [
                  "111 DUCK ST"
                ],
                null,
                [
                  "FOWL"
                ],
                [
                  "CA"
                ],
                [
                  "999990000"
                ]
              ],
              null,
              null,
              null,
              null,
              [
                [
                  "8291 "
                ]
              ]
            ],
            [
              [
                [
                  "1"
                ]
              ],
              null,
              [
                [
                  "123121234"
                ]
              ],
              [
                [
                  "Cartoon Ducks Inc"
                ]
              ],
              null,
              null,
              [
                [
                  "123121234A"
                ]
              ],
              null,
              null,
              null,
              null,
              null,
              null,
              null,
              null,
              null,
              null,
              null,
              null,
              null,
              null,
              null,
              null,
              null,
              null,
              null,
              null,
              null,
              null,
              null,
              null,
              null,
              null,
              null,
              null,
              null,
              null,
              null,
              null,
              null,
              null,
              null,
              null,
              null,
              null,
              null,
              null,
              null,
              null,
              null,
              null,
              null,
              null,
              null,
              null,
              null,
              null,
              null,
              null,
              null,
              null,
              null,
              null,
              [
                [
                  "8885551212 "
                ]
              ]
            ],
            [
              [
                [
                  "2"
                ]
              ],
              [
                [
                  "NON-PRIMARY"
                ]
              ],
              [
                [
                  "9"
                ]
              ],
              [
                [
                  "MEDICAL MUTUAL CALIF."
                ]
              ],
              [
                [
                  "PO BOX 94776"
                ],
                null,
                [
                  "HOLLYWOOD"
                ],
                [
                  "CA"
                ],
                [
                  "441414776"
                ]
              ],
              null,
              [
                [
                  "8003621279"
                ]
              ],
              [
                [
                  "PUBSUMB"
                ]
              ],
              null,
              null,
              [
                [
                  "Cartoon Ducks Inc"
                ]
              ],
              null,
              null,
              null,
              [
                [
                  "7"
                ]
              ],
              [
                [
                  "DUCK"
                ],
                [
                  "DONALD"
                ],
                [
                  "D"
                ]
              ],
              [
                [
                  "1"
                ]
              ],
              [
                [
                  "19241010"
                ]
              ],
              [
                [
                  "111 DUCK ST"
                ],
                null,
                [
                  "FOWL"
                ],
                [
                  "CA"
                ],
                [
                  "999990000"
                ]
              ],
              null,
              null,
              null,
              null,
              null,
              null,
              null,
              null,
              null,
              null,
              null,
              null,
              null,
              null,
              null,
              null,
              [
                [
                  "056269770"
                ]
              ],
              null,
              null,
              null,
              null,
              null,
              [
                [
                  "PT"
                ]
              ],
              [
                [
                  "M"
                ]
              ],
              [
                [
                  "111"
                ],
                [
                  "DUCK ST"
                ],
                null,
                [
                  "FOWL"
                ],
                [
                  "CA"
                ],
                [
                  "999990000"
                ]
              ],
              null,
              null,
              null,
              null,
              [
                [
                  "8291 "
                ]
              ]
            ],
            [
              [
                [
                  "2"
                ]
              ],
              null,
              [
                [
                  "123121234"
                ]
              ],
              [
                [
                  "Cartoon Ducks Inc"
                ]
              ],
              null,
              null,
              null,
              null,
              null,
              null,
              null,
              null,
              null,
              null,
              null,
              null,
              null,
              null,
              null,
              null,
              null,
              null,
              null,
              null,
              null,
              null,
              null,
              null,
              null,
              null,
              null,
              null,
              null,
              null,
              null,
              null,
              null,
              null,
              null,
              null,
              null,
              null,
              null,
              null,
              null,
              null,
              null,
              null,
              null,
              null,
              null,
              null,
              null,
              null,
              null,
              null,
              null,
              null,
              null,
              null,
              null,
              null,
              null,
              [
                [
                  "8885551212 "
                ]
              ]
            ],
            [
              [
                [
                  "3"
                ]
              ],
              [
                [
                  "SELF PAY"
                ]
              ],
              [
                [
                  "1"
                ]
              ],
              [
                [
                  "SELF PAY"
                ]
              ],
              null,
              null,
              null,
              null,
              null,
              null,
              null,
              null,
              null,
              null,
              [
                [
                  "5"
                ]
              ],
              null,
              [
                [
                  "1"
                ]
              ]
            ]
          ],
          "meta": [
            "MSH",
            "EVN",
            "PID",
            "NK1",
            "PV1",
            "GT1",
            "DG1",
            "IN1",
            "IN2",
            "IN1",
            "IN2",
            "IN1"
          ]
        }
      },
    "conversionResult": {
        "resourceType": "Bundle",
        "type": "transaction",
        "entry": [
            {
                "fullUrl": "urn:uuid:64bac34e-e611-3549-848b-89416176aa0b",
                "resource": {
                    "resourceType": "Patient",
                    "id": "64bac34e-e611-3549-848b-89416176aa0b",
                    "identifier": [
                        {
                            "value": "10006579",
                            "type": {
                                "coding": [
                                    {
                                        "code": "MR",
                                        "system": "http://terminology.hl7.org/CodeSystem/v2-0203"
                                    }
                                ]
                            }
                        },
                        {
                            "type": {
                                "coding": [
                                    {
                                        "system": "http://terminology.hl7.org/CodeSystem/v2-0203",
                                        "code": "SS"
                                    }
                                ]
                            },
                            "system": "http://hl7.org/fhir/sid/us-ssn",
                            "value": "123121234"
                        }
                    ],
                    "name": [
                        {
                            "family": "DUCK",
                            "given": [
                                "DONALD",
                                "D"
                            ]
                        }
                    ],
                    "birthDate": "1924-10-10",
                    "gender": "male",
                    "address": [
                        {
                            "line": [
                                "111 DUCK ST"
                            ],
                            "city": "FOWL",
                            "state": "CA",
                            "postalCode": "999990000",
                            "type": "postal"
                        },
                        {
                            "district": "1"
                        }
                    ],
                    "telecom": [
                        {
                            "value": "8885551212",
                            "use": "home"
                        },
                        {
                            "value": "8885551212",
                            "use": "work"
                        }
                    ],
                    "communication": [
                        {
                            "preferred": true
                        }
                    ]
                },
                "request": {
                    "method": "PUT",
                    "url": "Patient/64bac34e-e611-3549-848b-89416176aa0b"
                }
            },
            {
                "fullUrl": "urn:uuid:14693cea-02b9-3743-9010-fa549107ea68",
                "resource": {
                    "resourceType": "Encounter",
                    "id": "14693cea-02b9-3743-9010-fa549107ea68",
                    "class": {
                        "code": "IMP",
                        "display": "inpatient encounter",
                        "system": "http://terminology.hl7.org/CodeSystem/v3-ActCode"
                    },
                    "status": "unknown",
                    "location": [
                        {
                            "status": "active"
                        }
                    ],
                    "hospitalization": {
                        "admitSource": {
                            "coding": [
                                {
                                    "code": "1"
                                }
                            ]
                        }
                    },
                    "participant": [
                        {
                            "type": [
                                {
                                    "coding": [
                                        {
                                            "code": "ATND",
                                            "system": "http://terminology.hl7.org/CodeSystem/v3-ParticipationType",
                                            "display": "attender"
                                        }
                                    ]
                                }
                            ]
                        },
                        {
                            "type": [
                                {
                                    "coding": [
                                        {
                                            "code": "ADM",
                                            "system": "http://terminology.hl7.org/CodeSystem/v3-ParticipationType"
                                        }
                                    ],
                                    "text": "admitter"
                                }
                            ]
                        }
                    ],
                    "serviceType": {
                        "coding": [
                            {
                                "code": "01"
                            }
                        ]
                    },
                    "identifier": [
                        {
                            "value": "40007716",
                            "type": {
                                "coding": [
                                    {
                                        "system": "http://terminology.hl7.org/CodeSystem/v2-0203"
                                    }
                                ],
                                "text": "visit number"
                            }
                        },
                        {
                            "value": " "
                        }
                    ],
                    "period": {
                        "start": "2005-01-10T04:52:53.000Z"
                    },
                    "subject": {
                        "reference": "Patient/64bac34e-e611-3549-848b-89416176aa0b"
                    },
                    "diagnosis": [
                        {
                            "condition": {
                                "reference": "Condition/f7cf74e6-f132-3946-8d4c-23f8305e3bfc"
                            }
                        }
                    ]
                },
                "request": {
                    "method": "PUT",
                    "url": "Encounter/14693cea-02b9-3743-9010-fa549107ea68"
                }
            },
            {
                "fullUrl": "urn:uuid:a447a61d-cde0-394f-ab88-6a6f01215075",
                "resource": {
                    "resourceType": "RelatedPerson",
                    "id": "a447a61d-cde0-394f-ab88-6a6f01215075",
                    "address": [
                        {
                            "line": [
                                "3583 DUCK RD"
                            ],
                            "city": "FOWL",
                            "state": "CA",
                            "postalCode": "999990000"
                        }
                    ],
                    "telecom": [
                        {
                            "value": "8885552222"
                        }
                    ],
                    "name": [
                        {
                            "family": "DUCK",
                            "given": [
                                "HUEY"
                            ]
                        }
                    ],
                    "patient": {
                        "reference": "Patient/64bac34e-e611-3549-848b-89416176aa0b"
                    }
                },
                "request": {
                    "method": "PUT",
                    "url": "RelatedPerson/a447a61d-cde0-394f-ab88-6a6f01215075"
                }
            },
            {
                "fullUrl": "urn:uuid:f7cf74e6-f132-3946-8d4c-23f8305e3bfc",
                "resource": {
                    "resourceType": "Condition",
                    "id": "f7cf74e6-f132-3946-8d4c-23f8305e3bfc",
                    "code": {
                        "coding": [
                            {
                                "code": "71596",
                                "display": "OSTEOARTHROS NOS-L/LEG ",
                                "system": "I9"
                            }
                        ],
                        "text": "OSTEOARTHROS NOS-L/LEG "
                    },
                    "subject": {
                        "reference": "Patient/64bac34e-e611-3549-848b-89416176aa0b"
                    }
                },
                "request": {
                    "method": "PUT",
                    "url": "Condition/f7cf74e6-f132-3946-8d4c-23f8305e3bfc"
                }
            }
        ]
    }
}