{
  "resourceType": "Bundle",
  "type": "batch",
  "entry": [
    {
      "fullUrl": "urn:uuid:26fe8573-bb5f-6b01-5a73-ef316add3d59",
      "resource": {
        "resourceType": "Composition",
        "id": "26fe8573-bb5f-6b01-5a73-ef316add3d59",
        "identifier": {
          "use": "official",
          "value": "6f1bd58b-c58f-40b7-b314-caf1294ed98b"
        },
        "status": "final",
        "type": {
          "coding": [
            {
              "code": "57133-1",
              "display": "Referral Note",
              "system": "http://loinc.org"
            }
          ]
        },
        "date": "2013-09-21T05:00:00-08:00",
        "title": "Referral Note",
        "confidentiality": "N",
        "attester": [
          {
            "mode": "legal",
            "time": "2013-09-15T22:36:15-08:00",
            "party": {
              "reference": "Practitioner/b0ac12ce-9e58-22b8-f79a-aba2409dac02"
            }
          }
        ],
        "section": [
          {
            "title": "ADVANCE DIRECTIVES",
            "text": {
              "status": "generated",
              "div": "<div xmlns=\"http://www.w3.org/1999/xhtml\">ADVANCE DIRECTIVES</div>"
            },
            "code": {
              "coding": [
                {
                  "code": "42348-3",
                  "system": "http://loinc.org"
                }
              ]
            },
            "mode": "snapshot"
          },
          {
            "title": "ALLERGIES AND ADVERSE REACTIONS",
            "text": {
              "status": "generated",
              "div": "<div xmlns=\"http://www.w3.org/1999/xhtml\">ALLERGIES AND ADVERSE REACTIONS</div>"
            },
            "code": {
              "coding": [
                {
                  "code": "48765-2",
                  "system": "http://loinc.org"
                }
              ]
            },
            "mode": "snapshot"
          },
          {
            "title": "ASSESSMENT",
            "text": {
              "status": "generated",
              "div": "<div xmlns=\"http://www.w3.org/1999/xhtml\">ASSESSMENT</div>"
            },
            "code": {
              "coding": [
                {
                  "code": "51848-0",
                  "display": "ASSESSMENT",
                  "system": "http://loinc.org"
                }
              ]
            },
            "mode": "snapshot"
          },
          {
            "title": "CHIEF COMPLAINT(S) AND REASON FOR VISIT",
            "text": {
              "status": "generated",
              "div": "<div xmlns=\"http://www.w3.org/1999/xhtml\">CHIEF COMPLAINT(S) AND REASON FOR VISIT</div>"
            },
            "code": {
              "coding": [
                {
                  "code": "46239-0",
                  "display": "CHIEF COMPLAINT AND REASON FOR VISIT",
                  "system": "http://loinc.org"
                }
              ]
            },
            "mode": "snapshot"
          },
          {
            "title": "FAMILY HISTORY",
            "text": {
              "status": "generated",
              "div": "<div xmlns=\"http://www.w3.org/1999/xhtml\">FAMILY HISTORY</div>"
            },
            "code": {
              "coding": [
                {
                  "code": "10157-6",
                  "system": "http://loinc.org"
                }
              ]
            },
            "mode": "snapshot"
          },
          {
            "title": "FUNCTIONAL STATUS",
            "text": {
              "status": "generated",
              "div": "<div xmlns=\"http://www.w3.org/1999/xhtml\">FUNCTIONAL STATUS</div>"
            },
            "code": {
              "coding": [
                {
                  "code": "47420-5",
                  "display": "Functional Status",
                  "system": "http://loinc.org"
                }
              ]
            },
            "mode": "snapshot"
          },
          {
            "title": "HISTORY OF PRESENT ILLNESS",
            "text": {
              "status": "generated",
              "div": "<div xmlns=\"http://www.w3.org/1999/xhtml\">HISTORY OF PRESENT ILLNESS</div>"
            },
            "code": {
              "coding": [
                {
                  "code": "10164-2",
                  "display": "HISTORY OF PRESENT ILLNESS",
                  "system": "http://loinc.org"
                }
              ]
            },
            "mode": "snapshot"
          },
          {
            "title": "MEDICATIONS",
            "text": {
              "status": "generated",
              "div": "<div xmlns=\"http://www.w3.org/1999/xhtml\">MEDICATIONS</div>"
            },
            "code": {
              "coding": [
                {
                  "code": "10160-0",
                  "display": "HISTORY OF MEDICATION USE",
                  "system": "http://loinc.org"
                }
              ]
            },
            "mode": "snapshot"
          },
          {
            "title": "MEDICAL EQUIPMENT",
            "text": {
              "status": "generated",
              "div": "<div xmlns=\"http://www.w3.org/1999/xhtml\">MEDICAL EQUIPMENT</div>"
            },
            "code": {
              "coding": [
                {
                  "code": "46264-8",
                  "system": "http://loinc.org"
                }
              ]
            },
            "mode": "snapshot"
          },
          {
            "title": "MENTAL STATUS",
            "text": {
              "status": "generated",
              "div": "<div xmlns=\"http://www.w3.org/1999/xhtml\">MENTAL STATUS</div>"
            },
            "code": {
              "coding": [
                {
                  "code": "10190-7",
                  "display": "MENTAL STATUS",
                  "system": "http://loinc.org"
                }
              ]
            },
            "mode": "snapshot"
          },
          {
            "title": "NUTRITION SECTION",
            "text": {
              "status": "generated",
              "div": "<div xmlns=\"http://www.w3.org/1999/xhtml\">NUTRITION SECTION</div>"
            },
            "code": {
              "coding": [
                {
                  "code": "61144-2",
                  "display": "Diet and Nutrition",
                  "system": "http://loinc.org"
                }
              ]
            },
            "mode": "snapshot"
          },
          {
            "title": "Physical Examination",
            "text": {
              "status": "generated",
              "div": "<div xmlns=\"http://www.w3.org/1999/xhtml\">Physical Examination</div>"
            },
            "code": {
              "coding": [
                {
                  "code": "29545-1",
                  "display": "Physical Findings",
                  "system": "http://loinc.org"
                }
              ]
            },
            "mode": "snapshot"
          },
          {
            "title": "TREATMENT PLAN",
            "text": {
              "status": "generated",
              "div": "<div xmlns=\"http://www.w3.org/1999/xhtml\">TREATMENT PLAN</div>"
            },
            "code": {
              "coding": [
                {
                  "code": "18776-5",
                  "display": "Treatment plan",
                  "system": "http://loinc.org"
                }
              ]
            },
            "mode": "snapshot"
          },
          {
            "title": "PROBLEMS",
            "text": {
              "status": "generated",
              "div": "<div xmlns=\"http://www.w3.org/1999/xhtml\">PROBLEMS</div>"
            },
            "code": {
              "coding": [
                {
                  "code": "11450-4",
                  "display": "PROBLEM LIST",
                  "system": "http://loinc.org"
                }
              ]
            },
            "mode": "snapshot"
          },
          {
            "title": "Procedures",
            "text": {
              "status": "generated",
              "div": "<div xmlns=\"http://www.w3.org/1999/xhtml\">Procedures</div>"
            },
            "code": {
              "coding": [
                {
                  "code": "47519-4",
                  "display": "History of Procedures",
                  "system": "http://loinc.org"
                }
              ]
            },
            "mode": "snapshot"
          },
          {
            "title": "REASON FOR REFERRAL",
            "text": {
              "status": "generated",
              "div": "<div xmlns=\"http://www.w3.org/1999/xhtml\">REASON FOR REFERRAL</div>"
            },
            "code": {
              "coding": [
                {
                  "code": "42349-1",
                  "display": "Reason for Referral ",
                  "system": "http://loinc.org"
                }
              ]
            },
            "mode": "snapshot"
          },
          {
            "title": "RESULTS",
            "text": {
              "status": "generated",
              "div": "<div xmlns=\"http://www.w3.org/1999/xhtml\">RESULTS</div>"
            },
            "code": {
              "coding": [
                {
                  "code": "30954-2",
                  "display": "RESULTS",
                  "system": "http://loinc.org"
                }
              ]
            },
            "mode": "snapshot"
          },
          {
            "title": "VITAL SIGNS",
            "text": {
              "status": "generated",
              "div": "<div xmlns=\"http://www.w3.org/1999/xhtml\">VITAL SIGNS</div>"
            },
            "code": {
              "coding": [
                {
                  "code": "8716-3",
                  "display": "VITAL SIGNS",
                  "system": "http://loinc.org"
                }
              ]
            },
            "mode": "snapshot"
          }
        ],
        "subject": {
          "reference": "Patient/aca97b95-3c1c-ce73-ac65-f520242997a9"
        },
        "custodian": {
          "reference": "Organization/d9b17f7a-c973-98ba-d798-05a68eafe519"
        },
        "author": [
          {
            "reference": "Practitioner/b0ac12ce-9e58-22b8-f79a-aba2409dac02"
          }
        ]
      },
      "request": {
        "method": "PUT",
        "url": "Composition/26fe8573-bb5f-6b01-5a73-ef316add3d59"
      }
    },
    {
      "fullUrl": "urn:uuid:b0ac12ce-9e58-22b8-f79a-aba2409dac02",
      "resource": {
        "resourceType": "Practitioner",
        "id": "b0ac12ce-9e58-22b8-f79a-aba2409dac02",
        "meta": {
          "profile": [
            "http://hl7.org/fhir/us/core/StructureDefinition/us-core-practitioner"
          ]
        },
        "identifier": [
          {
            "system": "http://hl7.org/fhir/sid/us-npi",
            "value": "5555555555"
          }
        ],
        "name": [
          {
            "family": "Primary",
            "given": [
              "Patricia",
              "Patty"
            ],
            "suffix": [
              "M.D."
            ]
          }
        ],
        "address": [
          {
            "line": [
              "1004 Healthcare Drive "
            ],
            "city": "Portland",
            "state": "OR",
            "country": "US",
            "postalCode": "99123"
          }
        ],
        "telecom": [
          {
            "system": "phone",
            "value": "+1(555)-1004",
            "use": "work"
          },
          {
            "system": "phone",
            "value": "+1(555)555-1004",
            "use": "work"
          }
        ],
        "qualification": [
          {
            "code": {
              "coding": [
                {
                  "code": "207QA0505X",
                  "display": "Adult Medicine",
                  "system": "http://nucc.org/provider-taxonomy"
                }
              ]
            }
          },
          {
            "code": {
              "coding": [
                {
                  "code": "207QA0505X",
                  "display": "Adult Medicine",
                  "system": "urn:oid:2.16.840.1.113883.5.53"
                }
              ]
            }
          }
        ]
      },
      "request": {
        "method": "PUT",
        "url": "Practitioner/b0ac12ce-9e58-22b8-f79a-aba2409dac02"
      }
    },
    {
      "fullUrl": "urn:uuid:d9b17f7a-c973-98ba-d798-05a68eafe519",
      "resource": {
        "resourceType": "Organization",
        "id": "d9b17f7a-c973-98ba-d798-05a68eafe519",
        "identifier": [
          {
            "system": "http://hl7.org/fhir/sid/us-npi",
            "value": "321CX"
          }
        ],
        "name": "Good Health HIE",
        "address": [
          {
            "use": "work",
            "line": [
              "1009 Healthcare Drive "
            ],
            "city": "Portland",
            "state": "OR",
            "country": "US",
            "postalCode": "99123"
          }
        ],
        "telecom": [
          {
            "system": "phone",
            "value": "+1(555)-1009",
            "use": "work"
          }
        ]
      },
      "request": {
        "method": "PUT",
        "url": "Organization/d9b17f7a-c973-98ba-d798-05a68eafe519"
      }
    },
    {
      "fullUrl": "urn:uuid:aca97b95-3c1c-ce73-ac65-f520242997a9",
      "resource": {
        "resourceType": "Patient",
        "id": "aca97b95-3c1c-ce73-ac65-f520242997a9",
        "meta": {
          "profile": [
            "http://hl7.org/fhir/us/core/StructureDefinition/us-core-patient"
          ]
        },
        "identifier": [
          {
            "system": "http://hl7.org/fhir/sid/us-ssn",
            "value": "444222222"
          }
        ],
        "name": [
          {
            "use": "usual",
            "family": "Betterhalf",
            "given": [
              "Eve"
            ]
          },
          {
            "family": "Everywoman",
            "given": [
              "Eve"
            ]
          }
        ],
        "birthDate": "1975-05-01",
        "gender": "female",
        "extension": [
          {
            "url": "http://hl7.org/fhir/us/core/StructureDefinition/us-core-race",
            "extension": [
              {
                "url": "ombCategory",
                "valueCoding": {
                  "code": "2106-3",
                  "display": "White"
                }
              },
              {
                "url": "ombCategory",
                "valueCoding": {
                  "code": "2076-8",
                  "display": "Hawaiian or Other Pacific Islander"
                }
              },
              {
                "url": "text",
                "valueString": "Mixed"
              }
            ]
          },
          {
            "url": "http://hl7.org/fhir/us/core/StructureDefinition/us-core-ethnicity",
            "extension": [
              {
                "url": "ombCategory",
                "valueCoding": {
                  "code": "2186-5",
                  "display": "Not Hispanic or Latino"
                }
              },
              {
                "url": "text",
                "valueString": "Not Hispanic or Latino"
              }
            ]
          }
        ],
        "address": [
          {
            "use": "home",
            "line": [
              "2222 Home Street"
            ],
            "city": "Beaverton",
            "state": "OR",
            "country": "US",
            "postalCode": "97867"
          }
        ],
        "telecom": [
          {
            "system": "phone",
            "value": "+1(555)555-2003",
            "use": "home"
          }
        ],
        "communication": [
          {
            "language": {
              "coding": [
                {
                  "system": "urn:ietf:bcp:47",
                  "code": "en",
                  "display": "English"
                }
              ]
            },
            "preferred": true
          }
        ]
      },
      "request": {
        "method": "PUT",
        "url": "Patient/aca97b95-3c1c-ce73-ac65-f520242997a9"
      }
    },
    {
      "fullUrl": "urn:uuid:1e516bfc-532c-65a4-45e2-e8536f0eb630",
      "resource": {
        "resourceType": "RelatedPerson",
        "id": "1e516bfc-532c-65a4-45e2-e8536f0eb630",
        "relationship": [
          {
            "coding": [
              {
                "code": "POWATT",
                "display": "Power of Attorney",
                "system": "urn:oid:2.16.840.1.113883.1.11.19830"
              }
            ]
          }
        ],
        "name": [
          {
            "family": "Betterhalf",
            "given": [
              "Boris",
              "Bo"
            ]
          }
        ],
        "telecom": [
          {
            "system": "phone",
            "value": "+1(555)555-2008",
            "use": "mobile"
          }
        ],
        "address": [
          {
            "use": "home",
            "line": [
              "2222 Home Street"
            ],
            "city": "Beaverton",
            "state": "OR",
            "country": "US",
            "postalCode": "97867"
          }
        ],
        "patient": {
          "reference": "Patient/aca97b95-3c1c-ce73-ac65-f520242997a9"
        }
      },
      "request": {
        "method": "PUT",
        "url": "RelatedPerson/1e516bfc-532c-65a4-45e2-e8536f0eb630"
      }
    },
    {
      "fullUrl": "urn:uuid:23a7bff2-a4f7-c98c-00b2-ee273e4533ff",
      "resource": {
        "resourceType": "Condition",
        "id": "23a7bff2-a4f7-c98c-00b2-ee273e4533ff",
        "identifier": [
          {
            "system": "urn:ietf:rfc:3986",
            "value": "urn:uuid:ab1791b0-5c71-11db-b0de-0800200c9a66"
          }
        ],
        "code": {
          "coding": [
            {
              "code": "190389009",
              "display": "Type II diabetes mellitus with ulcer (disorder)",
              "system": "http://snomed.info/sct"
            }
          ]
        },
        "onsetDateTime": "2000-07-03",
        "subject": {
          "reference": "Patient/aca97b95-3c1c-ce73-ac65-f520242997a9"
        }
      },
      "request": {
        "method": "PUT",
        "url": "Condition/23a7bff2-a4f7-c98c-00b2-ee273e4533ff"
      }
    },
    {
      "fullUrl": "urn:uuid:06617f11-a084-5a8e-b699-de1d20346cae",
      "resource": {
        "resourceType": "Condition",
        "id": "06617f11-a084-5a8e-b699-de1d20346cae",
        "identifier": [
          {
            "system": "urn:ietf:rfc:3986",
            "value": "urn:uuid:11d088a8-b957-401c-8ee0-3bd20a772fc0"
          }
        ],
        "code": {
          "coding": [
            {
              "code": "195977004",
              "display": "mixed asthma",
              "system": "http://snomed.info/sct"
            }
          ]
        },
        "onsetDateTime": "2007-04-14",
        "subject": {
          "reference": "Patient/aca97b95-3c1c-ce73-ac65-f520242997a9"
        }
      },
      "request": {
        "method": "PUT",
        "url": "Condition/06617f11-a084-5a8e-b699-de1d20346cae"
      }
    },
    {
      "fullUrl": "urn:uuid:6762276c-59c1-962f-b18e-284350a77d7a",
      "resource": {
        "resourceType": "Condition",
        "id": "6762276c-59c1-962f-b18e-284350a77d7a",
        "identifier": [
          {
            "system": "urn:ietf:rfc:3986",
            "value": "urn:uuid:4991db40-4c4f-41e8-9146-50c12d716424"
          }
        ],
        "code": {
          "coding": [
            {
              "code": "304527002",
              "display": "Acute Asthma",
              "system": "http://snomed.info/sct"
            }
          ]
        },
        "onsetDateTime": "2007-04-17",
        "subject": {
          "reference": "Patient/aca97b95-3c1c-ce73-ac65-f520242997a9"
        }
      },
      "request": {
        "method": "PUT",
        "url": "Condition/6762276c-59c1-962f-b18e-284350a77d7a"
      }
    },
    {
      "fullUrl": "urn:uuid:84f42693-ae1d-a49e-c95a-64259c5eb705",
      "resource": {
        "resourceType": "Condition",
        "id": "84f42693-ae1d-a49e-c95a-64259c5eb705",
        "identifier": [
          {
            "system": "urn:ietf:rfc:3986",
            "value": "urn:uuid:10506b4d-c30a-4220-8bec-97bff9568fd1"
          }
        ],
        "code": {
          "coding": [
            {
              "code": "233604007",
              "display": "Pneumonia",
              "system": "http://snomed.info/sct"
            }
          ]
        },
        "onsetDateTime": "1998-03-10",
        "subject": {
          "reference": "Patient/aca97b95-3c1c-ce73-ac65-f520242997a9"
        }
      },
      "request": {
        "method": "PUT",
        "url": "Condition/84f42693-ae1d-a49e-c95a-64259c5eb705"
      }
    },
    {
      "fullUrl": "urn:uuid:ce48f4cd-50ca-9c45-359e-8d9998cf4d84",
      "resource": {
        "resourceType": "AllergyIntolerance",
        "id": "ce48f4cd-50ca-9c45-359e-8d9998cf4d84",
        "identifier": [
          {
            "system": "urn:ietf:rfc:3986",
            "value": "urn:uuid:4adc1020-7b14-11db-9fe1-0800200c9a66"
          }
        ],
        "clinicalStatus": {
          "coding": [
            {
              "system": "http://terminology.hl7.org/CodeSystem/allergyintolerance-clinical",
              "code": "active"
            }
          ]
        },
        "reaction": [
          {
            "substance": {
              "coding": [
                {
                  "code": "7980",
                  "display": "Penicillin",
                  "system": "http://www.nlm.nih.gov/research/umls/rxnorm"
                }
              ]
            },
            "manifestation": [
              {
                "coding": [
                  {
                    "code": "422587007",
                    "display": "Nausea",
                    "system": "http://snomed.info/sct"
                  }
                ]
              }
            ],
            "onset": "2008-02-26T08:05:00-08:00"
          }
        ],
        "onsetDateTime": "1998-05-01",
        "patient": {
          "reference": "Patient/aca97b95-3c1c-ce73-ac65-f520242997a9"
        }
      },
      "request": {
        "method": "PUT",
        "url": "AllergyIntolerance/ce48f4cd-50ca-9c45-359e-8d9998cf4d84"
      }
    },
    {
      "fullUrl": "urn:uuid:f32ccb2b-f725-a1af-71b0-f1510491f0ed",
      "resource": {
        "resourceType": "AllergyIntolerance",
        "id": "f32ccb2b-f725-a1af-71b0-f1510491f0ed",
        "identifier": [
          {
            "system": "urn:ietf:rfc:3986",
            "value": "urn:uuid:901db0f8-9355-4794-81cd-fd951ef07917"
          }
        ],
        "clinicalStatus": {
          "coding": [
            {
              "system": "http://terminology.hl7.org/CodeSystem/allergyintolerance-clinical",
              "code": "active"
            }
          ]
        },
        "reaction": [
          {
            "substance": {
              "coding": [
                {
                  "code": "2670",
                  "display": "Codeine",
                  "system": "http://www.nlm.nih.gov/research/umls/rxnorm"
                }
              ]
            },
            "manifestation": [
              {
                "coding": [
                  {
                    "code": "56018004",
                    "display": "Wheezing",
                    "system": "http://snomed.info/sct"
                  }
                ]
              }
            ]
          },
          {
            "substance": {
              "coding": [
                {
                  "code": "2670",
                  "display": "Codeine",
                  "system": "http://www.nlm.nih.gov/research/umls/rxnorm"
                }
              ]
            },
            "severity": "mild"
          }
        ],
        "patient": {
          "reference": "Patient/aca97b95-3c1c-ce73-ac65-f520242997a9"
        }
      },
      "request": {
        "method": "PUT",
        "url": "AllergyIntolerance/f32ccb2b-f725-a1af-71b0-f1510491f0ed"
      }
    },
    {
      "fullUrl": "urn:uuid:e07a1fe6-012a-4992-257d-e88e15504ff1",
      "resource": {
        "resourceType": "MedicationStatement",
        "id": "e07a1fe6-012a-4992-257d-e88e15504ff1",
        "identifier": [
          {
            "system": "urn:ietf:rfc:3986",
            "value": "urn:uuid:cdbd33f0-6cde-11db-9fe1-0800200c9a66"
          }
        ],
        "dosage": [
          {
            "doseAndRate": [
              {
                "doseQuantity": {
                  "value": 2
                }
              }
            ]
          }
        ],
        "subject": {
          "reference": "Patient/aca97b95-3c1c-ce73-ac65-f520242997a9"
        },
        "medicationReference": {
          "reference": "Medication/b5636b87-c508-37d0-1f21-e11906922433"
        }
      },
      "request": {
        "method": "PUT",
        "url": "MedicationStatement/e07a1fe6-012a-4992-257d-e88e15504ff1"
      }
    },
    {
      "fullUrl": "urn:uuid:b5636b87-c508-37d0-1f21-e11906922433",
      "resource": {
        "resourceType": "Medication",
        "id": "b5636b87-c508-37d0-1f21-e11906922433",
        "code": {
          "coding": [
            {
              "code": "573621",
              "display": "Proventil 0.09 MG/ACTUAT inhalant solution",
              "system": "http://www.nlm.nih.gov/research/umls/rxnorm"
            }
          ]
        }
      },
      "request": {
        "method": "PUT",
        "url": "Medication/b5636b87-c508-37d0-1f21-e11906922433"
      }
    },
    {
      "fullUrl": "urn:uuid:f7e80eb3-0d83-b88e-b16c-c98ee705bb6f",
      "resource": {
        "resourceType": "MedicationStatement",
        "id": "f7e80eb3-0d83-b88e-b16c-c98ee705bb6f",
        "identifier": [
          {
            "system": "urn:ietf:rfc:3986",
            "value": "urn:uuid:6c844c75-aa34-411c-b7bd-5e4a9f206e29"
          }
        ],
        "dosage": [
          {
            "doseAndRate": [
              {
                "doseQuantity": {
                  "value": 1
                }
              }
            ]
          }
        ],
        "subject": {
          "reference": "Patient/aca97b95-3c1c-ce73-ac65-f520242997a9"
        },
        "medicationReference": {
          "reference": "Medication/b9a3c41d-8623-d966-e245-8a5aa61ad806"
        }
      },
      "request": {
        "method": "PUT",
        "url": "MedicationStatement/f7e80eb3-0d83-b88e-b16c-c98ee705bb6f"
      }
    },
    {
      "fullUrl": "urn:uuid:b9a3c41d-8623-d966-e245-8a5aa61ad806",
      "resource": {
        "resourceType": "Medication",
        "id": "b9a3c41d-8623-d966-e245-8a5aa61ad806",
        "code": {
          "coding": [
            {
              "code": "197380",
              "display": "Atenolol 25 MG Oral Tablet",
              "system": "http://www.nlm.nih.gov/research/umls/rxnorm"
            }
          ]
        }
      },
      "request": {
        "method": "PUT",
        "url": "Medication/b9a3c41d-8623-d966-e245-8a5aa61ad806"
      }
    },
    {
      "fullUrl": "urn:uuid:8767a886-7b61-7ada-e11d-100bf25fecaf",
      "resource": {
        "resourceType": "ServiceRequest",
        "id": "8767a886-7b61-7ada-e11d-100bf25fecaf",
        "identifier": [
          {
            "system": "urn:ietf:rfc:3986",
            "value": "urn:uuid:70bdd7db-e02d-4eff-9829-35e3b7d9e154"
          }
        ],
        "status": "active",
        "code": {
          "coding": [
            {
              "code": "44383000",
              "display": "Patient referral for consultation",
              "system": "http://snomed.info/sct"
            }
          ]
        },
        "priority": "asap",
        "occurrenceDateTime": "2013-03-11",
        "requester": {
          "reference": "Practitioner/93bfea24-9f88-b634-edf5-9620349d8c55"
        }
      },
      "request": {
        "method": "PUT",
        "url": "ServiceRequest/8767a886-7b61-7ada-e11d-100bf25fecaf"
      }
    },
    {
      "fullUrl": "urn:uuid:93bfea24-9f88-b634-edf5-9620349d8c55",
      "resource": {
        "resourceType": "Practitioner",
        "id": "93bfea24-9f88-b634-edf5-9620349d8c55",
        "meta": {
          "profile": [
            "http://hl7.org/fhir/us/core/StructureDefinition/us-core-practitioner"
          ]
        },
        "identifier": [
          {
            "system": "urn:ietf:rfc:3986",
            "value": "urn:uuid:d839038b-7171-4165-a760-467925b43857"
          }
        ],
        "name": [
          {
            "family": "Florence",
            "given": [
              "Nurse"
            ],
            "suffix": [
              "RN"
            ]
          }
        ],
        "qualification": [
          {
            "code": {
              "coding": [
                {
                  "code": "163W00000X",
                  "display": "Registered nurse",
                  "system": "urn:oid:2.16.840.1.113883.5.53"
                }
              ]
            }
          }
        ]
      },
      "request": {
        "method": "PUT",
        "url": "Practitioner/93bfea24-9f88-b634-edf5-9620349d8c55"
      }
    },
    {
      "fullUrl": "urn:uuid:94f3901f-edf3-e113-3875-5b2573428e2b",
      "resource": {
        "resourceType": "FamilyMemberHistory",
        "id": "94f3901f-edf3-e113-3875-5b2573428e2b",
        "identifier": [
          {
            "system": "urn:ietf:rfc:3986",
            "value": "urn:uuid:d42ebf70-5c89-11db-b0de-0805500c9a66"
          }
        ],
        "status": "completed",
        "relationship": {
          "coding": [
            {
              "code": "9947008",
              "display": "Biological father",
              "system": "http://snomed.info/sct"
            }
          ]
        },
        "sex": {
          "coding": [
            {
              "code": "M",
              "display": "Male",
              "system": "urn:oid:2.16.840.1.113883.1.11.1"
            }
          ]
        },
        "bornString": "1910",
        "condition": [
          {
            "code": {
              "coding": [
                {
                  "code": "22298006",
                  "display": "Myocardial infarction",
                  "system": "http://snomed.info/sct"
                }
              ]
            },
            "contributedToDeath": true,
            "onsetAge": {
              "value": 57,
              "system": "http://unitsofmeasure.org",
              "code": "a"
            }
          },
          {
            "code": {
              "coding": [
                {
                  "code": "44054006",
                  "display": "Diabetes mellitus type 2",
                  "system": "http://snomed.info/sct"
                }
              ]
            },
            "onsetAge": {
              "value": 40,
              "system": "http://unitsofmeasure.org",
              "code": "a"
            }
          }
        ],
        "patient": {
          "reference": "Patient/aca97b95-3c1c-ce73-ac65-f520242997a9"
        }
      },
      "request": {
        "method": "PUT",
        "url": "FamilyMemberHistory/94f3901f-edf3-e113-3875-5b2573428e2b"
      }
    },
    {
      "fullUrl": "urn:uuid:537376fe-6d28-c958-3918-5f50a05d438a",
      "resource": {
        "resourceType": "Procedure",
        "id": "537376fe-6d28-c958-3918-5f50a05d438a",
        "meta": {
          "profile": [
            "http://hl7.org/fhir/us/core/StructureDefinition/us-core-procedure"
          ]
        },
        "identifier": [
          {
            "system": "urn:ietf:rfc:3986",
            "value": "urn:uuid:d68b7e32-7810-4f5b-9cc2-acd54b0fd85d"
          }
        ],
        "status": "completed",
        "code": {
          "coding": [
            {
              "code": "274025005",
              "display": "Colonic polypectomy",
              "system": "http://snomed.info/sct"
            }
          ]
        },
        "performedDateTime": "2011-02-15",
        "subject": {
          "reference": "Patient/aca97b95-3c1c-ce73-ac65-f520242997a9"
        },
        "performer": [
          {
            "actor": {
              "reference": "Organization/8d299965-ab8d-2af9-e74f-23faa3325cc6"
            }
          }
        ]
      },
      "request": {
        "method": "PUT",
        "url": "Procedure/537376fe-6d28-c958-3918-5f50a05d438a"
      }
    },
    {
      "fullUrl": "urn:uuid:8d299965-ab8d-2af9-e74f-23faa3325cc6",
      "resource": {
        "resourceType": "Organization",
        "id": "8d299965-ab8d-2af9-e74f-23faa3325cc6",
        "identifier": [
          {
            "system": "urn:ietf:rfc:3986",
            "value": "urn:uuid:c2ee9ee9-ae31-4628-a919-fec1cbb58686"
          }
        ],
        "name": "Good Health Clinic",
        "address": [
          {
            "line": [
              "17 Daws Rd."
            ],
            "city": "Blue Bell",
            "state": "MA",
            "country": "US",
            "postalCode": "02368"
          }
        ]
      },
      "request": {
        "method": "PUT",
        "url": "Organization/8d299965-ab8d-2af9-e74f-23faa3325cc6"
      }
    },
    {
      "fullUrl": "urn:uuid:cdf9f80b-b6b6-f769-8b25-c8539b77db05",
      "resource": {
        "resourceType": "Observation",
        "id": "cdf9f80b-b6b6-f769-8b25-c8539b77db05",
        "meta": {
          "profile": [
            "http://hl7.org/fhir/us/core/StructureDefinition/us-core-observationresults"
          ]
        },
        "identifier": [
          {
            "system": "urn:oid:2.16.840.1.113883.19",
            "value": "123456789"
          }
        ],
        "category": [
          {
            "coding": [
              {
                "system": "http://terminology.hl7.org/CodeSystem/observation-category",
                "code": "procedure"
              }
            ]
          }
        ],
        "code": {
          "coding": [
            {
              "code": "274025005",
              "display": "Colonic polypectomy",
              "system": "http://snomed.info/sct"
            }
          ]
        },
        "effectiveDateTime": "2011-02-03",
        "bodySite": {
          "coding": [
            {
              "code": "416949008",
              "display": "Abdomen and pelvis",
              "system": "http://snomed.info/sct"
            }
          ]
        },
        "subject": {
          "reference": "Patient/aca97b95-3c1c-ce73-ac65-f520242997a9"
        }
      },
      "request": {
        "method": "PUT",
        "url": "Observation/cdf9f80b-b6b6-f769-8b25-c8539b77db05"
      }
    },
    {
      "fullUrl": "urn:uuid:10dffd42-466a-6750-f657-7d73170610fe",
      "resource": {
        "resourceType": "DiagnosticReport",
        "id": "10dffd42-466a-6750-f657-7d73170610fe",
        "identifier": [
          {
            "system": "urn:ietf:rfc:3986",
            "value": "urn:uuid:7d5a02b0-67a4-11db-bd13-0800200c9a66"
          }
        ],
        "status": "final",
        "code": {
          "coding": [
            {
              "code": "57021-8",
              "display": "CBC W Auto Differential panel in Blood",
              "system": "http://loinc.org"
            }
          ]
        },
        "effectivePeriod": {
          "start": "2013-03-11T08:30:00-08:00",
          "end": "2013-03-11T08:30:00-08:00"
        },
        "subject": {
          "reference": "Patient/aca97b95-3c1c-ce73-ac65-f520242997a9"
        },
        "result": [
          {
            "reference": "Observation/6b11cbb1-901d-7142-9a25-1cf3211a9e99"
          },
          {
            "reference": "Observation/9f15b67b-cb54-ac67-6904-27c2d71e12b6"
          },
          {
            "reference": "Observation/b7e7cf55-ab0a-ed33-d56b-074ebfb69449"
          },
          {
            "reference": "Observation/ce3baafc-bfe0-de4e-d1ba-5dc8d0d842f4"
          },
          {
            "reference": "Observation/c9a71875-21fb-8b9d-8934-b9014586b7e4"
          }
        ]
      },
      "request": {
        "method": "PUT",
        "url": "DiagnosticReport/10dffd42-466a-6750-f657-7d73170610fe"
      }
    },
    {
      "fullUrl": "urn:uuid:6b11cbb1-901d-7142-9a25-1cf3211a9e99",
      "resource": {
        "resourceType": "Observation",
        "id": "6b11cbb1-901d-7142-9a25-1cf3211a9e99",
        "meta": {
          "profile": [
            "http://hl7.org/fhir/us/core/StructureDefinition/us-core-observationresults"
          ]
        },
        "identifier": [
          {
            "system": "urn:ietf:rfc:3986",
            "value": "urn:uuid:107c2dc0-67a5-11db-bd13-0800200c9a66"
          }
        ],
        "category": [
          {
            "coding": [
              {
                "system": "http://terminology.hl7.org/CodeSystem/observation-category",
                "code": "laboratory"
              }
            ]
          }
        ],
        "status": "final",
        "code": {
          "coding": [
            {
              "code": "718-7",
              "display": "Hemoglobin",
              "system": "http://loinc.org"
            }
          ]
        },
        "effectiveDateTime": "2013-03-11T08:30:00-08:00",
        "valueQuantity": {
          "value": 13.2,
          "unit": "g/dL"
        },
        "referenceRange": [
          {
            "low": {
              "value": 12.0,
              "unit": "g/dL"
            },
            "high": {
              "value": 15.5,
              "unit": "g/dL"
            }
          }
        ],
        "interpretation": [
          {
            "coding": [
              {
                "code": "N",
                "system": "http://terminology.hl7.org/CodeSystem/v3-ObservationInterpretation"
              }
            ]
          }
        ],
        "subject": {
          "reference": "Patient/aca97b95-3c1c-ce73-ac65-f520242997a9"
        },
        "performer": [
          {
            "reference": "Practitioner/f02faa7a-9472-70c5-2aa4-ecad5340bc01"
          }
        ]
      },
      "request": {
        "method": "PUT",
        "url": "Observation/6b11cbb1-901d-7142-9a25-1cf3211a9e99"
      }
    },
    {
      "fullUrl": "urn:uuid:f02faa7a-9472-70c5-2aa4-ecad5340bc01",
      "resource": {
        "resourceType": "Practitioner",
        "id": "f02faa7a-9472-70c5-2aa4-ecad5340bc01",
        "meta": {
          "profile": [
            "http://hl7.org/fhir/us/core/StructureDefinition/us-core-practitioner"
          ]
        },
        "identifier": [
          {
            "system": "http://hl7.org/fhir/sid/us-npi",
            "value": "333444444"
          }
        ],
        "qualification": [
          {
            "code": {
              "coding": [
                {
                  "code": "246Q00000X",
                  "display": "Technician, Pathology",
                  "system": "urn:oid:2.16.840.1.113883.5.53"
                }
              ]
            }
          }
        ]
      },
      "request": {
        "method": "PUT",
        "url": "Practitioner/f02faa7a-9472-70c5-2aa4-ecad5340bc01"
      }
    },
    {
      "fullUrl": "urn:uuid:9f15b67b-cb54-ac67-6904-27c2d71e12b6",
      "resource": {
        "resourceType": "Observation",
        "id": "9f15b67b-cb54-ac67-6904-27c2d71e12b6",
        "meta": {
          "profile": [
            "http://hl7.org/fhir/us/core/StructureDefinition/us-core-observationresults"
          ]
        },
        "identifier": [
          {
            "system": "urn:ietf:rfc:3986",
            "value": "urn:uuid:a69b3d60-2ffd-4440-958b-72b3335ff35f"
          }
        ],
        "category": [
          {
            "coding": [
              {
                "system": "http://terminology.hl7.org/CodeSystem/observation-category",
                "code": "laboratory"
              }
            ]
          }
        ],
        "status": "final",
        "code": {
          "coding": [
            {
              "code": "6690-2",
              "display": "Leukocytes",
              "system": "http://loinc.org"
            }
          ]
        },
        "effectiveDateTime": "2013-03-11T08:30:00-08:00",
        "valueQuantity": {
          "value": 6.7,
          "unit": "10*9/L"
        },
        "referenceRange": [
          {
            "low": {
              "value": 4.3,
              "unit": "10*9/L"
            },
            "high": {
              "value": 10.8,
              "unit": "10*9/L"
            }
          }
        ],
        "interpretation": [
          {
            "coding": [
              {
                "code": "N",
                "system": "http://terminology.hl7.org/CodeSystem/v3-ObservationInterpretation"
              }
            ]
          }
        ],
        "subject": {
          "reference": "Patient/aca97b95-3c1c-ce73-ac65-f520242997a9"
        },
        "performer": [
          {
            "reference": "Practitioner/f02faa7a-9472-70c5-2aa4-ecad5340bc01"
          }
        ]
      },
      "request": {
        "method": "PUT",
        "url": "Observation/9f15b67b-cb54-ac67-6904-27c2d71e12b6"
      }
    },
    {
      "fullUrl": "urn:uuid:b7e7cf55-ab0a-ed33-d56b-074ebfb69449",
      "resource": {
        "resourceType": "Observation",
        "id": "b7e7cf55-ab0a-ed33-d56b-074ebfb69449",
        "meta": {
          "profile": [
            "http://hl7.org/fhir/us/core/StructureDefinition/us-core-observationresults"
          ]
        },
        "identifier": [
          {
            "system": "urn:ietf:rfc:3986",
            "value": "urn:uuid:ef5c1c58-4665-4556-a8e8-6e720d82f572"
          }
        ],
        "category": [
          {
            "coding": [
              {
                "system": "http://terminology.hl7.org/CodeSystem/observation-category",
                "code": "laboratory"
              }
            ]
          }
        ],
        "status": "final",
        "code": {
          "coding": [
            {
              "code": "777-3",
              "display": "Platelets",
              "system": "http://loinc.org"
            }
          ]
        },
        "effectiveDateTime": "2013-03-11T08:30:00-08:00",
        "valueQuantity": {
          "value": 123,
          "unit": "10*9/L"
        },
        "referenceRange": [
          {
            "low": {
              "value": 150,
              "unit": "10*9/L"
            },
            "high": {
              "value": 350,
              "unit": "10*9/L"
            }
          }
        ],
        "interpretation": [
          {
            "coding": [
              {
                "code": "LX",
                "system": "http://terminology.hl7.org/CodeSystem/v3-ObservationInterpretation"
              }
            ]
          }
        ],
        "subject": {
          "reference": "Patient/aca97b95-3c1c-ce73-ac65-f520242997a9"
        },
        "performer": [
          {
            "reference": "Practitioner/f02faa7a-9472-70c5-2aa4-ecad5340bc01"
          }
        ]
      },
      "request": {
        "method": "PUT",
        "url": "Observation/b7e7cf55-ab0a-ed33-d56b-074ebfb69449"
      }
    },
    {
      "fullUrl": "urn:uuid:ce3baafc-bfe0-de4e-d1ba-5dc8d0d842f4",
      "resource": {
        "resourceType": "Observation",
        "id": "ce3baafc-bfe0-de4e-d1ba-5dc8d0d842f4",
        "meta": {
          "profile": [
            "http://hl7.org/fhir/us/core/StructureDefinition/us-core-observationresults"
          ]
        },
        "identifier": [
          {
            "system": "urn:ietf:rfc:3986",
            "value": "urn:uuid:7c0704bb-9c40-41b5-9c7d-26b2d59e234f"
          }
        ],
        "category": [
          {
            "coding": [
              {
                "system": "http://terminology.hl7.org/CodeSystem/observation-category",
                "code": "laboratory"
              }
            ]
          }
        ],
        "status": "final",
        "code": {
          "coding": [
            {
              "code": "4544-3",
              "display": "Hematocrit",
              "system": "http://loinc.org"
            }
          ]
        },
        "effectiveDateTime": "2013-03-11T08:30:00-08:00",
        "valueQuantity": {
          "value": 35.3,
          "unit": "%"
        },
        "referenceRange": [
          {
            "low": {
              "value": 34.9,
              "unit": "%"
            },
            "high": {
              "value": 44.5,
              "unit": "%"
            }
          }
        ],
        "interpretation": [
          {
            "coding": [
              {
                "code": "LX",
                "system": "http://terminology.hl7.org/CodeSystem/v3-ObservationInterpretation"
              }
            ]
          }
        ],
        "subject": {
          "reference": "Patient/aca97b95-3c1c-ce73-ac65-f520242997a9"
        },
        "performer": [
          {
            "reference": "Practitioner/f02faa7a-9472-70c5-2aa4-ecad5340bc01"
          }
        ]
      },
      "request": {
        "method": "PUT",
        "url": "Observation/ce3baafc-bfe0-de4e-d1ba-5dc8d0d842f4"
      }
    },
    {
      "fullUrl": "urn:uuid:c9a71875-21fb-8b9d-8934-b9014586b7e4",
      "resource": {
        "resourceType": "Observation",
        "id": "c9a71875-21fb-8b9d-8934-b9014586b7e4",
        "meta": {
          "profile": [
            "http://hl7.org/fhir/us/core/StructureDefinition/us-core-observationresults"
          ]
        },
        "identifier": [
          {
            "system": "urn:ietf:rfc:3986",
            "value": "urn:uuid:bccd6fc9-0c7f-455e-8616-923ed0d04d09"
          }
        ],
        "category": [
          {
            "coding": [
              {
                "system": "http://terminology.hl7.org/CodeSystem/observation-category",
                "code": "laboratory"
              }
            ]
          }
        ],
        "status": "final",
        "code": {
          "coding": [
            {
              "code": "789-8",
              "display": "Erythrocytes",
              "system": "http://loinc.org"
            }
          ]
        },
        "effectiveDateTime": "2013-03-11T08:30:00-08:00",
        "valueQuantity": {
          "value": 4.21,
          "unit": "10*12/L"
        },
        "referenceRange": [
          {
            "low": {
              "value": 3.9,
              "unit": "10*12/L"
            },
            "high": {
              "value": 5.03,
              "unit": "10*12/L"
            }
          }
        ],
        "interpretation": [
          {
            "coding": [
              {
                "code": "N",
                "system": "http://terminology.hl7.org/CodeSystem/v3-ObservationInterpretation"
              }
            ]
          }
        ],
        "subject": {
          "reference": "Patient/aca97b95-3c1c-ce73-ac65-f520242997a9"
        },
        "performer": [
          {
            "reference": "Practitioner/f02faa7a-9472-70c5-2aa4-ecad5340bc01"
          }
        ]
      },
      "request": {
        "method": "PUT",
        "url": "Observation/c9a71875-21fb-8b9d-8934-b9014586b7e4"
      }
    },
    {
      "fullUrl": "urn:uuid:45cf15a4-e71e-e32d-9497-23b9afa94009",
      "resource": {
        "resourceType": "DiagnosticReport",
        "id": "45cf15a4-e71e-e32d-9497-23b9afa94009",
        "identifier": [
          {
            "system": "urn:ietf:rfc:3986",
            "value": "urn:uuid:122ed3ae-6d9e-43d0-bfa2-434ea34b1426"
          }
        ],
        "code": {
          "coding": [
            {
              "code": "166312007",
              "display": "Blood chemistry test",
              "system": "http://snomed.info/sct"
            }
          ]
        },
        "effectivePeriod": {
          "start": "2008-03-20T09:30:00-08:00",
          "end": "2008-03-20T09:30:00-08:00"
        },
        "subject": {
          "reference": "Patient/aca97b95-3c1c-ce73-ac65-f520242997a9"
        },
        "result": [
          {
            "reference": "Observation/295cc0b4-3e1d-8a4e-5e8e-ee614b0e0bc0"
          }
        ]
      },
      "request": {
        "method": "PUT",
        "url": "DiagnosticReport/45cf15a4-e71e-e32d-9497-23b9afa94009"
      }
    },
    {
      "fullUrl": "urn:uuid:295cc0b4-3e1d-8a4e-5e8e-ee614b0e0bc0",
      "resource": {
        "resourceType": "Observation",
        "id": "295cc0b4-3e1d-8a4e-5e8e-ee614b0e0bc0",
        "meta": {
          "profile": [
            "http://hl7.org/fhir/us/core/StructureDefinition/us-core-observationresults"
          ]
        },
        "identifier": [
          {
            "system": "urn:ietf:rfc:3986",
            "value": "urn:uuid:aed821af-3330-4138-97f0-e84dfe5f3c35"
          }
        ],
        "category": [
          {
            "coding": [
              {
                "system": "http://terminology.hl7.org/CodeSystem/observation-category",
                "code": "laboratory"
              }
            ]
          }
        ],
        "code": {
          "coding": [
            {
              "code": "3094-0",
              "display": "Urea nitrogen, Serum",
              "system": "http://loinc.org"
            }
          ]
        },
        "effectiveDateTime": "2008-03-20T09:30:00-08:00",
        "subject": {
          "reference": "Patient/aca97b95-3c1c-ce73-ac65-f520242997a9"
        }
      },
      "request": {
        "method": "PUT",
        "url": "Observation/295cc0b4-3e1d-8a4e-5e8e-ee614b0e0bc0"
      }
    },
    {
      "fullUrl": "urn:uuid:20336ca0-f3be-c6ec-67c5-07e595e9fba5",
      "resource": {
        "resourceType": "Observation",
        "id": "20336ca0-f3be-c6ec-67c5-07e595e9fba5",
        "meta": {
          "profile": [
            "http://hl7.org/fhir/us/core/StructureDefinition/us-core-observationresults"
          ]
        },
        "identifier": [
          {
            "system": "urn:ietf:rfc:3986",
            "value": "urn:uuid:ed9589fd-fda0-41f7-a3d0-dc537554f5c2"
          }
        ],
        "category": [
          {
            "coding": [
              {
                "system": "http://terminology.hl7.org/CodeSystem/observation-category",
                "code": "vital-signs"
              }
            ]
          }
        ],
        "status": "final",
        "code": {
          "coding": [
            {
              "code": "8302-2",
              "display": "Height",
              "system": "http://loinc.org"
            }
          ]
        },
        "effectiveDateTime": "2012-09-10",
        "valueQuantity": {
          "value": 177,
          "unit": "cm"
        },
        "interpretation": [
          {
            "coding": [
              {
                "code": "N",
                "system": "http://terminology.hl7.org/CodeSystem/v3-ObservationInterpretation"
              }
            ]
          }
        ],
        "subject": {
          "reference": "Patient/aca97b95-3c1c-ce73-ac65-f520242997a9"
        }
      },
      "request": {
        "method": "PUT",
        "url": "Observation/20336ca0-f3be-c6ec-67c5-07e595e9fba5"
      }
    },
    {
      "fullUrl": "urn:uuid:6f5d4552-0c52-eb9c-ffe0-489370360e5b",
      "resource": {
        "resourceType": "Observation",
        "id": "6f5d4552-0c52-eb9c-ffe0-489370360e5b",
        "meta": {
          "profile": [
            "http://hl7.org/fhir/us/core/StructureDefinition/us-core-observationresults"
          ]
        },
        "identifier": [
          {
            "system": "urn:ietf:rfc:3986",
            "value": "urn:uuid:f4e729e2-a97f-4a7e-8e23-c92f9b6b55cf"
          }
        ],
        "category": [
          {
            "coding": [
              {
                "system": "http://terminology.hl7.org/CodeSystem/observation-category",
                "code": "vital-signs"
              }
            ]
          }
        ],
        "status": "final",
        "code": {
          "coding": [
            {
              "code": "3141-9",
              "display": "Patient Body Weight - Measured",
              "system": "http://loinc.org"
            }
          ]
        },
        "effectiveDateTime": "2012-09-10",
        "valueQuantity": {
          "value": 86,
          "unit": "kg"
        },
        "interpretation": [
          {
            "coding": [
              {
                "code": "N",
                "system": "http://terminology.hl7.org/CodeSystem/v3-ObservationInterpretation"
              }
            ]
          }
        ],
        "subject": {
          "reference": "Patient/aca97b95-3c1c-ce73-ac65-f520242997a9"
        }
      },
      "request": {
        "method": "PUT",
        "url": "Observation/6f5d4552-0c52-eb9c-ffe0-489370360e5b"
      }
    },
    {
      "fullUrl": "urn:uuid:803a7179-5799-14a6-5453-68b75aceefae",
      "resource": {
        "resourceType": "Observation",
        "id": "803a7179-5799-14a6-5453-68b75aceefae",
        "meta": {
          "profile": [
            "http://hl7.org/fhir/us/core/StructureDefinition/us-core-observationresults"
          ]
        },
        "identifier": [
          {
            "system": "urn:ietf:rfc:3986",
            "value": "urn:uuid:a0e39c70-9674-4b2a-9837-cdf74200d8d5"
          }
        ],
        "category": [
          {
            "coding": [
              {
                "system": "http://terminology.hl7.org/CodeSystem/observation-category",
                "code": "vital-signs"
              }
            ]
          }
        ],
        "status": "final",
        "code": {
          "coding": [
            {
              "code": "8480-6",
              "display": "Intravascular Systolic",
              "system": "http://loinc.org"
            }
          ]
        },
        "effectiveDateTime": "2012-09-10",
        "valueQuantity": {
          "value": 132,
          "unit": "mm[Hg]"
        },
        "interpretation": [
          {
            "coding": [
              {
                "code": "N",
                "system": "http://terminology.hl7.org/CodeSystem/v3-ObservationInterpretation"
              }
            ]
          }
        ],
        "subject": {
          "reference": "Patient/aca97b95-3c1c-ce73-ac65-f520242997a9"
        }
      },
      "request": {
        "method": "PUT",
        "url": "Observation/803a7179-5799-14a6-5453-68b75aceefae"
      }
    },
    {
      "fullUrl": "urn:uuid:69a2600b-a8c6-0ab2-8305-2bd687a0f7dc",
      "resource": {
        "resourceType": "Observation",
        "id": "69a2600b-a8c6-0ab2-8305-2bd687a0f7dc",
        "meta": {
          "profile": [
            "http://hl7.org/fhir/us/core/StructureDefinition/us-core-observationresults"
          ]
        },
        "identifier": [
          {
            "system": "urn:ietf:rfc:3986",
            "value": "urn:uuid:1c2748b7-e440-41ba-bc01-dde97d84a036"
          }
        ],
        "category": [
          {
            "coding": [
              {
                "system": "http://terminology.hl7.org/CodeSystem/observation-category",
                "code": "vital-signs"
              }
            ]
          }
        ],
        "status": "final",
        "code": {
          "coding": [
            {
              "code": "8462-4",
              "display": "BP Diastolic",
              "system": "http://loinc.org"
            }
          ]
        },
        "effectiveDateTime": "2012-09-10",
        "valueQuantity": {
          "value": 88,
          "unit": "mm[Hg]"
        },
        "interpretation": [
          {
            "coding": [
              {
                "code": "N",
                "system": "http://terminology.hl7.org/CodeSystem/v3-ObservationInterpretation"
              }
            ]
          }
        ],
        "subject": {
          "reference": "Patient/aca97b95-3c1c-ce73-ac65-f520242997a9"
        }
      },
      "request": {
        "method": "PUT",
        "url": "Observation/69a2600b-a8c6-0ab2-8305-2bd687a0f7dc"
      }
    },
    {
      "fullUrl": "urn:uuid:906ec15f-73b3-7cbf-a18f-e5efddb01d6d",
      "resource": {
        "resourceType": "Observation",
        "id": "906ec15f-73b3-7cbf-a18f-e5efddb01d6d",
        "meta": {
          "profile": [
            "http://hl7.org/fhir/us/core/StructureDefinition/us-core-observationresults"
          ]
        },
        "identifier": [
          {
            "system": "urn:ietf:rfc:3986",
            "value": "urn:uuid:05c047cd-28c3-41cd-be6c-56f8cc0c3f2f"
          }
        ],
        "category": [
          {
            "coding": [
              {
                "system": "http://terminology.hl7.org/CodeSystem/observation-category",
                "code": "vital-signs"
              }
            ]
          }
        ],
        "status": "final",
        "code": {
          "coding": [
            {
              "code": "8302-2",
              "display": "Height",
              "system": "http://loinc.org"
            }
          ]
        },
        "effectiveDateTime": "2011-09-01",
        "valueQuantity": {
          "value": 177,
          "unit": "cm"
        },
        "interpretation": [
          {
            "coding": [
              {
                "code": "N",
                "system": "http://terminology.hl7.org/CodeSystem/v3-ObservationInterpretation"
              }
            ]
          }
        ],
        "subject": {
          "reference": "Patient/aca97b95-3c1c-ce73-ac65-f520242997a9"
        }
      },
      "request": {
        "method": "PUT",
        "url": "Observation/906ec15f-73b3-7cbf-a18f-e5efddb01d6d"
      }
    },
    {
      "fullUrl": "urn:uuid:a6e17a99-ce2f-9949-3f3f-1aeb91356534",
      "resource": {
        "resourceType": "Observation",
        "id": "a6e17a99-ce2f-9949-3f3f-1aeb91356534",
        "meta": {
          "profile": [
            "http://hl7.org/fhir/us/core/StructureDefinition/us-core-observationresults"
          ]
        },
        "identifier": [
          {
            "system": "urn:ietf:rfc:3986",
            "value": "urn:uuid:21b0f3d5-7d07-4f4f-ad7e-c33dc2ca3835"
          }
        ],
        "category": [
          {
            "coding": [
              {
                "system": "http://terminology.hl7.org/CodeSystem/observation-category",
                "code": "vital-signs"
              }
            ]
          }
        ],
        "status": "final",
        "code": {
          "coding": [
            {
              "code": "3141-9",
              "display": "Patient Body Weight - Measured",
              "system": "http://loinc.org"
            }
          ]
        },
        "effectiveDateTime": "2011-09-01",
        "valueQuantity": {
          "value": 88,
          "unit": "kg"
        },
        "interpretation": [
          {
            "coding": [
              {
                "code": "N",
                "system": "http://terminology.hl7.org/CodeSystem/v3-ObservationInterpretation"
              }
            ]
          }
        ],
        "subject": {
          "reference": "Patient/aca97b95-3c1c-ce73-ac65-f520242997a9"
        }
      },
      "request": {
        "method": "PUT",
        "url": "Observation/a6e17a99-ce2f-9949-3f3f-1aeb91356534"
      }
    },
    {
      "fullUrl": "urn:uuid:8a75afb1-f0d6-a16e-768e-7d6b9639ebff",
      "resource": {
        "resourceType": "Observation",
        "id": "8a75afb1-f0d6-a16e-768e-7d6b9639ebff",
        "meta": {
          "profile": [
            "http://hl7.org/fhir/us/core/StructureDefinition/us-core-observationresults"
          ]
        },
        "identifier": [
          {
            "system": "urn:ietf:rfc:3986",
            "value": "urn:uuid:b046c35a-59c7-4215-ae09-9a8409a30b21"
          }
        ],
        "category": [
          {
            "coding": [
              {
                "system": "http://terminology.hl7.org/CodeSystem/observation-category",
                "code": "vital-signs"
              }
            ]
          }
        ],
        "status": "final",
        "code": {
          "coding": [
            {
              "code": "8480-6",
              "display": "BP Systolic",
              "system": "http://loinc.org"
            }
          ]
        },
        "effectiveDateTime": "2011-09-01",
        "valueQuantity": {
          "value": 128,
          "unit": "mm[Hg]"
        },
        "interpretation": [
          {
            "coding": [
              {
                "code": "N",
                "system": "http://terminology.hl7.org/CodeSystem/v3-ObservationInterpretation"
              }
            ]
          }
        ],
        "subject": {
          "reference": "Patient/aca97b95-3c1c-ce73-ac65-f520242997a9"
        }
      },
      "request": {
        "method": "PUT",
        "url": "Observation/8a75afb1-f0d6-a16e-768e-7d6b9639ebff"
      }
    },
    {
      "fullUrl": "urn:uuid:85386f1f-c44f-634f-f6f2-c7c2205d525c",
      "resource": {
        "resourceType": "Observation",
        "id": "85386f1f-c44f-634f-f6f2-c7c2205d525c",
        "meta": {
          "profile": [
            "http://hl7.org/fhir/us/core/StructureDefinition/us-core-observationresults"
          ]
        },
        "identifier": [
          {
            "system": "urn:ietf:rfc:3986",
            "value": "urn:uuid:44f54e66-fb4b-4ee5-9ced-9574ef307a23"
          }
        ],
        "category": [
          {
            "coding": [
              {
                "system": "http://terminology.hl7.org/CodeSystem/observation-category",
                "code": "vital-signs"
              }
            ]
          }
        ],
        "status": "final",
        "code": {
          "coding": [
            {
              "code": "8462-4",
              "display": "BP Diastolic",
              "system": "http://loinc.org"
            }
          ]
        },
        "effectiveDateTime": "2011-09-01",
        "valueQuantity": {
          "value": 80,
          "unit": "mm[Hg]"
        },
        "interpretation": [
          {
            "coding": [
              {
                "code": "N",
                "system": "http://terminology.hl7.org/CodeSystem/v3-ObservationInterpretation"
              }
            ]
          }
        ],
        "subject": {
          "reference": "Patient/aca97b95-3c1c-ce73-ac65-f520242997a9"
        }
      },
      "request": {
        "method": "PUT",
        "url": "Observation/85386f1f-c44f-634f-f6f2-c7c2205d525c"
      }
    },
    {
      "fullUrl": "urn:uuid:214e0c81-b6e6-00df-ef85-50994450465e",
      "resource": {
        "resourceType": "Device",
        "id": "214e0c81-b6e6-00df-ef85-50994450465e",
        "identifier": [
          {
            "system": "urn:ietf:rfc:3986",
            "value": "urn:uuid:3e414708-0e61-4d48-8863-484a2d473a02"
          }
        ],
        "type": {
          "coding": [
            {
              "code": "40388003",
              "display": "Implant",
              "system": "http://snomed.info/sct"
            }
          ]
        }
      },
      "request": {
        "method": "PUT",
        "url": "Device/214e0c81-b6e6-00df-ef85-50994450465e"
      }
    },
    {
      "fullUrl": "urn:uuid:2f0e33e7-605a-ed05-97ca-4c83e2c38d64",
      "resource": {
        "resourceType": "Device",
        "id": "2f0e33e7-605a-ed05-97ca-4c83e2c38d64",
        "identifier": [
          {
            "system": "urn:ietf:rfc:3986",
            "value": "urn:uuid:39b5f1b4-a8e1-4ad7-8849-0deab10c97b1"
          }
        ],
        "type": {
          "coding": [
            {
              "code": "14106009",
              "display": "cardiac pacemaker, device (physical object)",
              "system": "http://snomed.info/sct"
            }
          ]
        },
        "manufacturer": "Good Health Durable Medical Equipment"
      },
      "request": {
        "method": "PUT",
        "url": "Device/2f0e33e7-605a-ed05-97ca-4c83e2c38d64"
      }
    },
    {
      "fullUrl": "urn:uuid:3eca0851-e53b-5008-6fcf-b262d0c950c2",
      "resource": {
        "resourceType": "Device",
        "id": "3eca0851-e53b-5008-6fcf-b262d0c950c2",
        "identifier": [
          {
            "system": "urn:ietf:rfc:3986",
            "value": "urn:uuid:39b5f1b4-a8e1-4ad7-8849-0deab10c97b1"
          }
        ],
        "type": {
          "coding": [
            {
              "code": "303406003",
              "display": "upper gastrointestinal prosthesis (physical object)",
              "system": "http://snomed.info/sct"
            }
          ]
        },
        "manufacturer": "Good Health Durable Medical Equipment"
      },
      "request": {
        "method": "PUT",
        "url": "Device/3eca0851-e53b-5008-6fcf-b262d0c950c2"
      }
    },
    {
      "fullUrl": "urn:uuid:2a349963-12e3-05ff-5085-a020b30e7f97",
      "resource": {
        "resourceType": "Device",
        "id": "2a349963-12e3-05ff-5085-a020b30e7f97",
        "identifier": [
          {
            "system": "urn:ietf:rfc:3986",
            "value": "urn:uuid:cf75f5be-1da0-4256-8276-94b7fc73f9f9"
          }
        ],
        "type": {
          "coding": [
            {
              "code": "87405001",
              "display": "cane",
              "system": "http://snomed.info/sct"
            }
          ]
        },
        "manufacturer": "Good Health Durable Medical Equipment"
      },
      "request": {
        "method": "PUT",
        "url": "Device/2a349963-12e3-05ff-5085-a020b30e7f97"
      }
    },
    {
      "fullUrl": "urn:uuid:840f605f-7cee-29eb-2060-313b7a0b74c6",
      "resource": {
        "resourceType": "Procedure",
        "id": "840f605f-7cee-29eb-2060-313b7a0b74c6",
        "meta": {
          "profile": [
            "http://hl7.org/fhir/us/core/StructureDefinition/us-core-procedure"
          ]
        },
        "identifier": [
          {
            "system": "urn:ietf:rfc:3986",
            "value": "urn:uuid:d5b614bd-01ce-410d-8726-e1fd01dcc72a"
          }
        ],
        "status": "completed",
        "code": {
          "coding": [
            {
              "code": "103716009",
              "display": "Stent Placement",
              "system": "http://snomed.info/sct"
            }
          ]
        },
        "performedDateTime": "2013-05-12",
        "bodySite": [
          {
            "coding": [
              {
                "code": "28273000",
                "display": "bile duct",
                "system": "http://snomed.info/sct"
              }
            ]
          }
        ],
        "subject": {
          "reference": "Patient/aca97b95-3c1c-ce73-ac65-f520242997a9"
        },
        "performer": [
          {
            "actor": {
              "reference": "Organization/306c4c51-3243-1d4d-fb8e-717b94d56e23"
            }
          }
        ]
      },
      "request": {
        "method": "PUT",
        "url": "Procedure/840f605f-7cee-29eb-2060-313b7a0b74c6"
      }
    },
    {
      "fullUrl": "urn:uuid:306c4c51-3243-1d4d-fb8e-717b94d56e23",
      "resource": {
        "resourceType": "Organization",
        "id": "306c4c51-3243-1d4d-fb8e-717b94d56e23",
        "identifier": [
          {
            "system": "urn:ietf:rfc:3986",
            "value": "urn:uuid:2.16.840.1.113883.19.5"
          }
        ],
        "name": "Community Health and Hospitals",
        "address": [
          {
            "line": [
              "1003 Health Care Drive"
            ],
            "city": "Ann Arbor",
            "state": "MI",
            "country": "US",
            "postalCode": "02368"
          }
        ],
        "telecom": [
          {
            "system": "phone",
            "value": "+1(555)-555-5005",
            "use": "work"
          }
        ]
      },
      "request": {
        "method": "PUT",
        "url": "Organization/306c4c51-3243-1d4d-fb8e-717b94d56e23"
      }
    },
    {
      "fullUrl": "urn:uuid:c55a0a88-c5be-8218-d44c-93831e1f04d9",
      "resource": {
        "resourceType": "Consent",
        "id": "c55a0a88-c5be-8218-d44c-93831e1f04d9",
        "identifier": [
          {
            "system": "urn:ietf:rfc:3986",
            "value": "urn:uuid:af6ebdf2-d996-11e2-a5b8-f23c91aec05e"
          }
        ],
        "status": "active",
        "scope": {
          "coding": [
            {
              "system": "http://terminology.hl7.org/CodeSystem/consentscope",
              "code": "adr"
            }
          ]
        },
        "category": [
          {
            "coding": [
              {
                "code": "45473-6",
                "display": "advance directive - living will",
                "system": "http://loinc.org"
              }
            ]
          }
        ],
        "dateTime": "2011-02-19",
        "provision": {
          "code": [
            {
              "coding": [
                {
                  "code": "304253006",
                  "display": "Do not resuscitate",
                  "system": "http://snomed.info/sct"
                }
              ]
            }
          ]
        },
        "patient": {
          "reference": "Patient/aca97b95-3c1c-ce73-ac65-f520242997a9"
        },
        "sourceReference": {
          "reference": "DocumentReference/6c331bac-8912-acaf-9373-b44c33e75e1a"
        },
        "performer": [
          {
            "reference": "Practitioner/2cc9a3a8-789c-1981-1868-ed0f20d85191"
          }
        ]
      },
      "request": {
        "method": "PUT",
        "url": "Consent/c55a0a88-c5be-8218-d44c-93831e1f04d9"
      }
    },
    {
      "fullUrl": "urn:uuid:6c331bac-8912-acaf-9373-b44c33e75e1a",
      "resource": {
        "resourceType": "DocumentReference",
        "id": "6c331bac-8912-acaf-9373-b44c33e75e1a",
        "status": "current",
        "content": [
          {
            "attachment": {
              "contentType": "application/pdf",
              "url": "AdvanceDirective.b50b7910.pdf"
            }
          }
        ]
      },
      "request": {
        "method": "PUT",
        "url": "DocumentReference/6c331bac-8912-acaf-9373-b44c33e75e1a"
      }
    },
    {
      "fullUrl": "urn:uuid:2cc9a3a8-789c-1981-1868-ed0f20d85191",
      "resource": {
        "resourceType": "Practitioner",
        "id": "2cc9a3a8-789c-1981-1868-ed0f20d85191",
        "meta": {
          "profile": [
            "http://hl7.org/fhir/us/core/StructureDefinition/us-core-practitioner"
          ]
        },
        "identifier": [
          {
            "system": "urn:ietf:rfc:3986",
            "value": "urn:uuid:20cf14fb-b65c-4c8c-a54d-b0cca834c18c"
          }
        ],
        "name": [
          {
            "family": "Nightingale",
            "given": [
              "Nurse"
            ],
            "suffix": [
              "RN"
            ]
          }
        ],
        "qualification": [
          {
            "code": {
              "coding": [
                {
                  "code": "163W00000X",
                  "display": "Registered nurse",
                  "system": "urn:oid:2.16.840.1.113883.5.53"
                }
              ]
            }
          }
        ]
      },
      "request": {
        "method": "PUT",
        "url": "Practitioner/2cc9a3a8-789c-1981-1868-ed0f20d85191"
      }
    },
    {
      "fullUrl": "urn:uuid:5f464283-9f66-d146-cc3b-5a14fc6d03ff",
      "resource": {
        "resourceType": "Observation",
        "id": "5f464283-9f66-d146-cc3b-5a14fc6d03ff",
        "meta": {
          "profile": [
            "http://hl7.org/fhir/us/core/StructureDefinition/us-core-observationresults"
          ]
        },
        "identifier": [
          {
            "system": "urn:ietf:rfc:3986",
            "value": "urn:uuid:c12ecaaf-53f8-4593-8f79-359aeaa3948b"
          }
        ],
        "status": "final",
        "code": {
          "coding": [
            {
              "code": "75275-8",
              "system": "http://loinc.org"
            }
          ]
        },
        "effectiveDateTime": "2013-03-11",
        "valueCodeableConcept": {
          "coding": [
            {
              "code": "11163003",
              "display": "Intact",
              "system": "http://snomed.info/sct"
            }
          ]
        },
        "subject": {
          "reference": "Patient/aca97b95-3c1c-ce73-ac65-f520242997a9"
        },
        "performer": [
          {
            "reference": "Practitioner/e1ba9b33-b82e-7558-1732-131914e8e2cc"
          }
        ]
      },
      "request": {
        "method": "PUT",
        "url": "Observation/5f464283-9f66-d146-cc3b-5a14fc6d03ff"
      }
    },
    {
      "fullUrl": "urn:uuid:e1ba9b33-b82e-7558-1732-131914e8e2cc",
      "resource": {
        "resourceType": "Practitioner",
        "id": "e1ba9b33-b82e-7558-1732-131914e8e2cc",
        "meta": {
          "profile": [
            "http://hl7.org/fhir/us/core/StructureDefinition/us-core-practitioner"
          ]
        },
        "identifier": [
          {
            "system": "urn:oid:2.16.840.1.113883.19.5",
            "value": "KP00017"
          }
        ],
        "name": [
          {
            "family": "Amanda",
            "given": [
              "Assigned"
            ]
          }
        ],
        "address": [
          {
            "line": [
              "1003 Health Care Drive"
            ],
            "city": "Ann Arbor",
            "state": "MI",
            "country": "US",
            "postalCode": "02368"
          }
        ],
        "telecom": [
          {
            "system": "phone",
            "value": "+1(555)555-1003",
            "use": "work"
          }
        ]
      },
      "request": {
        "method": "PUT",
        "url": "Practitioner/e1ba9b33-b82e-7558-1732-131914e8e2cc"
      }
    },
    {
      "fullUrl": "urn:uuid:f367f1cf-b6ed-8836-d27b-ed8e9c9dd33a",
      "resource": {
        "resourceType": "Observation",
        "id": "f367f1cf-b6ed-8836-d27b-ed8e9c9dd33a",
        "meta": {
          "profile": [
            "http://hl7.org/fhir/us/core/StructureDefinition/us-core-observationresults"
          ]
        },
        "identifier": [
          {
            "system": "urn:ietf:rfc:3986",
            "value": "urn:uuid:c6b5a04b-2bf4-49d1-8336-636a3813df0a"
          }
        ],
        "status": "final",
        "code": {
          "coding": [
            {
              "code": "75275-8",
              "display": "Cognitive function",
              "system": "http://loinc.org"
            }
          ]
        },
        "effectiveDateTime": "2013-03-11",
        "valueCodeableConcept": {
          "coding": [
            {
              "code": "61372001",
              "display": "Aggressive behavior",
              "system": "http://snomed.info/sct"
            }
          ]
        },
        "subject": {
          "reference": "Patient/aca97b95-3c1c-ce73-ac65-f520242997a9"
        },
        "performer": [
          {
            "reference": "Practitioner/e1ba9b33-b82e-7558-1732-131914e8e2cc"
          }
        ]
      },
      "request": {
        "method": "PUT",
        "url": "Observation/f367f1cf-b6ed-8836-d27b-ed8e9c9dd33a"
      }
    },
    {
      "fullUrl": "urn:uuid:9a16e3ff-149e-ce6b-325f-e25843cf412b",
      "resource": {
        "resourceType": "Observation",
        "id": "9a16e3ff-149e-ce6b-325f-e25843cf412b",
        "meta": {
          "profile": [
            "http://hl7.org/fhir/us/core/StructureDefinition/us-core-observationresults"
          ]
        },
        "identifier": [
          {
            "system": "urn:ietf:rfc:3986",
            "value": "urn:uuid:c6b5a04b-2bf4-49d1-8336-636a3813df0a"
          }
        ],
        "status": "final",
        "code": {
          "coding": [
            {
              "code": "75275-8",
              "display": "Cognitive function",
              "system": "http://loinc.org"
            }
          ]
        },
        "effectiveDateTime": "2013-03-11",
        "valueCodeableConcept": {
          "coding": [
            {
              "code": "286569004",
              "display": "difficulty understanding own emotions",
              "system": "http://snomed.info/sct"
            }
          ]
        },
        "subject": {
          "reference": "Patient/aca97b95-3c1c-ce73-ac65-f520242997a9"
        },
        "performer": [
          {
            "reference": "Practitioner/e1ba9b33-b82e-7558-1732-131914e8e2cc"
          }
        ]
      },
      "request": {
        "method": "PUT",
        "url": "Observation/9a16e3ff-149e-ce6b-325f-e25843cf412b"
      }
    },
    {
      "fullUrl": "urn:uuid:ffb9cc83-9cb0-80ce-c29c-1a28bd94c2b3",
      "resource": {
        "resourceType": "Observation",
        "id": "ffb9cc83-9cb0-80ce-c29c-1a28bd94c2b3",
        "meta": {
          "profile": [
            "http://hl7.org/fhir/us/core/StructureDefinition/us-core-observationresults"
          ]
        },
        "identifier": [
          {
            "system": "urn:ietf:rfc:3986",
            "value": "urn:uuid:c6b5a04b-2bf4-49d1-8336-636a3813df0a"
          }
        ],
        "status": "final",
        "code": {
          "coding": [
            {
              "code": "75275-8",
              "display": "Cognitive function",
              "system": "http://loinc.org"
            }
          ]
        },
        "effectiveDateTime": "2013-03-11",
        "valueCodeableConcept": {
          "coding": [
            {
              "code": "288760009",
              "display": "difficulty communicating thoughts",
              "system": "http://snomed.info/sct"
            }
          ]
        },
        "subject": {
          "reference": "Patient/aca97b95-3c1c-ce73-ac65-f520242997a9"
        },
        "performer": [
          {
            "reference": "Practitioner/e1ba9b33-b82e-7558-1732-131914e8e2cc"
          }
        ]
      },
      "request": {
        "method": "PUT",
        "url": "Observation/ffb9cc83-9cb0-80ce-c29c-1a28bd94c2b3"
      }
    },
    {
      "fullUrl": "urn:uuid:46c397b8-c45e-ec25-054b-ddf555eb7700",
      "resource": {
        "resourceType": "Observation",
        "id": "46c397b8-c45e-ec25-054b-ddf555eb7700",
        "meta": {
          "profile": [
            "http://hl7.org/fhir/us/core/StructureDefinition/us-core-observationresults"
          ]
        },
        "identifier": [
          {
            "system": "urn:ietf:rfc:3986",
            "value": "urn:uuid:c12ecaaf-53f8-4593-8f79-359aeaa3948b"
          }
        ],
        "status": "final",
        "code": {
          "coding": [
            {
              "code": "75305-3",
              "display": "Nutrition status",
              "system": "http://loinc.org"
            }
          ]
        },
        "effectiveDateTime": "2013-05-12",
        "valueCodeableConcept": {
          "coding": [
            {
              "code": "248324001",
              "display": "well nourished",
              "system": "http://snomed.info/sct"
            }
          ]
        },
        "subject": {
          "reference": "Patient/aca97b95-3c1c-ce73-ac65-f520242997a9"
        }
      },
      "request": {
        "method": "PUT",
        "url": "Observation/46c397b8-c45e-ec25-054b-ddf555eb7700"
      }
    },
    {
      "fullUrl": "urn:uuid:e8565b5b-dc38-d834-de4f-c94d79b597c9",
      "resource": {
        "resourceType": "Observation",
        "id": "e8565b5b-dc38-d834-de4f-c94d79b597c9",
        "meta": {
          "profile": [
            "http://hl7.org/fhir/us/core/StructureDefinition/us-core-observationresults"
          ]
        },
        "identifier": [
          {
            "system": "urn:ietf:rfc:3986",
            "value": "urn:uuid:ab1791b0-5c71-11db-b0de-0800200c9a66"
          }
        ],
        "status": "final",
        "code": {
          "coding": [
            {
              "code": "75303-8",
              "system": "http://loinc.org"
            }
          ]
        },
        "effectiveDateTime": "2013-05-12",
        "valueCodeableConcept": {
          "coding": [
            {
              "code": "386619000",
              "display": "low sodium diet (finding)",
              "system": "http://snomed.info/sct"
            }
          ]
        },
        "subject": {
          "reference": "Patient/aca97b95-3c1c-ce73-ac65-f520242997a9"
        },
        "performer": [
          {
            "reference": "Practitioner/b0ac12ce-9e58-22b8-f79a-aba2409dac02"
          }
        ]
      },
      "request": {
        "method": "PUT",
        "url": "Observation/e8565b5b-dc38-d834-de4f-c94d79b597c9"
      }
    },
    {
      "fullUrl": "urn:uuid:8de33b07-0c79-f44b-1687-a7bf29836517",
      "resource": {
        "resourceType": "Observation",
        "id": "8de33b07-0c79-f44b-1687-a7bf29836517",
        "meta": {
          "profile": [
            "http://hl7.org/fhir/us/core/StructureDefinition/us-core-observationresults"
          ]
        },
        "identifier": [
          {
            "system": "urn:ietf:rfc:3986",
            "value": "urn:uuid:ab1791b0-5c71-11db-b0de-0800200c9a66"
          }
        ],
        "status": "final",
        "code": {
          "coding": [
            {
              "code": "75303-8",
              "system": "http://loinc.org"
            }
          ]
        },
        "effectiveDateTime": "2013-05-12",
        "valueCodeableConcept": {
          "coding": [
            {
              "code": "430186007",
              "display": "excessive dietary carbohydrate intake(finding)",
              "system": "http://snomed.info/sct"
            }
          ]
        },
        "subject": {
          "reference": "Patient/aca97b95-3c1c-ce73-ac65-f520242997a9"
        },
        "performer": [
          {
            "reference": "Practitioner/b0ac12ce-9e58-22b8-f79a-aba2409dac02"
          }
        ]
      },
      "request": {
        "method": "PUT",
        "url": "Observation/8de33b07-0c79-f44b-1687-a7bf29836517"
      }
    },
    {
      "fullUrl": "urn:uuid:f7263ae4-cade-b0d6-d229-8d792b5df57f",
      "resource": {
        "resourceType": "DocumentReference",
        "id": "f7263ae4-cade-b0d6-d229-8d792b5df57f",
        "type": {
          "coding": [
            {
              "code": "57133-1",
              "display": "Referral Note",
              "system": "http://loinc.org"
            }
          ]
        },
        "date": "2024-10-31T14:50:25.899Z",
        "status": "current",
        "content": [
          {
            "attachment": {
              "contentType": "text/plain",
              "data": "",
              "hash": "MTgzZDEzNzE0M2UxMGM5ZWUzYWNjN2U3YzA0YmVkNjRiNGVhNDI5NQ=="
            }
          }
        ]
      },
      "request": {
        "method": "PUT",
        "url": "DocumentReference/f7263ae4-cade-b0d6-d229-8d792b5df57f"
      }
    }
  ]
}