{
  "resourceType": "Bundle",
  "type": "batch",
  "entry": [
    {
      "fullUrl": "urn:uuid:e0865acf-f1f5-100a-9046-e9ecb45f222d",
      "resource": {
        "resourceType": "Composition",
        "id": "e0865acf-f1f5-100a-9046-e9ecb45f222d",
        "identifier": {
          "use": "official",
          "value": "2.16.840.1.113883.19"
        },
        "status": "final",
        "type": {
          "coding": [
            {
              "code": "11490-0",
              "display": "Discharge summarization note",
              "system": "http://loinc.org"
            }
          ]
        },
        "date": "2005-03-29T17:15:04+05:00",
        "title": "Discharge Summary (UD)",
        "confidentiality": "N",
        "attester": [
          {
            "mode": "legal",
            "time": "2005-03-29T22:44:11+05:00",
            "party": {
              "reference": "Practitioner/9a8ec740-4376-d542-141b-0984f6622a4e"
            }
          }
        ],
        "subject": {
          "reference": "Patient/a5e07268-e082-3212-493e-e68dd1d17d95"
        },
        "custodian": {
          "reference": "Organization/93f37570-5790-ddaa-f614-1a827f39d4ce"
        },
        "author": [
          {
            "reference": "Practitioner/e1ba9b33-b82e-7558-1732-131914e8e2cc"
          }
        ]
      },
      "request": {
        "method": "PUT",
        "url": "Composition/e0865acf-f1f5-100a-9046-e9ecb45f222d"
      }
    },
    {
      "fullUrl": "urn:uuid:9a8ec740-4376-d542-141b-0984f6622a4e",
      "resource": {
        "resourceType": "Practitioner",
        "id": "9a8ec740-4376-d542-141b-0984f6622a4e",
        "meta": {
          "profile": [
            "http://hl7.org/fhir/us/core/StructureDefinition/us-core-practitioner"
          ]
        },
        "identifier": [
          {
            "system": "urn:oid:2.16.840.1.113883.19",
            "value": "KP00017"
          }
        ],
        "name": [
          {
            "family": "Seven",
            "given": [
              "Henry"
            ]
          }
        ],
        "address": [
          {
            "line": [
              "21 North Ave."
            ],
            "city": "Burlington",
            "state": "MA",
            "country": "USA",
            "postalCode": "02368"
          }
        ],
        "telecom": [
          {
            "system": "phone",
            "value": "(555)555-1003",
            "use": "work"
          }
        ]
      },
      "request": {
        "method": "PUT",
        "url": "Practitioner/9a8ec740-4376-d542-141b-0984f6622a4e"
      }
    },
    {
      "fullUrl": "urn:uuid:93f37570-5790-ddaa-f614-1a827f39d4ce",
      "resource": {
        "resourceType": "Organization",
        "id": "93f37570-5790-ddaa-f614-1a827f39d4ce",
        "identifier": [
          {
            "system": "urn:ietf:rfc:3986",
            "value": "urn:uuid:2.16.840.1.113883.19.5"
          }
        ],
        "name": "Good Health Clinic",
        "address": [
          {
            "use": "work",
            "line": [
              "17 Daws Rd."
            ],
            "city": "Blue Bell",
            "state": "MA",
            "country": "USA",
            "postalCode": "02368"
          }
        ],
        "telecom": [
          {
            "system": "phone",
            "value": "(555)555-1212",
            "use": "work"
          }
        ]
      },
      "request": {
        "method": "PUT",
        "url": "Organization/93f37570-5790-ddaa-f614-1a827f39d4ce"
      }
    },
    {
      "fullUrl": "urn:uuid:e1ba9b33-b82e-7558-1732-131914e8e2cc",
      "resource": {
        "resourceType": "Practitioner",
        "id": "e1ba9b33-b82e-7558-1732-131914e8e2cc",
        "meta": {
          "profile": [
            "http://hl7.org/fhir/us/core/StructureDefinition/us-core-practitioner"
          ]
        },
        "identifier": [
          {
            "system": "urn:oid:2.16.840.1.113883.19.5",
            "value": "KP00017"
          }
        ],
        "name": [
          {
            "family": "Seven",
            "given": [
              "Henry"
            ]
          }
        ],
        "address": [
          {
            "line": [
              "21 North Ave."
            ],
            "city": "Burlington",
            "state": "MA",
            "country": "USA",
            "postalCode": "02368"
          }
        ],
        "telecom": [
          {
            "system": "phone",
            "value": "(555)555-1003",
            "use": "work"
          }
        ]
      },
      "request": {
        "method": "PUT",
        "url": "Practitioner/e1ba9b33-b82e-7558-1732-131914e8e2cc"
      }
    },
    {
      "fullUrl": "urn:uuid:a5e07268-e082-3212-493e-e68dd1d17d95",
      "resource": {
        "resourceType": "Patient",
        "id": "a5e07268-e082-3212-493e-e68dd1d17d95",
        "meta": {
          "profile": [
            "http://hl7.org/fhir/us/core/StructureDefinition/us-core-patient"
          ]
        },
        "identifier": [
          {
            "system": "urn:oid:2.16.840.1.113883.19",
            "value": "12345"
          }
        ],
        "name": [
          {
            "use": "usual",
            "family": "Everyman",
            "given": [
              "Adam",
              "Frankie"
            ],
            "prefix": [
              "Mr."
            ]
          }
        ],
        "birthDate": "1954-11-25",
        "gender": "male",
        "extension": [
          {
            "url": "http://hl7.org/fhir/us/core/StructureDefinition/us-core-race",
            "extension": [
              {
                "url": "ombCategory",
                "valueCoding": {
                  "code": "2106-3",
                  "display": "White"
                }
              },
              {
                "url": "text",
                "valueString": "White"
              }
            ]
          },
          {
            "url": "http://hl7.org/fhir/us/core/StructureDefinition/us-core-ethnicity",
            "extension": [
              {
                "url": "ombCategory",
                "valueCoding": {
                  "code": "2186-5",
                  "display": "Not Hispanic or Latino"
                }
              },
              {
                "url": "text",
                "valueString": "Not Hispanic or Latino"
              }
            ]
          }
        ],
        "address": [
          {
            "use": "home",
            "line": [
              "17 Daws Rd."
            ],
            "city": "Blue Bell",
            "state": "MA",
            "country": "US",
            "postalCode": "02368"
          }
        ],
        "telecom": [
          {
            "system": "phone",
            "value": "(781)555-1212",
            "use": "home"
          }
        ],
        "communication": [
          {
            "language": {
              "coding": [
                {
                  "system": "urn:ietf:bcp:47"
                }
              ]
            },
            "preferred": true
          }
        ]
      },
      "request": {
        "method": "PUT",
        "url": "Patient/a5e07268-e082-3212-493e-e68dd1d17d95"
      }
    },
    {
      "fullUrl": "urn:uuid:1aeabd37-80e3-9a71-2e7f-562c94618f14",
      "resource": {
        "resourceType": "RelatedPerson",
        "id": "1aeabd37-80e3-9a71-2e7f-562c94618f14",
        "relationship": [
          {
            "coding": [
              {
                "code": "GRFTH",
                "display": "Grandfather",
                "system": "urn:oid:2.16.840.1.113883.5.111"
              }
            ]
          }
        ],
        "name": [
          {
            "family": "Relative",
            "given": [
              "Ralph"
            ]
          }
        ],
        "telecom": [
          {
            "system": "phone",
            "value": "(781)555-1212",
            "use": "home"
          }
        ],
        "address": [
          {
            "use": "home",
            "line": [
              "17 Daws Rd."
            ],
            "city": "Blue Bell",
            "state": "MA",
            "country": "US",
            "postalCode": "02368"
          }
        ],
        "patient": {
          "reference": "Patient/a5e07268-e082-3212-493e-e68dd1d17d95"
        }
      },
      "request": {
        "method": "PUT",
        "url": "RelatedPerson/1aeabd37-80e3-9a71-2e7f-562c94618f14"
      }
    },
    {
      "fullUrl": "urn:uuid:4dfcb84d-bb7b-f5ff-e8b1-b323fb56d98e",
      "resource": {
        "resourceType": "DocumentReference",
        "id": "4dfcb84d-bb7b-f5ff-e8b1-b323fb56d98e",
        "type": {
          "coding": [
            {
              "code": "11490-0",
              "display": "Discharge summarization note",
              "system": "http://loinc.org"
            }
          ]
        },
        "date": "2024-10-31T14:50:27.078Z",
        "status": "current",
        "content": [
          {
            "attachment": {
              "contentType": "text/plain",
              "data": "",
              "hash": "NmMyZmI1MTAxYTZmMjZlNWMwNmJhNTFhMDk1YWQ0OGNmM2E5ZWE3MQ=="
            }
          }
        ]
      },
      "request": {
        "method": "PUT",
        "url": "DocumentReference/4dfcb84d-bb7b-f5ff-e8b1-b323fb56d98e"
      }
    }
  ]
}