{
  "resourceType": "Bundle",
  "type": "batch",
  "timestamp": "2021-09-20T14:41:00+05:30",
  "identifier": {
      "value": "MSG00013"
  },
  "id": "3fa01fde-f1f9-271b-cd78-622b69fcca15",
  "entry": [
      {
          "fullUrl": "urn:uuid:6075682b-c1ce-410b-b538-cb7bf0d16c6c",
          "resource": {
              "resourceType": "MessageHeader",
              "id": "6075682b-c1ce-410b-b538-cb7bf0d16c6c",
              "source": {
                  "name": "24GHH",
                  "endpoint": "urn:oid:2.16.840.1.114884.10.20"
              },
              "destination": [
                  {
                      "name": "25GHH",
                      "endpoint": "urn:oid:2.16.840.1.114884.10.23",
                      "receiver": {
                          "reference": "Organization/527280c1-34d1-c639-e9ba-61986d28e266"
                      }
                  }
              ],
              "meta": {
                  "security": [
                      {
                          "display": "SECURITY"
                      }
                  ],
                  "tag": [
                      {
                          "code": "P",
                          "system": "http://terminology.hl7.org/CodeSystem/v2-0103"
                      }
                  ]
              },
              "eventCoding": {
                  "code": "S13",
                  "system": "http://terminology.hl7.org/CodeSystem/v2-0003",
                  "display": "SIU^S13^SIU_S13"
              },
              "language": "en-US",
              "sender": {
                  "reference": "Organization/4356fb81-6ecd-2d70-57b1-47812638e785"
              },
              "responsible": {
                  "reference": "Organization/33532a82-d220-4c0d-1abe-53e48951c201"
              }
          },
          "request": {
              "method": "PUT",
              "url": "MessageHeader/6075682b-c1ce-410b-b538-cb7bf0d16c6c"
          }
      },
      {
          "fullUrl": "urn:uuid:09e54df1-8856-96ca-cdbf-4bdbd94a26a3",
          "resource": {
              "resourceType": "Provenance",
              "id": "09e54df1-8856-96ca-cdbf-4bdbd94a26a3",
              "text": {
                  "status": "generated",
                  "div": "<div xmlns=\"http://www.w3.org/1999/xhtml\"><p><span>Resource bundle generated on 2022-03-28T08:59:06.738Z using Microsoft FHIR Converter.</span><span>Template Version: TEMPLATE_VERSION_PLACEHOLDER.</span><span>Template URL: https://github.com/microsoft/FHIR-Converter/releases/download/vTEMPLATE_VERSION_PLACEHOLDER/Hl7v2DefaultTemplates.tar.gz.</span><span>Root template: SIU_S13.</span></p></div>"
              },
              "occurredDateTime": "2021-09-20T14:41:00+05:30",
              "recorded": "2021-09-20T14:41:00+05:30",
              "agent": [
                  {
                      "type": {
                          "coding": [
                              {
                                  "code": "author",
                                  "system": "http://terminology.hl7.org/CodeSystem/provenance-participant-type"
                              }
                          ]
                      },
                      "who": {
                          "reference": "Organization/33532a82-d220-4c0d-1abe-53e48951c201"
                      }
                  }
              ],
              "activity": {
                  "coding": [
                      {
                          "display": "SIU^S13^SIU_S13"
                      }
                  ]
              },
              "entity": [
                  {
                      "role": "source",
                      "what": {
                          "reference": "Device/12428005-5692-7537-f572-e47a16418f26"
                      }
                  }
              ],
              "target": [
                  {
                      "reference": "Bundle/3fa01fde-f1f9-271b-cd78-622b69fcca15"
                  }
              ]
          },
          "request": {
              "method": "PUT",
              "url": "Provenance/09e54df1-8856-96ca-cdbf-4bdbd94a26a3"
          }
      },
      {
          "fullUrl": "urn:uuid:4356fb81-6ecd-2d70-57b1-47812638e785",
          "resource": {
              "resourceType": "Organization",
              "id": "4356fb81-6ecd-2d70-57b1-47812638e785",
              "identifier": [
                  {
                      "value": "GHHSFacility",
                      "system": "http://example.com/v2-to-fhir-converter/Identifier/GHHSFacility"
                  },
                  {
                      "value": "urn:oid:2.16.840.1.122848.1.30",
                      "system": "urn:ietf:rfc:3986",
                      "type": {
                          "coding": [
                              {
                                  "code": "ISO",
                                  "display": "An International Standards Organization Object Identifier (OID), in accordance with ISO/IEC 8824. Formatted as decimal digits separated by periods; recommended limit of 64 characters",
                                  "system": "http://terminology.hl7.org/CodeSystem/v2-0301"
                              }
                          ]
                      }
                  }
              ],
              "partOf": {
                  "reference": "Organization/33532a82-d220-4c0d-1abe-53e48951c201"
              },
              "address": [
                  {
                      "country": "USA"
                  }
              ]
          },
          "request": {
              "method": "PUT",
              "url": "Organization/4356fb81-6ecd-2d70-57b1-47812638e785"
          }
      },
      {
          "fullUrl": "urn:uuid:62781ad6-3896-cb63-0178-ead0c4a432b5",
          "resource": {
              "resourceType": "Organization",
              "id": "62781ad6-3896-cb63-0178-ead0c4a432b5",
              "identifier": [
                  {
                      "value": "GHHRFacility",
                      "system": "http://example.com/v2-to-fhir-converter/Identifier/GHHRFacility"
                  },
                  {
                      "value": "urn:oid:2.16.840.1.1122848.1.32",
                      "system": "urn:ietf:rfc:3986",
                      "type": {
                          "coding": [
                              {
                                  "code": "ISO",
                                  "display": "An International Standards Organization Object Identifier (OID), in accordance with ISO/IEC 8824. Formatted as decimal digits separated by periods; recommended limit of 64 characters",
                                  "system": "http://terminology.hl7.org/CodeSystem/v2-0301"
                              }
                          ]
                      }
                  }
              ],
              "partOf": {
                  "reference": "Organization/527280c1-34d1-c639-e9ba-61986d28e266"
              },
              "address": [
                  {
                      "country": "USA"
                  }
              ]
          },
          "request": {
              "method": "PUT",
              "url": "Organization/62781ad6-3896-cb63-0178-ead0c4a432b5"
          }
      },
      {
          "fullUrl": "urn:uuid:33532a82-d220-4c0d-1abe-53e48951c201",
          "resource": {
              "resourceType": "Organization",
              "id": "33532a82-d220-4c0d-1abe-53e48951c201",
              "name": "22 GHH Inc."
          },
          "request": {
              "method": "PUT",
              "url": "Organization/33532a82-d220-4c0d-1abe-53e48951c201"
          }
      },
      {
          "fullUrl": "urn:uuid:527280c1-34d1-c639-e9ba-61986d28e266",
          "resource": {
              "resourceType": "Organization",
              "id": "527280c1-34d1-c639-e9ba-61986d28e266",
              "name": "23 GHH Inc."
          },
          "request": {
              "method": "PUT",
              "url": "Organization/527280c1-34d1-c639-e9ba-61986d28e266"
          }
      },
      {
          "fullUrl": "urn:uuid:12428005-5692-7537-f572-e47a16418f26",
          "resource": {
              "resourceType": "Device",
              "id": "12428005-5692-7537-f572-e47a16418f26",
              "identifier": [
                  {
                      "value": "SCHApp"
                  }
              ]
          },
          "request": {
              "method": "PUT",
              "url": "Device/12428005-5692-7537-f572-e47a16418f26"
          }
      },
      {
          "fullUrl": "urn:uuid:b7121f46-cf50-5cec-7cfb-5de8e42b82d2",
          "resource": {
              "resourceType": "Appointment",
              "id": "b7121f46-cf50-5cec-7cfb-5de8e42b82d2",
              "identifier": [
                  {
                      "value": "12345",
                      "type": {
                          "coding": [
                              {
                                  "code": "PLAC",
                                  "display": "Placer Identifier",
                                  "system": "http://terminology.hl7.org/CodeSystem/v2-0203"
                              }
                          ]
                      }
                  },
                  {
                      "value": "36996",
                      "type": {
                          "coding": [
                              {
                                  "code": "FILL",
                                  "display": "Filler Identifier",
                                  "system": "http://terminology.hl7.org/CodeSystem/v2-0203"
                              }
                          ]
                      }
                  }
              ],
              "appointmentType": {
                  "coding": [
                      {
                          "code": "EMERGENCY",
                          "display": "Emergency appointment",
                          "system": "http://terminology.hl7.org/CodeSystem/v2-0276"
                      }
                  ]
              },
              "priority": 2,
              "start": "2021-09-24T12:45:00+05:30",
              "end": "2021-09-24T13:35:00+05:30",
              "minutesDuration": 1,
              "status": "booked",
              "supportingInformation": [
                  {
                      "reference": "PractitionerRole/36effb10-f605-f388-c06c-90d22b315bd0"
                  },
                  {
                      "reference": "PractitionerRole/36effb10-f605-f388-c06c-90d22b315bd0"
                  },
                  {
                      "reference": "PractitionerRole/f3c93626-c639-1507-76f0-945d762c11a8"
                  }
              ],
              "participant": [
                  {
                      "actor": {
                          "reference": "Patient/9e909e52-61a1-be50-1878-a12ef8c36346"
                      },
                      "status": "accepted"
                  },
                  {
                      "actor": {
                          "reference": "Device/0434a8f4-6ef0-5dc7-d1a1-91ad4b080b00"
                      },
                      "type": [
                          {
                              "coding": [
                                  {
                                      "code": "101",
                                      "display": "Equipment",
                                      "system": "http://example.com/v2-to-fhir-converter/CodeSystem/L"
                                  }
                              ]
                          }
                      ],
                      "period": {
                          "start": "2021-09-24T12:45:00+05:30"
                      },
                      "status": "accepted"
                  },
                  {
                      "actor": {
                          "reference": "Location/a0594ee2-fcaa-cab0-e434-8c015b6b539d"
                      },
                      "period": {
                          "start": "2021-09-24T12:45:00+05:30"
                      },
                      "status": "accepted"
                  },
                  {
                      "actor": {
                          "reference": "Practitioner/cf8dbd4d-8d1c-57fc-1609-c069ee81b4cb"
                      },
                      "type": [
                          {
                              "coding": [
                                  {
                                      "code": "010",
                                      "display": "Gastroenterologist",
                                      "system": "http://example.com/v2-to-fhir-converter/CodeSystem/L"
                                  }
                              ]
                          }
                      ],
                      "period": {
                          "start": "2021-09-24T12:45:00+05:30"
                      },
                      "status": "accepted"
                  }
              ],
              "basedOn": [
                  {
                      "reference": "ServiceRequest/377d8e6d-3ee4-7509-6f8b-6279da04eb6b"
                  }
              ]
          },
          "request": {
              "method": "PUT",
              "url": "Appointment/b7121f46-cf50-5cec-7cfb-5de8e42b82d2"
          }
      },
      {
          "fullUrl": "urn:uuid:df03b003-6818-1abd-209e-0889025aad16",
          "resource": {
              "resourceType": "Organization",
              "id": "df03b003-6818-1abd-209e-0889025aad16",
              "identifier": [
                  {
                      "value": "NPIID",
                      "system": "http://example.com/v2-to-fhir-converter/Identifier/NPIID"
                  },
                  {
                      "value": "urn:oid:2.16.840.1.113883.4.6",
                      "system": "urn:ietf:rfc:3986",
                      "type": {
                          "coding": [
                              {
                                  "code": "ISO",
                                  "display": "An International Standards Organization Object Identifier (OID), in accordance with ISO/IEC 8824. Formatted as decimal digits separated by periods; recommended limit of 64 characters",
                                  "system": "http://terminology.hl7.org/CodeSystem/v2-0301"
                              }
                          ]
                      }
                  }
              ]
          },
          "request": {
              "method": "PUT",
              "url": "Organization/df03b003-6818-1abd-209e-0889025aad16"
          }
      },
      {
          "fullUrl": "urn:uuid:6f540060-4f9a-5d13-45b3-da6a76e207a7",
          "resource": {
              "resourceType": "Practitioner",
              "id": "6f540060-4f9a-5d13-45b3-da6a76e207a7",
              "address": [
                  {
                      "line": [
                          "115 MAINSTREET"
                      ],
                      "city": "GOODTOWN",
                      "state": "KY",
                      "postalCode": "42010",
                      "country": "USA"
                  }
              ],
              "telecom": [
                  {
                      "value": "(608)271-9000",
                      "system": "phone"
                  }
              ],
              "identifier": [
                  {
                      "value": "9941339109",
                      "system": "urn:oid:2.16.840.1.113883.4.6",
                      "assigner": {
                          "reference": "Organization/df03b003-6818-1abd-209e-0889025aad16"
                      },
                      "type": {
                          "coding": [
                              {
                                  "code": "NPI",
                                  "display": "National provider identifier",
                                  "system": "http://terminology.hl7.org/CodeSystem/v2-0203"
                              }
                          ]
                      }
                  }
              ],
              "name": [
                  {
                      "family": "Smith",
                      "given": [
                          "Adam",
                          "Mellie"
                      ],
                      "suffix": [
                          "Jr",
                          "MD",
                          "GP"
                      ],
                      "prefix": [
                          "Dr"
                      ],
                      "use": "official",
                      "period": {
                          "start": "2010-01-15",
                          "end": "2020-01-15"
                      }
                  }
              ]
          },
          "request": {
              "method": "PUT",
              "url": "Practitioner/6f540060-4f9a-5d13-45b3-da6a76e207a7"
          }
      },
      {
          "fullUrl": "urn:uuid:36effb10-f605-f388-c06c-90d22b315bd0",
          "resource": {
              "resourceType": "PractitionerRole",
              "id": "36effb10-f605-f388-c06c-90d22b315bd0",
              "code": [
                  {
                      "coding": [
                          {
                              "code": "placer-contact",
                              "display": "Placer Contact",
                              "system": "http://example.com/v2-to-fhir-converter/CodeSystem/additional-practitioner-role"
                          }
                      ]
                  },
                  {
                      "coding": [
                          {
                              "code": "filler-contact",
                              "display": "Filler Contact",
                              "system": "http://example.com/v2-to-fhir-converter/CodeSystem/additional-practitioner-role"
                          }
                      ]
                  }
              ],
              "location": [
                  {
                      "reference": "Location/01972772-633a-aae6-c377-70073d6923d3"
                  }
              ],
              "practitioner": {
                  "reference": "Practitioner/6f540060-4f9a-5d13-45b3-da6a76e207a7"
              }
          },
          "request": {
              "method": "PUT",
              "url": "PractitionerRole/36effb10-f605-f388-c06c-90d22b315bd0"
          }
      },
      {
          "fullUrl": "urn:uuid:01972772-633a-aae6-c377-70073d6923d3",
          "resource": {
              "resourceType": "Location",
              "id": "01972772-633a-aae6-c377-70073d6923d3",
              "name": "FACILITY2",
              "mode": "instance",
              "description": "FACILITY2--BUILDING2--FLOOR2",
              "physicalType": {
                  "coding": [
                      {
                          "system": "http://terminology.hl7.org/CodeSystem/location-physical-type",
                          "code": "si"
                      }
                  ]
              }
          },
          "request": {
              "method": "PUT",
              "url": "Location/01972772-633a-aae6-c377-70073d6923d3"
          }
      },
      {
          "fullUrl": "urn:uuid:3cb60c1b-51ab-5a44-f10e-88ba527a7703",
          "resource": {
              "resourceType": "Location",
              "id": "3cb60c1b-51ab-5a44-f10e-88ba527a7703",
              "partOf": {
                  "reference": "Location/01972772-633a-aae6-c377-70073d6923d3"
              },
              "name": "BUILDING2",
              "mode": "instance",
              "description": "FACILITY2--BUILDING2--FLOOR2",
              "physicalType": {
                  "coding": [
                      {
                          "system": "http://terminology.hl7.org/CodeSystem/location-physical-type",
                          "code": "bu"
                      }
                  ]
              }
          },
          "request": {
              "method": "PUT",
              "url": "Location/3cb60c1b-51ab-5a44-f10e-88ba527a7703"
          }
      },
      {
          "fullUrl": "urn:uuid:16c4c7c7-906b-cb78-3752-fd23e6b86947",
          "resource": {
              "resourceType": "Location",
              "id": "16c4c7c7-906b-cb78-3752-fd23e6b86947",
              "partOf": {
                  "reference": "Location/3cb60c1b-51ab-5a44-f10e-88ba527a7703"
              },
              "name": "FLOOR2",
              "mode": "instance",
              "description": "FACILITY2--BUILDING2--FLOOR2",
              "physicalType": {
                  "coding": [
                      {
                          "system": "http://terminology.hl7.org/CodeSystem/location-physical-type",
                          "code": "lvl"
                      }
                  ]
              }
          },
          "request": {
              "method": "PUT",
              "url": "Location/16c4c7c7-906b-cb78-3752-fd23e6b86947"
          }
      },
      {
          "fullUrl": "urn:uuid:fb95e0b1-227c-8068-3e51-86c2df312f25",
          "resource": {
              "resourceType": "Practitioner",
              "id": "fb95e0b1-227c-8068-3e51-86c2df312f25",
              "telecom": [
                  {
                      "value": "(610)271-9000",
                      "system": "phone"
                  }
              ],
              "identifier": [
                  {
                      "value": "9"
                  }
              ],
              "name": [
                  {
                      "family": "DENT",
                      "given": [
                          "COREY"
                      ]
                  }
              ]
          },
          "request": {
              "method": "PUT",
              "url": "Practitioner/fb95e0b1-227c-8068-3e51-86c2df312f25"
          }
      },
      {
          "fullUrl": "urn:uuid:f3c93626-c639-1507-76f0-945d762c11a8",
          "resource": {
              "resourceType": "PractitionerRole",
              "id": "f3c93626-c639-1507-76f0-945d762c11a8",
              "code": [
                  {
                      "coding": [
                          {
                              "code": "EP",
                              "display": "Entering Provider",
                              "system": "http://terminology.hl7.org/CodeSystem/v2-0443"
                          }
                      ]
                  }
              ],
              "location": [
                  {
                      "reference": "Location/8ee5edb4-b4f6-5efb-f49c-b4aacaf6b2e3"
                  }
              ],
              "practitioner": {
                  "reference": "Practitioner/fb95e0b1-227c-8068-3e51-86c2df312f25"
              }
          },
          "request": {
              "method": "PUT",
              "url": "PractitionerRole/f3c93626-c639-1507-76f0-945d762c11a8"
          }
      },
      {
          "fullUrl": "urn:uuid:8ee5edb4-b4f6-5efb-f49c-b4aacaf6b2e3",
          "resource": {
              "resourceType": "Location",
              "id": "8ee5edb4-b4f6-5efb-f49c-b4aacaf6b2e3",
              "name": "FACILITY3",
              "identifier": [
                  {
                      "value": "urn:oid:1.23",
                      "system": "urn:ietf:rfc:3986"
                  }
              ],
              "mode": "instance",
              "description": "FACILITY3--1.23--ISO--BUILDING2--FLOOR1",
              "physicalType": {
                  "coding": [
                      {
                          "system": "http://terminology.hl7.org/CodeSystem/location-physical-type",
                          "code": "si"
                      }
                  ]
              }
          },
          "request": {
              "method": "PUT",
              "url": "Location/8ee5edb4-b4f6-5efb-f49c-b4aacaf6b2e3"
          }
      },
      {
          "fullUrl": "urn:uuid:4286827a-3781-736c-4371-875b4224039d",
          "resource": {
              "resourceType": "Location",
              "id": "4286827a-3781-736c-4371-875b4224039d",
              "partOf": {
                  "reference": "Location/8ee5edb4-b4f6-5efb-f49c-b4aacaf6b2e3"
              },
              "name": "BUILDING2",
              "mode": "instance",
              "description": "FACILITY3--1.23--ISO--BUILDING2--FLOOR1",
              "physicalType": {
                  "coding": [
                      {
                          "system": "http://terminology.hl7.org/CodeSystem/location-physical-type",
                          "code": "bu"
                      }
                  ]
              }
          },
          "request": {
              "method": "PUT",
              "url": "Location/4286827a-3781-736c-4371-875b4224039d"
          }
      },
      {
          "fullUrl": "urn:uuid:eff1b356-b5a1-cb8a-abad-02924820576b",
          "resource": {
              "resourceType": "Location",
              "id": "eff1b356-b5a1-cb8a-abad-02924820576b",
              "partOf": {
                  "reference": "Location/4286827a-3781-736c-4371-875b4224039d"
              },
              "name": "FLOOR1",
              "mode": "instance",
              "description": "FACILITY3--1.23--ISO--BUILDING2--FLOOR1",
              "physicalType": {
                  "coding": [
                      {
                          "system": "http://terminology.hl7.org/CodeSystem/location-physical-type",
                          "code": "lvl"
                      }
                  ]
              }
          },
          "request": {
              "method": "PUT",
              "url": "Location/eff1b356-b5a1-cb8a-abad-02924820576b"
          }
      },
      {
          "fullUrl": "urn:uuid:9e909e52-61a1-be50-1878-a12ef8c36346",
          "resource": {
              "resourceType": "Patient",
              "id": "9e909e52-61a1-be50-1878-a12ef8c36346",
              "identifier": [
                  {
                      "value": "1234567",
                      "type": {
                          "coding": [
                              {
                                  "code": "MR",
                                  "system": "http://terminology.hl7.org/CodeSystem/v2-0203",
                                  "display": "Medical record number"
                              }
                          ]
                      },
                      "system": "http://example.com/v2-to-fhir-converter/Identifier/test",
                      "period": {
                          "start": "1924-10-11",
                          "end": "1924-10-12"
                      }
                  },
                  {
                      "value": "PATID1234",
                      "type": {
                          "coding": [
                              {
                                  "code": "MR",
                                  "system": "http://terminology.hl7.org/CodeSystem/v2-0203",
                                  "display": "Medical record number"
                              }
                          ]
                      },
                      "system": "http://example.com/v2-to-fhir-converter/Identifier/HCD",
                      "assigner": {
                          "reference": "Organization/b3ad3a9f-d4f6-4638-0a09-2da771733488"
                      }
                  },
                  {
                      "value": "123456789",
                      "type": {
                          "coding": [
                              {
                                  "code": "SS",
                                  "system": "http://terminology.hl7.org/CodeSystem/v2-0203",
                                  "display": "Social Security number"
                              }
                          ]
                      },
                      "system": "http://example.com/v2-to-fhir-converter/Identifier/USSSA"
                  },
                  {
                      "value": "PATID567",
                      "system": "http://example.com/v2-to-fhir-converter/Identifier/test2"
                  },
                  {
                      "value": "PSSN123121234",
                      "type": {
                          "coding": [
                              {
                                  "code": "SB",
                                  "system": "http://terminology.hl7.org/CodeSystem/v2-0203"
                              }
                          ]
                      },
                      "system": "http://hl7.org/fhir/sid/us-ssn"
                  },
                  {
                      "value": "DLN-123",
                      "type": {
                          "coding": [
                              {
                                  "code": "DL"
                              }
                          ]
                      },
                      "system": "http://example.com/v2-to-fhir-converter/CodeSystem/US",
                      "period": {
                          "end": "2001-01-23"
                      }
                  }
              ],
              "name": [
                  {
                      "family": "EVERYMAN",
                      "given": [
                          "ADAM",
                          "A",
                          "Addsm"
                      ],
                      "suffix": [
                          "III",
                          "MD",
                          "PF"
                      ],
                      "prefix": [
                          "Dr."
                      ],
                      "use": "usual",
                      "period": {
                          "start": "1924-10-12"
                      }
                  },
                  {
                      "family": "Josh",
                      "given": [
                          "stanley"
                      ],
                      "use": "official",
                      "period": {
                          "start": "1924-10-10",
                          "end": "1924-10-15"
                      }
                  },
                  {
                      "family": "elbert",
                      "given": [
                          "Son"
                      ]
                  }
              ],
              "birthDate": "1988-08-18",
              "_birthDate": {
                  "extension": [
                      {
                          "url": "http://hl7.org/fhir/StructureDefinition/patient-birthTime",
                          "valueDateTime": "1988-08-18T14:41:00+05:30"
                      }
                  ]
              },
              "gender": "male",
              "address": [
                  {
                      "line": [
                          "1000",
                          "Hospital Lane",
                          "Ste. 123",
                          "Near Highway"
                      ],
                      "city": "Ann Arbor ",
                      "state": "MI",
                      "postalCode": "99999",
                      "country": "USA",
                      "type": "postal",
                      "district": "W",
                      "period": {
                          "start": "2000-01-10",
                          "end": "2000-01-20"
                      }
                  }
              ],
              "telecom": [
                  {
                      "value": "2222",
                      "system": "phone",
                      "period": {
                          "start": "2001-01-10",
                          "end": "2002-01-10"
                      },
                      "rank": 18,
                      "use": "home"
                  },
                  {
                      "value": "12121212",
                      "system": "phone",
                      "use": "home"
                  },
                  {
                      "value": "7777",
                      "system": "phone",
                      "use": "work"
                  },
                  {
                      "value": "1111",
                      "system": "other",
                      "use": "work"
                  },
                  {
                      "value": "89898989",
                      "use": "work",
                      "system": "email"
                  }
              ],
              "communication": [
                  {
                      "language": {
                          "coding": [
                              {
                                  "code": "ar",
                                  "display": "Arabic",
                                  "system": "urn:ietf:bcp:47",
                                  "version": "v2"
                              },
                              {
                                  "code": "en",
                                  "display": "English",
                                  "system": "urn:ietf:bcp:47",
                                  "version": "v2.1"
                              }
                          ],
                          "text": "TextInEnglish"
                      },
                      "preferred": true
                  }
              ],
              "maritalStatus": {
                  "coding": [
                      {
                          "code": "M",
                          "display": "Married",
                          "system": "http://terminology.hl7.org/CodeSystem/v3-MaritalStatus"
                      }
                  ]
              },
              "multipleBirthInteger": 2,
              "deceasedDateTime": "2008-08-25T15:31:30+05:30",
              "meta": {
                  "lastUpdated": "2005-01-10T04:05:14+05:30"
              },
              "extension": [
                  {
                      "url": "http://hl7.org/fhir/us/core/StructureDefinition/us-core-race",
                      "extension": [
                          {
                              "url": "ombCategory",
                              "valueCoding": {
                                  "code": "2106-3",
                                  "display": "White",
                                  "system": "urn:oid:2.16.840.1.113883.6.238"
                              }
                          },
                          {
                              "url": "ombCategory",
                              "valueCoding": {
                                  "code": "2028-9",
                                  "display": "Asian",
                                  "system": "urn:oid:2.16.840.1.113883.6.238"
                              }
                          },
                          {
                              "url": "text",
                              "valueString": "White+Asian"
                          }
                      ]
                  },
                  {
                      "url": "http://hl7.org/fhir/StructureDefinition/patient-mothersMaidenName",
                      "valueString": "SMITH--Angela--L"
                  },
                  {
                      "url": "http://hl7.org/fhir/StructureDefinition/patient-birthPlace",
                      "valueAddress": {
                          "text": "St. Francis Community Hospital of Lower South Side"
                      }
                  },
                  {
                      "url": "http://hl7.org/fhir/StructureDefinition/patient-religion",
                      "valueCodeableConcept": {
                          "coding": [
                              {
                                  "code": "1002",
                                  "display": "African Religions",
                                  "system": "http://terminology.hl7.org/CodeSystem/v3-ReligiousAffiliation"
                              }
                          ]
                      }
                  },
                  {
                      "url": "http://hl7.org/fhir/us/core/StructureDefinition/us-core-ethnicity",
                      "extension": [
                          {
                              "url": "ombCategory",
                              "valueCoding": {
                                  "code": "2186-5",
                                  "display": "Non Hispanic or Latino",
                                  "system": "urn:oid:2.16.840.1.113883.6.238"
                              }
                          },
                          {
                              "url": "text",
                              "valueString": "Non Hispanic or Latino"
                          }
                      ]
                  },
                  {
                      "url": "http://hl7.org/fhir/StructureDefinition/patient-citizenship",
                      "extension": [
                          {
                              "url": "code",
                              "valueCodeableConcept": {
                                  "coding": [
                                      {
                                          "code": "US",
                                          "display": "United States of America",
                                          "system": "urn:iso:std:iso:3166"
                                      }
                                  ],
                                  "text": "United States of America"
                              }
                          }
                      ]
                  },
                  {
                      "url": "http://hl7.org/fhir/StructureDefinition/patient-citizenship",
                      "extension": [
                          {
                              "url": "code",
                              "valueCodeableConcept": {
                                  "coding": [
                                      {
                                          "code": "CA",
                                          "display": "Canada",
                                          "system": "urn:iso:std:iso:3166"
                                      }
                                  ],
                                  "text": "Canada"
                              }
                          }
                      ]
                  }
              ]
          },
          "request": {
              "method": "PUT",
              "url": "Patient/9e909e52-61a1-be50-1878-a12ef8c36346"
          }
      },
      {
          "fullUrl": "urn:uuid:4ad7c7d0-b69a-0653-9ea9-0979b8a66b39",
          "resource": {
              "resourceType": "Account",
              "id": "4ad7c7d0-b69a-0653-9ea9-0979b8a66b39",
              "identifier": [
                  {
                      "value": "4000776",
                      "type": {
                          "coding": [
                              {
                                  "code": "VN",
                                  "system": "http://terminology.hl7.org/CodeSystem/v2-0203",
                                  "display": "Visit number"
                              }
                          ]
                      },
                      "system": "urn:oid:1.3.6.1.4.1.44750.1.2.2",
                      "assigner": {
                          "reference": "Organization/816e4ec3-f5a6-5969-08c8-a71ef576263e"
                      },
                      "period": {
                          "start": "1924-10-11",
                          "end": "1924-10-12"
                      }
                  }
              ],
              "status": "active",
              "subject": [
                  {
                      "reference": "Patient/9e909e52-61a1-be50-1878-a12ef8c36346"
                  }
              ]
          },
          "request": {
              "method": "PUT",
              "url": "Account/4ad7c7d0-b69a-0653-9ea9-0979b8a66b39"
          }
      },
      {
          "fullUrl": "urn:uuid:816e4ec3-f5a6-5969-08c8-a71ef576263e",
          "resource": {
              "resourceType": "Organization",
              "id": "816e4ec3-f5a6-5969-08c8-a71ef576263e",
              "identifier": [
                  {
                      "value": "AccMgr",
                      "system": "http://example.com/v2-to-fhir-converter/Identifier/AccMgr"
                  },
                  {
                      "value": "urn:oid:1.3.6.1.4.1.44750.1.2.2",
                      "system": "urn:ietf:rfc:3986",
                      "type": {
                          "coding": [
                              {
                                  "code": "ISO",
                                  "display": "An International Standards Organization Object Identifier (OID), in accordance with ISO/IEC 8824. Formatted as decimal digits separated by periods; recommended limit of 64 characters",
                                  "system": "http://terminology.hl7.org/CodeSystem/v2-0301"
                              }
                          ]
                      }
                  }
              ]
          },
          "request": {
              "method": "PUT",
              "url": "Organization/816e4ec3-f5a6-5969-08c8-a71ef576263e"
          }
      },
      {
          "fullUrl": "urn:uuid:b3ad3a9f-d4f6-4638-0a09-2da771733488",
          "resource": {
              "resourceType": "Organization",
              "id": "b3ad3a9f-d4f6-4638-0a09-2da771733488",
              "identifier": [
                  {
                      "value": "test1",
                      "system": "http://example.com/v2-to-fhir-converter/Identifier/test1"
                  },
                  {
                      "value": "2.16.1",
                      "system": "http://example.com/v2-to-fhir-converter/Identifier/HCD",
                      "type": {
                          "coding": [
                              {
                                  "code": "HCD",
                                  "display": "The CEN Healthcare Coding Scheme Designator",
                                  "system": "http://terminology.hl7.org/CodeSystem/v2-0301"
                              }
                          ]
                      }
                  }
              ]
          },
          "request": {
              "method": "PUT",
              "url": "Organization/b3ad3a9f-d4f6-4638-0a09-2da771733488"
          }
      },
      {
          "fullUrl": "urn:uuid:f3954ae4-dec6-f114-1b9e-3a8a85d93f99",
          "resource": {
              "resourceType": "Organization",
              "id": "f3954ae4-dec6-f114-1b9e-3a8a85d93f99",
              "identifier": [
                  {
                      "value": "NTH",
                      "system": "http://example.com/v2-to-fhir-converter/Identifier/NTH"
                  },
                  {
                      "value": "rt23",
                      "system": "http://example.com/v2-to-fhir-converter/Identifier/HCD",
                      "type": {
                          "coding": [
                              {
                                  "code": "HCD",
                                  "display": "The CEN Healthcare Coding Scheme Designator",
                                  "system": "http://terminology.hl7.org/CodeSystem/v2-0301"
                              }
                          ]
                      }
                  }
              ]
          },
          "request": {
              "method": "PUT",
              "url": "Organization/f3954ae4-dec6-f114-1b9e-3a8a85d93f99"
          }
      },
      {
          "fullUrl": "urn:uuid:62b2e1ee-a272-4ffe-692e-a1fbfd49af6a",
          "resource": {
              "resourceType": "RelatedPerson",
              "id": "62b2e1ee-a272-4ffe-692e-a1fbfd49af6a",
              "identifier": [
                  {
                      "value": "1212121",
                      "type": {
                          "coding": [
                              {
                                  "code": "AND",
                                  "system": "http://terminology.hl7.org/CodeSystem/v2-0203",
                                  "display": "Account number debitor"
                              }
                          ]
                      },
                      "system": "http://example.com/v2-to-fhir-converter/Identifier/HCD",
                      "assigner": {
                          "reference": "Organization/f3954ae4-dec6-f114-1b9e-3a8a85d93f99"
                      },
                      "period": {
                          "start": "1924-10-11",
                          "end": "1924-10-12"
                      }
                  }
              ],
              "relationship": [
                  {
                      "coding": [
                          {
                              "code": "MTH",
                              "system": "http://terminology.hl7.org/CodeSystem/v3-RoleCode"
                          }
                      ]
                  }
              ],
              "patient": {
                  "reference": "Patient/9e909e52-61a1-be50-1878-a12ef8c36346"
              }
          },
          "request": {
              "method": "PUT",
              "url": "RelatedPerson/62b2e1ee-a272-4ffe-692e-a1fbfd49af6a"
          }
      },
      {
          "fullUrl": "urn:uuid:377d8e6d-3ee4-7509-6f8b-6279da04eb6b",
          "resource": {
              "resourceType": "ServiceRequest",
              "id": "377d8e6d-3ee4-7509-6f8b-6279da04eb6b",
              "status": "active",
              "intent": "filler-order",
              "orderDetail": [
                  {
                      "coding": [
                          {
                              "code": "5001",
                              "display": "EVIS X12 Video Colonoscope",
                              "system": "http://example.com/v2-to-fhir-converter/CodeSystem/L"
                          }
                      ]
                  },
                  {
                      "coding": [
                          {
                              "code": "5001",
                              "display": "EVIS X12 Video Colonoscope",
                              "system": "http://example.com/v2-to-fhir-converter/CodeSystem/L"
                          }
                      ]
                  }
              ],
              "occurrencePeriod": {
                  "start": "2021-09-24T12:45:00+05:30"
              },
              "code": {
                  "coding": [
                      {
                          "code": "76164006",
                          "display": "Biopsy of colon (procedure)",
                          "system": "http://snomed.info/sct"
                      },
                      {
                          "code": "1212",
                          "display": "Biopsy"
                      }
                  ]
              },
              "subject": {
                  "reference": "Patient/9e909e52-61a1-be50-1878-a12ef8c36346"
              },
              "note": [
                  {
                      "text": "Nursing staff instructions - Patient bowel preparation for the procedure"
                  },
                  {
                      "text": "Patient instructions - light meal or liquid diet a day before procedure"
                  }
              ],
              "performer": [
                  {
                      "reference": "Device/0434a8f4-6ef0-5dc7-d1a1-91ad4b080b00"
                  },
                  {
                      "reference": "Practitioner/cf8dbd4d-8d1c-57fc-1609-c069ee81b4cb"
                  }
              ],
              "locationReference": [
                  {
                      "reference": "Location/a0594ee2-fcaa-cab0-e434-8c015b6b539d"
                  }
              ]
          },
          "request": {
              "method": "PUT",
              "url": "ServiceRequest/377d8e6d-3ee4-7509-6f8b-6279da04eb6b"
          }
      },
      {
          "fullUrl": "urn:uuid:0434a8f4-6ef0-5dc7-d1a1-91ad4b080b00",
          "resource": {
              "resourceType": "Device",
              "id": "0434a8f4-6ef0-5dc7-d1a1-91ad4b080b00",
              "identifier": [
                  {
                      "value": "5001",
                      "system": "http://example.com/v2-to-fhir-converter/Identifier/L"
                  },
                  {
                      "value": "5002"
                  }
              ],
              "deviceName": [
                  {
                      "name": "EVIS X12 Video Colonoscope",
                      "type": "model-name"
                  }
              ],
              "status": "active",
              "note": [
                  {
                      "text": "Check if this particular equipment is available"
                  }
              ]
          },
          "request": {
              "method": "PUT",
              "url": "Device/0434a8f4-6ef0-5dc7-d1a1-91ad4b080b00"
          }
      },
      {
          "fullUrl": "urn:uuid:a0594ee2-fcaa-cab0-e434-8c015b6b539d",
          "resource": {
              "resourceType": "Location",
              "id": "a0594ee2-fcaa-cab0-e434-8c015b6b539d",
              "name": "055",
              "mode": "instance",
              "description": "055--Room01--GH Clinic",
              "type": [
                  {
                      "coding": [
                          {
                              "code": "C",
                              "display": "Clinic",
                              "system": "http://terminology.hl7.org/CodeSystem/v2-0305"
                          }
                      ]
                  }
              ],
              "physicalType": {
                  "coding": [
                      {
                          "system": "http://terminology.hl7.org/CodeSystem/location-physical-type",
                          "code": "lvl"
                      }
                  ]
              },
              "alias": [
                  "Location ready and disinfected before procedure"
              ]
          },
          "request": {
              "method": "PUT",
              "url": "Location/a0594ee2-fcaa-cab0-e434-8c015b6b539d"
          }
      },
      {
          "fullUrl": "urn:uuid:20316097-b9df-6e97-45d1-6baee31015eb",
          "resource": {
              "resourceType": "Location",
              "id": "20316097-b9df-6e97-45d1-6baee31015eb",
              "partOf": {
                  "reference": "Location/a0594ee2-fcaa-cab0-e434-8c015b6b539d"
              },
              "name": "Room01",
              "mode": "instance",
              "description": "055--Room01--GH Clinic",
              "type": [
                  {
                      "coding": [
                          {
                              "code": "C",
                              "display": "Clinic",
                              "system": "http://terminology.hl7.org/CodeSystem/v2-0305"
                          }
                      ]
                  }
              ],
              "physicalType": {
                  "coding": [
                      {
                          "system": "http://terminology.hl7.org/CodeSystem/location-physical-type",
                          "code": "ro"
                      }
                  ]
              },
              "alias": [
                  "Location ready and disinfected before procedure"
              ]
          },
          "request": {
              "method": "PUT",
              "url": "Location/20316097-b9df-6e97-45d1-6baee31015eb"
          }
      },
      {
          "fullUrl": "urn:uuid:5ec8a1b6-0c32-d67f-eebb-746378dbf712",
          "resource": {
              "resourceType": "Location",
              "id": "5ec8a1b6-0c32-d67f-eebb-746378dbf712",
              "name": "GH Clinic",
              "mode": "instance",
              "description": "055--Room01--GH Clinic",
              "type": [
                  {
                      "coding": [
                          {
                              "code": "C",
                              "display": "Clinic",
                              "system": "http://terminology.hl7.org/CodeSystem/v2-0305"
                          }
                      ]
                  }
              ],
              "physicalType": {
                  "coding": [
                      {
                          "system": "http://terminology.hl7.org/CodeSystem/location-physical-type",
                          "code": "si"
                      }
                  ]
              },
              "alias": [
                  "Location ready and disinfected before procedure"
              ]
          },
          "request": {
              "method": "PUT",
              "url": "Location/5ec8a1b6-0c32-d67f-eebb-746378dbf712"
          }
      },
      {
          "fullUrl": "urn:uuid:cf8dbd4d-8d1c-57fc-1609-c069ee81b4cb",
          "resource": {
              "resourceType": "Practitioner",
              "id": "cf8dbd4d-8d1c-57fc-1609-c069ee81b4cb",
              "identifier": [
                  {
                      "value": "1210"
                  }
              ],
              "name": [
                  {
                      "family": "GE",
                      "given": [
                          "Robert",
                          "C"
                      ]
                  }
              ]
          },
          "request": {
              "method": "PUT",
              "url": "Practitioner/cf8dbd4d-8d1c-57fc-1609-c069ee81b4cb"
          }
      }
  ]
}