{
  "resourceType": "Bundle",
  "type": "batch",
  "timestamp": "2021-10-20T14:41:00+05:30",
  "identifier": {
      "value": "MSG00018"
  },
  "id": "4d03cb6d-610f-5d9e-b9ac-f14883a17462",
  "entry": [
      {
          "fullUrl": "urn:uuid:4f80efdd-5499-39ca-474f-6dca4b4f9a22",
          "resource": {
              "resourceType": "MessageHeader",
              "id": "4f80efdd-5499-39ca-474f-6dca4b4f9a22",
              "source": {
                  "name": "24GHH",
                  "endpoint": "urn:oid:2.16.840.1.114884.10.20"
              },
              "destination": [
                  {
                      "name": "25GHH",
                      "endpoint": "urn:oid:2.16.840.1.114884.10.23",
                      "receiver": {
                          "reference": "Organization/527280c1-34d1-c639-e9ba-61986d28e266"
                      }
                  }
              ],
              "meta": {
                  "security": [
                      {
                          "display": "SECURITY"
                      }
                  ],
                  "tag": [
                      {
                          "code": "P",
                          "system": "http://terminology.hl7.org/CodeSystem/v2-0103"
                      }
                  ]
              },
              "eventCoding": {
                  "code": "O01",
                  "system": "http://terminology.hl7.org/CodeSystem/v2-0003",
                  "display": "ORM^O01^ORM_O01"
              },
              "language": "en-US",
              "sender": {
                  "reference": "Organization/4356fb81-6ecd-2d70-57b1-47812638e785"
              },
              "responsible": {
                  "reference": "Organization/33532a82-d220-4c0d-1abe-53e48951c201"
              }
          },
          "request": {
              "method": "PUT",
              "url": "MessageHeader/4f80efdd-5499-39ca-474f-6dca4b4f9a22"
          }
      },
      {
          "fullUrl": "urn:uuid:58988e57-a45e-285b-5942-4480980652df",
          "resource": {
              "resourceType": "Provenance",
              "id": "58988e57-a45e-285b-5942-4480980652df",
              "text": {
                  "status": "generated",
                  "div": "<div xmlns=\"http://www.w3.org/1999/xhtml\"><p><span>Resource bundle generated on 2022-03-28T09:25:35.07Z using Microsoft FHIR Converter.</span><span>Template Version: TEMPLATE_VERSION_PLACEHOLDER.</span><span>Template URL: https://github.com/microsoft/FHIR-Converter/releases/download/vTEMPLATE_VERSION_PLACEHOLDER/Hl7v2DefaultTemplates.tar.gz.</span><span>Root template: ORM_O01.</span></p></div>"
              },
              "occurredDateTime": "2021-10-20T14:41:00+05:30",
              "recorded": "2021-10-20T14:41:00+05:30",
              "agent": [
                  {
                      "type": {
                          "coding": [
                              {
                                  "code": "author",
                                  "system": "http://terminology.hl7.org/CodeSystem/provenance-participant-type"
                              }
                          ]
                      },
                      "who": {
                          "reference": "Organization/33532a82-d220-4c0d-1abe-53e48951c201"
                      }
                  }
              ],
              "activity": {
                  "coding": [
                      {
                          "display": "ORM^O01^ORM_O01"
                      }
                  ]
              },
              "entity": [
                  {
                      "role": "source",
                      "what": {
                          "reference": "Device/ad64f1d1-3e5b-a041-c1b3-3e157882ed69"
                      }
                  }
              ],
              "target": [
                  {
                      "reference": "Bundle/4d03cb6d-610f-5d9e-b9ac-f14883a17462"
                  }
              ]
          },
          "request": {
              "method": "PUT",
              "url": "Provenance/58988e57-a45e-285b-5942-4480980652df"
          }
      },
      {
          "fullUrl": "urn:uuid:4356fb81-6ecd-2d70-57b1-47812638e785",
          "resource": {
              "resourceType": "Organization",
              "id": "4356fb81-6ecd-2d70-57b1-47812638e785",
              "identifier": [
                  {
                      "value": "GHHSFacility",
                      "system": "http://example.com/v2-to-fhir-converter/Identifier/GHHSFacility"
                  },
                  {
                      "value": "urn:oid:2.16.840.1.122848.1.30",
                      "system": "urn:ietf:rfc:3986",
                      "type": {
                          "coding": [
                              {
                                  "code": "ISO",
                                  "display": "An International Standards Organization Object Identifier (OID), in accordance with ISO/IEC 8824. Formatted as decimal digits separated by periods; recommended limit of 64 characters",
                                  "system": "http://terminology.hl7.org/CodeSystem/v2-0301"
                              }
                          ]
                      }
                  }
              ],
              "partOf": {
                  "reference": "Organization/33532a82-d220-4c0d-1abe-53e48951c201"
              },
              "address": [
                  {
                      "country": "USA"
                  }
              ]
          },
          "request": {
              "method": "PUT",
              "url": "Organization/4356fb81-6ecd-2d70-57b1-47812638e785"
          }
      },
      {
          "fullUrl": "urn:uuid:62781ad6-3896-cb63-0178-ead0c4a432b5",
          "resource": {
              "resourceType": "Organization",
              "id": "62781ad6-3896-cb63-0178-ead0c4a432b5",
              "identifier": [
                  {
                      "value": "GHHRFacility",
                      "system": "http://example.com/v2-to-fhir-converter/Identifier/GHHRFacility"
                  },
                  {
                      "value": "urn:oid:2.16.840.1.1122848.1.32",
                      "system": "urn:ietf:rfc:3986",
                      "type": {
                          "coding": [
                              {
                                  "code": "ISO",
                                  "display": "An International Standards Organization Object Identifier (OID), in accordance with ISO/IEC 8824. Formatted as decimal digits separated by periods; recommended limit of 64 characters",
                                  "system": "http://terminology.hl7.org/CodeSystem/v2-0301"
                              }
                          ]
                      }
                  }
              ],
              "partOf": {
                  "reference": "Organization/527280c1-34d1-c639-e9ba-61986d28e266"
              },
              "address": [
                  {
                      "country": "USA"
                  }
              ]
          },
          "request": {
              "method": "PUT",
              "url": "Organization/62781ad6-3896-cb63-0178-ead0c4a432b5"
          }
      },
      {
          "fullUrl": "urn:uuid:33532a82-d220-4c0d-1abe-53e48951c201",
          "resource": {
              "resourceType": "Organization",
              "id": "33532a82-d220-4c0d-1abe-53e48951c201",
              "name": "22 GHH Inc."
          },
          "request": {
              "method": "PUT",
              "url": "Organization/33532a82-d220-4c0d-1abe-53e48951c201"
          }
      },
      {
          "fullUrl": "urn:uuid:527280c1-34d1-c639-e9ba-61986d28e266",
          "resource": {
              "resourceType": "Organization",
              "id": "527280c1-34d1-c639-e9ba-61986d28e266",
              "name": "23 GHH Inc."
          },
          "request": {
              "method": "PUT",
              "url": "Organization/527280c1-34d1-c639-e9ba-61986d28e266"
          }
      },
      {
          "fullUrl": "urn:uuid:ad64f1d1-3e5b-a041-c1b3-3e157882ed69",
          "resource": {
              "resourceType": "Device",
              "id": "ad64f1d1-3e5b-a041-c1b3-3e157882ed69",
              "identifier": [
                  {
                      "value": "ORDApp"
                  }
              ]
          },
          "request": {
              "method": "PUT",
              "url": "Device/ad64f1d1-3e5b-a041-c1b3-3e157882ed69"
          }
      },
      {
          "fullUrl": "urn:uuid:9e909e52-61a1-be50-1878-a12ef8c36346",
          "resource": {
              "resourceType": "Patient",
              "id": "9e909e52-61a1-be50-1878-a12ef8c36346",
              "identifier": [
                  {
                      "value": "1234567",
                      "type": {
                          "coding": [
                              {
                                  "code": "MR",
                                  "system": "http://terminology.hl7.org/CodeSystem/v2-0203",
                                  "display": "Medical record number"
                              }
                          ]
                      },
                      "system": "http://example.com/v2-to-fhir-converter/Identifier/test",
                      "period": {
                          "start": "1924-10-11",
                          "end": "1924-10-12"
                      }
                  },
                  {
                      "value": "PATID1234",
                      "type": {
                          "coding": [
                              {
                                  "code": "MR",
                                  "system": "http://terminology.hl7.org/CodeSystem/v2-0203",
                                  "display": "Medical record number"
                              }
                          ]
                      },
                      "system": "http://example.com/v2-to-fhir-converter/Identifier/HCD",
                      "assigner": {
                          "reference": "Organization/b3ad3a9f-d4f6-4638-0a09-2da771733488"
                      }
                  },
                  {
                      "value": "123456789",
                      "type": {
                          "coding": [
                              {
                                  "code": "SS",
                                  "system": "http://terminology.hl7.org/CodeSystem/v2-0203",
                                  "display": "Social Security number"
                              }
                          ]
                      },
                      "system": "http://example.com/v2-to-fhir-converter/Identifier/USSSA"
                  },
                  {
                      "value": "PATID567",
                      "system": "http://example.com/v2-to-fhir-converter/Identifier/test2"
                  },
                  {
                      "value": "PSSN123121234",
                      "type": {
                          "coding": [
                              {
                                  "code": "SB",
                                  "system": "http://terminology.hl7.org/CodeSystem/v2-0203"
                              }
                          ]
                      },
                      "system": "http://hl7.org/fhir/sid/us-ssn"
                  },
                  {
                      "value": "DLN-123",
                      "type": {
                          "coding": [
                              {
                                  "code": "DL"
                              }
                          ]
                      },
                      "system": "http://example.com/v2-to-fhir-converter/CodeSystem/US",
                      "period": {
                          "end": "2001-01-23"
                      }
                  }
              ],
              "name": [
                  {
                      "family": "EVERYMAN",
                      "given": [
                          "ADAM",
                          "A",
                          "Addsm"
                      ],
                      "suffix": [
                          "III",
                          "MD",
                          "PF"
                      ],
                      "prefix": [
                          "Dr."
                      ],
                      "use": "usual",
                      "period": {
                          "start": "1924-10-12"
                      }
                  },
                  {
                      "family": "Josh",
                      "given": [
                          "stanley"
                      ],
                      "use": "official",
                      "period": {
                          "start": "1924-10-10",
                          "end": "1924-10-15"
                      }
                  },
                  {
                      "family": "elbert",
                      "given": [
                          "Son"
                      ]
                  }
              ],
              "birthDate": "1988-08-18",
              "_birthDate": {
                  "extension": [
                      {
                          "url": "http://hl7.org/fhir/StructureDefinition/patient-birthTime",
                          "valueDateTime": "1988-08-18T14:41:00+05:30"
                      }
                  ]
              },
              "gender": "male",
              "address": [
                  {
                      "line": [
                          "1000",
                          "Hospital Lane",
                          "Ste. 123",
                          "Near Highway"
                      ],
                      "city": "Ann Arbor ",
                      "state": "MI",
                      "postalCode": "99999",
                      "country": "USA",
                      "type": "postal",
                      "district": "W",
                      "period": {
                          "start": "2000-01-10",
                          "end": "2000-01-20"
                      }
                  }
              ],
              "telecom": [
                  {
                      "value": "2222",
                      "system": "phone",
                      "period": {
                          "start": "2001-01-10",
                          "end": "2002-01-10"
                      },
                      "rank": 18,
                      "use": "home"
                  },
                  {
                      "value": "12121212",
                      "system": "phone",
                      "use": "home"
                  },
                  {
                      "value": "7777",
                      "system": "phone",
                      "use": "work"
                  },
                  {
                      "value": "1111",
                      "system": "other",
                      "use": "work"
                  },
                  {
                      "value": "89898989",
                      "use": "work",
                      "system": "email"
                  }
              ],
              "communication": [
                  {
                      "language": {
                          "coding": [
                              {
                                  "code": "ar",
                                  "display": "Arabic",
                                  "system": "urn:ietf:bcp:47",
                                  "version": "v2"
                              },
                              {
                                  "code": "en",
                                  "display": "English",
                                  "system": "urn:ietf:bcp:47",
                                  "version": "v2.1"
                              }
                          ],
                          "text": "TextInEnglish"
                      },
                      "preferred": true
                  }
              ],
              "maritalStatus": {
                  "coding": [
                      {
                          "code": "M",
                          "display": "Married",
                          "system": "http://terminology.hl7.org/CodeSystem/v3-MaritalStatus"
                      }
                  ]
              },
              "multipleBirthInteger": 2,
              "deceasedDateTime": "2008-08-25T15:31:30+05:30",
              "meta": {
                  "lastUpdated": "2005-01-10T04:05:14+05:30"
              },
              "extension": [
                  {
                      "url": "http://hl7.org/fhir/us/core/StructureDefinition/us-core-race",
                      "extension": [
                          {
                              "url": "ombCategory",
                              "valueCoding": {
                                  "code": "2106-3",
                                  "display": "White",
                                  "system": "urn:oid:2.16.840.1.113883.6.238"
                              }
                          },
                          {
                              "url": "ombCategory",
                              "valueCoding": {
                                  "code": "2028-9",
                                  "display": "Asian",
                                  "system": "urn:oid:2.16.840.1.113883.6.238"
                              }
                          },
                          {
                              "url": "text",
                              "valueString": "White+Asian"
                          }
                      ]
                  },
                  {
                      "url": "http://hl7.org/fhir/StructureDefinition/patient-mothersMaidenName",
                      "valueString": "SMITH--Angela--L"
                  },
                  {
                      "url": "http://hl7.org/fhir/StructureDefinition/patient-birthPlace",
                      "valueAddress": {
                          "text": "St. Francis Community Hospital of Lower South Side"
                      }
                  },
                  {
                      "url": "http://hl7.org/fhir/StructureDefinition/patient-religion",
                      "valueCodeableConcept": {
                          "coding": [
                              {
                                  "code": "1002",
                                  "display": "African Religions",
                                  "system": "http://terminology.hl7.org/CodeSystem/v3-ReligiousAffiliation"
                              }
                          ]
                      }
                  },
                  {
                      "url": "http://hl7.org/fhir/us/core/StructureDefinition/us-core-ethnicity",
                      "extension": [
                          {
                              "url": "ombCategory",
                              "valueCoding": {
                                  "code": "2186-5",
                                  "display": "Non Hispanic or Latino",
                                  "system": "urn:oid:2.16.840.1.113883.6.238"
                              }
                          },
                          {
                              "url": "text",
                              "valueString": "Non Hispanic or Latino"
                          }
                      ]
                  },
                  {
                      "url": "http://hl7.org/fhir/StructureDefinition/patient-citizenship",
                      "extension": [
                          {
                              "url": "code",
                              "valueCodeableConcept": {
                                  "coding": [
                                      {
                                          "code": "US",
                                          "display": "United States of America",
                                          "system": "urn:iso:std:iso:3166"
                                      }
                                  ],
                                  "text": "United States of America"
                              }
                          }
                      ]
                  },
                  {
                      "url": "http://hl7.org/fhir/StructureDefinition/patient-citizenship",
                      "extension": [
                          {
                              "url": "code",
                              "valueCodeableConcept": {
                                  "coding": [
                                      {
                                          "code": "CA",
                                          "display": "Canada",
                                          "system": "urn:iso:std:iso:3166"
                                      }
                                  ],
                                  "text": "Canada"
                              }
                          }
                      ]
                  }
              ],
              "contact": [
                  {
                      "name": {
                          "family": "Doe",
                          "given": [
                              "Rosallie"
                          ]
                      },
                      "address": {
                          "line": [
                              "115 MAINSTREET"
                          ],
                          "city": "GOODTOWN",
                          "state": "KY",
                          "postalCode": "42010",
                          "country": "USA"
                      },
                      "telecom": [
                          {
                              "value": "(608)271-9001",
                              "use": "work",
                              "system": "phone"
                          }
                      ],
                      "relationship": [
                          {
                              "coding": [
                                  {
                                      "code": "C",
                                      "display": "Emergency Contact",
                                      "system": "http://terminology.hl7.org/CodeSystem/v2-0131"
                                  }
                              ]
                          }
                      ]
                  }
              ]
          },
          "request": {
              "method": "PUT",
              "url": "Patient/9e909e52-61a1-be50-1878-a12ef8c36346"
          }
      },
      {
          "fullUrl": "urn:uuid:4ad7c7d0-b69a-0653-9ea9-0979b8a66b39",
          "resource": {
              "resourceType": "Account",
              "id": "4ad7c7d0-b69a-0653-9ea9-0979b8a66b39",
              "identifier": [
                  {
                      "value": "4000776",
                      "type": {
                          "coding": [
                              {
                                  "code": "VN",
                                  "system": "http://terminology.hl7.org/CodeSystem/v2-0203",
                                  "display": "Visit number"
                              }
                          ]
                      },
                      "system": "urn:oid:1.3.6.1.4.1.44750.1.2.2",
                      "assigner": {
                          "reference": "Organization/816e4ec3-f5a6-5969-08c8-a71ef576263e"
                      },
                      "period": {
                          "start": "1924-10-11",
                          "end": "1924-10-12"
                      }
                  }
              ],
              "status": "active",
              "subject": [
                  {
                      "reference": "Patient/9e909e52-61a1-be50-1878-a12ef8c36346"
                  }
              ]
          },
          "request": {
              "method": "PUT",
              "url": "Account/4ad7c7d0-b69a-0653-9ea9-0979b8a66b39"
          }
      },
      {
          "fullUrl": "urn:uuid:816e4ec3-f5a6-5969-08c8-a71ef576263e",
          "resource": {
              "resourceType": "Organization",
              "id": "816e4ec3-f5a6-5969-08c8-a71ef576263e",
              "identifier": [
                  {
                      "value": "AccMgr",
                      "system": "http://example.com/v2-to-fhir-converter/Identifier/AccMgr"
                  },
                  {
                      "value": "urn:oid:1.3.6.1.4.1.44750.1.2.2",
                      "system": "urn:ietf:rfc:3986",
                      "type": {
                          "coding": [
                              {
                                  "code": "ISO",
                                  "display": "An International Standards Organization Object Identifier (OID), in accordance with ISO/IEC 8824. Formatted as decimal digits separated by periods; recommended limit of 64 characters",
                                  "system": "http://terminology.hl7.org/CodeSystem/v2-0301"
                              }
                          ]
                      }
                  }
              ]
          },
          "request": {
              "method": "PUT",
              "url": "Organization/816e4ec3-f5a6-5969-08c8-a71ef576263e"
          }
      },
      {
          "fullUrl": "urn:uuid:b3ad3a9f-d4f6-4638-0a09-2da771733488",
          "resource": {
              "resourceType": "Organization",
              "id": "b3ad3a9f-d4f6-4638-0a09-2da771733488",
              "identifier": [
                  {
                      "value": "test1",
                      "system": "http://example.com/v2-to-fhir-converter/Identifier/test1"
                  },
                  {
                      "value": "2.16.1",
                      "system": "http://example.com/v2-to-fhir-converter/Identifier/HCD",
                      "type": {
                          "coding": [
                              {
                                  "code": "HCD",
                                  "display": "The CEN Healthcare Coding Scheme Designator",
                                  "system": "http://terminology.hl7.org/CodeSystem/v2-0301"
                              }
                          ]
                      }
                  }
              ]
          },
          "request": {
              "method": "PUT",
              "url": "Organization/b3ad3a9f-d4f6-4638-0a09-2da771733488"
          }
      },
      {
          "fullUrl": "urn:uuid:f3954ae4-dec6-f114-1b9e-3a8a85d93f99",
          "resource": {
              "resourceType": "Organization",
              "id": "f3954ae4-dec6-f114-1b9e-3a8a85d93f99",
              "identifier": [
                  {
                      "value": "NTH",
                      "system": "http://example.com/v2-to-fhir-converter/Identifier/NTH"
                  },
                  {
                      "value": "rt23",
                      "system": "http://example.com/v2-to-fhir-converter/Identifier/HCD",
                      "type": {
                          "coding": [
                              {
                                  "code": "HCD",
                                  "display": "The CEN Healthcare Coding Scheme Designator",
                                  "system": "http://terminology.hl7.org/CodeSystem/v2-0301"
                              }
                          ]
                      }
                  }
              ]
          },
          "request": {
              "method": "PUT",
              "url": "Organization/f3954ae4-dec6-f114-1b9e-3a8a85d93f99"
          }
      },
      {
          "fullUrl": "urn:uuid:62b2e1ee-a272-4ffe-692e-a1fbfd49af6a",
          "resource": {
              "resourceType": "RelatedPerson",
              "id": "62b2e1ee-a272-4ffe-692e-a1fbfd49af6a",
              "identifier": [
                  {
                      "value": "1212121",
                      "type": {
                          "coding": [
                              {
                                  "code": "AND",
                                  "system": "http://terminology.hl7.org/CodeSystem/v2-0203",
                                  "display": "Account number debitor"
                              }
                          ]
                      },
                      "system": "http://example.com/v2-to-fhir-converter/Identifier/HCD",
                      "assigner": {
                          "reference": "Organization/f3954ae4-dec6-f114-1b9e-3a8a85d93f99"
                      },
                      "period": {
                          "start": "1924-10-11",
                          "end": "1924-10-12"
                      }
                  }
              ],
              "relationship": [
                  {
                      "coding": [
                          {
                              "code": "MTH",
                              "system": "http://terminology.hl7.org/CodeSystem/v3-RoleCode"
                          }
                      ]
                  }
              ],
              "patient": {
                  "reference": "Patient/9e909e52-61a1-be50-1878-a12ef8c36346"
              }
          },
          "request": {
              "method": "PUT",
              "url": "RelatedPerson/62b2e1ee-a272-4ffe-692e-a1fbfd49af6a"
          }
      },
      {
          "fullUrl": "urn:uuid:d00df304-17fa-8d9a-bd02-3276b1781ea1",
          "resource": {
              "resourceType": "Practitioner",
              "id": "d00df304-17fa-8d9a-bd02-3276b1781ea1",
              "identifier": [
                  {
                      "value": "0210"
                  }
              ],
              "name": [
                  {
                      "family": "ATTEND",
                      "given": [
                          "AARON",
                          "A"
                      ]
                  }
              ]
          },
          "request": {
              "method": "PUT",
              "url": "Practitioner/d00df304-17fa-8d9a-bd02-3276b1781ea1"
          }
      },
      {
          "fullUrl": "urn:uuid:21d5ab8b-8f3d-4fd9-f1c4-6f32568b0ae9",
          "resource": {
              "resourceType": "Practitioner",
              "id": "21d5ab8b-8f3d-4fd9-f1c4-6f32568b0ae9",
              "identifier": [
                  {
                      "value": "0310"
                  }
              ],
              "name": [
                  {
                      "family": "REFER",
                      "given": [
                          "LINDA",
                          "C"
                      ]
                  }
              ]
          },
          "request": {
              "method": "PUT",
              "url": "Practitioner/21d5ab8b-8f3d-4fd9-f1c4-6f32568b0ae9"
          }
      },
      {
          "fullUrl": "urn:uuid:6c138e7c-e841-af07-8948-d01692bd2739",
          "resource": {
              "resourceType": "Practitioner",
              "id": "6c138e7c-e841-af07-8948-d01692bd2739",
              "identifier": [
                  {
                      "value": "03410"
                  }
              ],
              "name": [
                  {
                      "family": "ADMIT",
                      "given": [
                          "LINDA",
                          "C"
                      ]
                  }
              ]
          },
          "request": {
              "method": "PUT",
              "url": "Practitioner/6c138e7c-e841-af07-8948-d01692bd2739"
          }
      },
      {
          "fullUrl": "urn:uuid:578b3a9e-69b0-7046-701d-3aadf2ba2022",
          "resource": {
              "resourceType": "Location",
              "id": "578b3a9e-69b0-7046-701d-3aadf2ba2022",
              "name": "RADUnit01",
              "mode": "instance",
              "description": "RADUnit01--Room01--GHH",
              "physicalType": {
                  "coding": [
                      {
                          "system": "http://terminology.hl7.org/CodeSystem/location-physical-type",
                          "code": "lvl"
                      }
                  ]
              }
          },
          "request": {
              "method": "PUT",
              "url": "Location/578b3a9e-69b0-7046-701d-3aadf2ba2022"
          }
      },
      {
          "fullUrl": "urn:uuid:11e72a8d-af9d-fb24-34e9-ba222b8d3815",
          "resource": {
              "resourceType": "Location",
              "id": "11e72a8d-af9d-fb24-34e9-ba222b8d3815",
              "partOf": {
                  "reference": "Location/578b3a9e-69b0-7046-701d-3aadf2ba2022"
              },
              "name": "Room01",
              "mode": "instance",
              "description": "RADUnit01--Room01--GHH",
              "physicalType": {
                  "coding": [
                      {
                          "system": "http://terminology.hl7.org/CodeSystem/location-physical-type",
                          "code": "ro"
                      }
                  ]
              }
          },
          "request": {
              "method": "PUT",
              "url": "Location/11e72a8d-af9d-fb24-34e9-ba222b8d3815"
          }
      },
      {
          "fullUrl": "urn:uuid:48ad86fa-8ca5-e5a5-0179-caaa5005e4a3",
          "resource": {
              "resourceType": "Location",
              "id": "48ad86fa-8ca5-e5a5-0179-caaa5005e4a3",
              "name": "GHH",
              "mode": "instance",
              "description": "RADUnit01--Room01--GHH",
              "physicalType": {
                  "coding": [
                      {
                          "system": "http://terminology.hl7.org/CodeSystem/location-physical-type",
                          "code": "si"
                      }
                  ]
              }
          },
          "request": {
              "method": "PUT",
              "url": "Location/48ad86fa-8ca5-e5a5-0179-caaa5005e4a3"
          }
      },
      {
          "fullUrl": "urn:uuid:b3e7e8ab-7696-b555-ad2d-db9566b2a249",
          "resource": {
              "resourceType": "Location",
              "id": "b3e7e8ab-7696-b555-ad2d-db9566b2a249",
              "name": "TraumaCentre",
              "mode": "instance",
              "description": "TraumaCentre--ROOM1--2.16.840.1.113883.4.642.1.1108--ISO--GHH1",
              "physicalType": {
                  "coding": [
                      {
                          "system": "http://terminology.hl7.org/CodeSystem/location-physical-type",
                          "code": "lvl"
                      }
                  ]
              }
          },
          "request": {
              "method": "PUT",
              "url": "Location/b3e7e8ab-7696-b555-ad2d-db9566b2a249"
          }
      },
      {
          "fullUrl": "urn:uuid:a84e4df0-81ee-5e6e-3cf5-8ae8e203702c",
          "resource": {
              "resourceType": "Location",
              "id": "a84e4df0-81ee-5e6e-3cf5-8ae8e203702c",
              "partOf": {
                  "reference": "Location/b3e7e8ab-7696-b555-ad2d-db9566b2a249"
              },
              "name": "ROOM1",
              "identifier": [
                  {
                      "value": "urn:oid:2.16.840.1.113883.4.642.1.1108",
                      "system": "urn:ietf:rfc:3986"
                  }
              ],
              "mode": "instance",
              "description": "TraumaCentre--ROOM1--2.16.840.1.113883.4.642.1.1108--ISO--GHH1",
              "physicalType": {
                  "coding": [
                      {
                          "system": "http://terminology.hl7.org/CodeSystem/location-physical-type",
                          "code": "ro"
                      }
                  ]
              }
          },
          "request": {
              "method": "PUT",
              "url": "Location/a84e4df0-81ee-5e6e-3cf5-8ae8e203702c"
          }
      },
      {
          "fullUrl": "urn:uuid:ac02d40f-1a1d-6502-6fd4-80c4432fded9",
          "resource": {
              "resourceType": "Location",
              "id": "ac02d40f-1a1d-6502-6fd4-80c4432fded9",
              "name": "GHH1",
              "mode": "instance",
              "description": "TraumaCentre--ROOM1--2.16.840.1.113883.4.642.1.1108--ISO--GHH1",
              "physicalType": {
                  "coding": [
                      {
                          "system": "http://terminology.hl7.org/CodeSystem/location-physical-type",
                          "code": "si"
                      }
                  ]
              }
          },
          "request": {
              "method": "PUT",
              "url": "Location/ac02d40f-1a1d-6502-6fd4-80c4432fded9"
          }
      },
      {
          "fullUrl": "urn:uuid:da6f322f-ef5e-4f2c-c1f8-6e38dffbf995",
          "resource": {
              "resourceType": "Encounter",
              "id": "da6f322f-ef5e-4f2c-c1f8-6e38dffbf995",
              "class": {
                  "code": "AMB",
                  "display": "ambulatory",
                  "system": "http://terminology.hl7.org/CodeSystem/v3-ActCode"
              },
              "status": "in-progress",
              "location": [
                  {
                      "status": "active",
                      "location": {
                          "reference": "Location/578b3a9e-69b0-7046-701d-3aadf2ba2022"
                      }
                  },
                  {
                      "status": "completed",
                      "location": {
                          "reference": "Location/b3e7e8ab-7696-b555-ad2d-db9566b2a249"
                      }
                  }
              ],
              "participant": [
                  {
                      "type": [
                          {
                              "coding": [
                                  {
                                      "code": "ATND",
                                      "system": "http://terminology.hl7.org/CodeSystem/v3-ParticipationType",
                                      "display": "attender"
                                  }
                              ]
                          }
                      ],
                      "individual": {
                          "reference": "Practitioner/d00df304-17fa-8d9a-bd02-3276b1781ea1"
                      }
                  },
                  {
                      "type": [
                          {
                              "coding": [
                                  {
                                      "code": "REF",
                                      "system": "http://terminology.hl7.org/CodeSystem/v3-ParticipationType"
                                  }
                              ],
                              "text": "referrer"
                          }
                      ],
                      "individual": {
                          "reference": "Practitioner/21d5ab8b-8f3d-4fd9-f1c4-6f32568b0ae9"
                      }
                  },
                  {
                      "type": [
                          {
                              "coding": [
                                  {
                                      "code": "ADM",
                                      "system": "http://terminology.hl7.org/CodeSystem/v3-ParticipationType"
                                  }
                              ],
                              "text": "admitter"
                          }
                      ],
                      "individual": {
                          "reference": "Practitioner/6c138e7c-e841-af07-8948-d01692bd2739"
                      }
                  }
              ],
              "identifier": [
                  {
                      "value": "5001",
                      "system": "http://example.com/v2-to-fhir-converter/Identifier/AccMgr",
                      "type": {
                          "coding": [
                              {
                                  "code": "VN",
                                  "system": "http://terminology.hl7.org/CodeSystem/v2-0203"
                              }
                          ],
                          "text": "visit number"
                      }
                  }
              ],
              "period": {
                  "start": "2021-10-20T15:15:00+05:30"
              },
              "text": {
                  "status": "generated",
                  "div": "<div xmlns=\"http://www.w3.org/1999/xhtml\"><p><span>Visit Description: </span></p></div>"
              },
              "account": [
                  {
                      "reference": "Account/4ad7c7d0-b69a-0653-9ea9-0979b8a66b39"
                  }
              ],
              "subject": {
                  "reference": "Patient/9e909e52-61a1-be50-1878-a12ef8c36346"
              },
              "diagnosis": [
                  {
                      "condition": {
                          "reference": "Condition/97303ad2-9731-b8ac-465e-560ad9ac67ec"
                      },
                      "use": {
                          "coding": [
                              {
                                  "code": "DD",
                                  "display": "Discharge Diagnosis",
                                  "system": "http://terminology.hl7.org/CodeSystem/diagnosis-role"
                              }
                          ]
                      },
                      "rank": 1
                  }
              ]
          },
          "request": {
              "method": "PUT",
              "url": "Encounter/da6f322f-ef5e-4f2c-c1f8-6e38dffbf995"
          }
      },
      {
          "fullUrl": "urn:uuid:a0adcda8-0b28-d089-1955-c04308d5fe28",
          "resource": {
              "resourceType": "AllergyIntolerance",
              "id": "a0adcda8-0b28-d089-1955-c04308d5fe28",
              "category": [
                  "environment"
              ],
              "type": "allergy",
              "code": {
                  "coding": [
                      {
                          "code": "P",
                          "display": "PENICILLIN",
                          "system": "http://terminology.hl7.org/CodeSystem/icd-o"
                      }
                  ]
              },
              "reaction": [
                  {
                      "manifestation": [
                          {
                              "text": "CODE16"
                          }
                      ],
                      "onset": "2021-08-24"
                  }
              ],
              "criticality": "low",
              "clinicalStatus": {
                  "coding": [
                      {
                          "code": "active",
                          "display": "Active",
                          "system": "http://terminology.hl7.org/CodeSystem/allergyintolerance-clinical"
                      }
                  ]
              },
              "patient": {
                  "reference": "Patient/9e909e52-61a1-be50-1878-a12ef8c36346"
              }
          },
          "request": {
              "method": "PUT",
              "url": "AllergyIntolerance/a0adcda8-0b28-d089-1955-c04308d5fe28"
          }
      },
      {
          "fullUrl": "urn:uuid:a4593c44-65bc-e59b-2c53-a94eb2e9e939",
          "resource": {
              "resourceType": "SupplyRequest",
              "id": "a4593c44-65bc-e59b-2c53-a94eb2e9e939",
              "identifier": [
                  {
                      "value": "RQ101",
                      "system": "http://example.com/v2-to-fhir-converter/Identifier/GHHPlacer",
                      "type": {
                          "coding": [
                              {
                                  "code": "PLAC",
                                  "system": "http://terminology.hl7.org/CodeSystem/v2-0203"
                              }
                          ]
                      }
                  },
                  {
                      "value": "986",
                      "system": "urn:oid:2.16.840.1.114222.4.3.3.5.1.2",
                      "type": {
                          "coding": [
                              {
                                  "code": "FILL",
                                  "system": "http://terminology.hl7.org/CodeSystem/v2-0203"
                              }
                          ]
                      }
                  },
                  {
                      "value": "PGN-04",
                      "type": {
                          "coding": [
                              {
                                  "code": "PGN",
                                  "system": "http://terminology.hl7.org/CodeSystem/v2-0203"
                              }
                          ]
                      }
                  }
              ],
              "status": "cancelled",
              "authoredOn": "2120-10-10T20:15:00+05:30",
              "requester": {
                  "reference": "PractitionerRole/5eba6b39-3663-2494-c4fd-923551fa026f"
              },
              "occurrenceDateTime": "2021-10-20T13:45:00+05:30",
              "itemCodeableConcept": {
                  "coding": [
                      {
                          "code": "I45323",
                          "display": "Implant"
                      }
                  ]
              },
              "quantity": {
                  "value": 1,
                  "code": "EA",
                  "system": "http://example.com/v2-to-fhir-converter/CodeSystem/ACR"
              },
              "deliverTo": {
                  "reference": "Organization/6f75b20c-a345-5120-d85d-0598e1f0cd87"
              },
              "deliverFrom": {
                  "reference": "Organization/6482b59c-934b-d920-616c-89e022525634"
              },
              "reasonReference": [
                  {
                      "reference": "Condition/97303ad2-9731-b8ac-465e-560ad9ac67ec"
                  }
              ]
          },
          "request": {
              "method": "PUT",
              "url": "SupplyRequest/a4593c44-65bc-e59b-2c53-a94eb2e9e939"
          }
      },
      {
          "fullUrl": "urn:uuid:895c9a66-3463-8b94-1deb-61cd0d7e5589",
          "resource": {
              "resourceType": "Practitioner",
              "id": "895c9a66-3463-8b94-1deb-61cd0d7e5589",
              "identifier": [
                  {
                      "value": "3850"
                  }
              ],
              "name": [
                  {
                      "family": "ORDPROVIDER",
                      "given": [
                          "JONES",
                          "A"
                      ]
                  }
              ]
          },
          "request": {
              "method": "PUT",
              "url": "Practitioner/895c9a66-3463-8b94-1deb-61cd0d7e5589"
          }
      },
      {
          "fullUrl": "urn:uuid:5eba6b39-3663-2494-c4fd-923551fa026f",
          "resource": {
              "resourceType": "PractitionerRole",
              "id": "5eba6b39-3663-2494-c4fd-923551fa026f",
              "code": [
                  {
                      "coding": [
                          {
                              "code": "OP",
                              "system": "http://terminology.hl7.org/CodeSystem/v2-0443",
                              "display": "Ordering Provider"
                          }
                      ]
                  }
              ],
              "practitioner": {
                  "reference": "Practitioner/895c9a66-3463-8b94-1deb-61cd0d7e5589"
              },
              "organization": {
                  "reference": "Organization/e8632937-77b7-6a57-3f4b-0273f00c93f4"
              }
          },
          "request": {
              "method": "PUT",
              "url": "PractitionerRole/5eba6b39-3663-2494-c4fd-923551fa026f"
          }
      },
      {
          "fullUrl": "urn:uuid:e8632937-77b7-6a57-3f4b-0273f00c93f4",
          "resource": {
              "resourceType": "Organization",
              "id": "e8632937-77b7-6a57-3f4b-0273f00c93f4",
              "name": "Good Health Hospital",
              "identifier": [
                  {
                      "value": "716",
                      "type": {
                          "coding": [
                              {
                                  "code": "XX",
                                  "system": "http://terminology.hl7.org/CodeSystem/v2-0203"
                              }
                          ]
                      }
                  }
              ],
              "address": [
                  {
                      "line": [
                          "1000 Hospital Lane",
                          "Ste. 123"
                      ],
                      "city": "Ann Arbor ",
                      "state": "MI",
                      "postalCode": "99999",
                      "country": "USA",
                      "use": "work"
                  }
              ],
              "telecom": [
                  {
                      "value": "(626)555-1234",
                      "use": "work",
                      "system": "phone"
                  }
              ]
          },
          "request": {
              "method": "PUT",
              "url": "Organization/e8632937-77b7-6a57-3f4b-0273f00c93f4"
          }
      },
      {
          "fullUrl": "urn:uuid:6f75b20c-a345-5120-d85d-0598e1f0cd87",
          "resource": {
              "resourceType": "Organization",
              "id": "6f75b20c-a345-5120-d85d-0598e1f0cd87",
              "identifier": [
                  {
                      "value": "ORSUP"
                  }
              ],
              "name": "Supply Department"
          },
          "request": {
              "method": "PUT",
              "url": "Organization/6f75b20c-a345-5120-d85d-0598e1f0cd87"
          }
      },
      {
          "fullUrl": "urn:uuid:6482b59c-934b-d920-616c-89e022525634",
          "resource": {
              "resourceType": "Organization",
              "id": "6482b59c-934b-d920-616c-89e022525634",
              "identifier": [
                  {
                      "value": "GPC"
                  }
              ],
              "name": "GPC Medical Inc."
          },
          "request": {
              "method": "PUT",
              "url": "Organization/6482b59c-934b-d920-616c-89e022525634"
          }
      },
      {
          "fullUrl": "urn:uuid:98f6382a-649f-0339-4fa8-982d9760cf42",
          "resource": {
              "resourceType": "Practitioner",
              "id": "98f6382a-649f-0339-4fa8-982d9760cf42",
              "identifier": [
                  {
                      "value": "005454"
                  }
              ],
              "name": [
                  {
                      "family": "RAD",
                      "given": [
                          "ROBIN",
                          "B"
                      ]
                  }
              ]
          },
          "request": {
              "method": "PUT",
              "url": "Practitioner/98f6382a-649f-0339-4fa8-982d9760cf42"
          }
      },
      {
          "fullUrl": "urn:uuid:97303ad2-9731-b8ac-465e-560ad9ac67ec",
          "resource": {
              "resourceType": "Condition",
              "id": "97303ad2-9731-b8ac-465e-560ad9ac67ec",
              "code": {
                  "coding": [
                      {
                          "code": "S06.9",
                          "display": "TBI(traumatic brain injury",
                          "system": "http://hl7.org/fhir/sid/icd-10"
                      }
                  ],
                  "text": "Traumatic brain injury"
              },
              "onsetDateTime": "2020-05-01T15:45:09+05:30",
              "identifier": [
                  {
                      "value": "DG1002"
                  }
              ],
              "asserter": {
                  "reference": "Practitioner/98f6382a-649f-0339-4fa8-982d9760cf42"
              },
              "subject": {
                  "reference": "Patient/9e909e52-61a1-be50-1878-a12ef8c36346"
              },
              "extension": [
                  {
                      "url": "http://hl7.org/fhir/StructureDefinition/condition-assertedDate",
                      "valueDateTime": "2020-05-01T16:45:15+05:30"
                  }
              ]
          },
          "request": {
              "method": "PUT",
              "url": "Condition/97303ad2-9731-b8ac-465e-560ad9ac67ec"
          }
      },
      {
          "fullUrl": "urn:uuid:e82402a9-b2d1-2a28-3250-c099d5a77bf7",
          "resource": {
              "resourceType": "Organization",
              "id": "e82402a9-b2d1-2a28-3250-c099d5a77bf7",
              "identifier": [
                  {
                      "value": "PERSt",
                      "system": "http://example.com/v2-to-fhir-converter/Identifier/PERSt"
                  },
                  {
                      "value": "1.23",
                      "system": "http://example.com/v2-to-fhir-converter/Identifier/HCD",
                      "type": {
                          "coding": [
                              {
                                  "code": "HCD",
                                  "display": "The CEN Healthcare Coding Scheme Designator",
                                  "system": "http://terminology.hl7.org/CodeSystem/v2-0301"
                              }
                          ]
                      }
                  }
              ]
          },
          "request": {
              "method": "PUT",
              "url": "Organization/e82402a9-b2d1-2a28-3250-c099d5a77bf7"
          }
      },
      {
          "fullUrl": "urn:uuid:ce70e6c3-c190-121d-c251-e4bae5cde6a1",
          "resource": {
              "resourceType": "Practitioner",
              "id": "ce70e6c3-c190-121d-c251-e4bae5cde6a1",
              "identifier": [
                  {
                      "value": "1134",
                      "system": "http://example.com/v2-to-fhir-converter/Identifier/HCD",
                      "assigner": {
                          "reference": "Organization/e82402a9-b2d1-2a28-3250-c099d5a77bf7"
                      },
                      "type": {
                          "coding": [
                              {
                                  "code": "BR",
                                  "display": "Birth registry number",
                                  "system": "http://terminology.hl7.org/CodeSystem/v2-0203"
                              }
                          ]
                      }
                  }
              ],
              "name": [
                  {
                      "family": "Aly",
                      "given": [
                          "Zafar",
                          "Mahendra"
                      ],
                      "suffix": [
                          "JR",
                          "MD",
                          "Al"
                      ],
                      "prefix": [
                          "Dr."
                      ],
                      "period": {
                          "start": "1924-10-10",
                          "end": "1924-10-15"
                      }
                  }
              ]
          },
          "request": {
              "method": "PUT",
              "url": "Practitioner/ce70e6c3-c190-121d-c251-e4bae5cde6a1"
          }
      },
      {
          "fullUrl": "urn:uuid:88a53755-c972-6904-b4ce-8884b84ddc2e",
          "resource": {
              "resourceType": "PractitionerRole",
              "id": "88a53755-c972-6904-b4ce-8884b84ddc2e",
              "code": [
                  {
                      "coding": [
                          {
                              "code": "RO",
                              "display": "Responsible Observer",
                              "system": "http://terminology.hl7.org/CodeSystem/v2-0443"
                          }
                      ]
                  }
              ],
              "practitioner": {
                  "reference": "Practitioner/ce70e6c3-c190-121d-c251-e4bae5cde6a1"
              }
          },
          "request": {
              "method": "PUT",
              "url": "PractitionerRole/88a53755-c972-6904-b4ce-8884b84ddc2e"
          }
      },
      {
          "fullUrl": "urn:uuid:3e0952c6-eea0-8938-96f8-07c224bf1577",
          "resource": {
              "resourceType": "Practitioner",
              "id": "3e0952c6-eea0-8938-96f8-07c224bf1577",
              "identifier": [
                  {
                      "value": "2234"
                  }
              ],
              "name": [
                  {
                      "family": "Pauly",
                      "given": [
                          "Berrie",
                          "Raud"
                      ]
                  }
              ]
          },
          "request": {
              "method": "PUT",
              "url": "Practitioner/3e0952c6-eea0-8938-96f8-07c224bf1577"
          }
      },
      {
          "fullUrl": "urn:uuid:bc78e290-ec67-c238-1e05-aefb6b252b0c",
          "resource": {
              "resourceType": "PractitionerRole",
              "id": "bc78e290-ec67-c238-1e05-aefb6b252b0c",
              "code": [
                  {
                      "coding": [
                          {
                              "code": "RO",
                              "display": "Responsible Observer",
                              "system": "http://terminology.hl7.org/CodeSystem/v2-0443"
                          }
                      ]
                  }
              ],
              "practitioner": {
                  "reference": "Practitioner/3e0952c6-eea0-8938-96f8-07c224bf1577"
              }
          },
          "request": {
              "method": "PUT",
              "url": "PractitionerRole/bc78e290-ec67-c238-1e05-aefb6b252b0c"
          }
      },
      {
          "fullUrl": "urn:uuid:960162f4-e8c5-e229-eb52-e6f3f6224edc",
          "resource": {
              "resourceType": "Device",
              "id": "960162f4-e8c5-e229-eb52-e6f3f6224edc",
              "identifier": [
                  {
                      "value": "EI12.3",
                      "system": "urn:uuid:426d2726-51fc-89fe-a946-8596e80a80eb",
                      "type": {
                          "coding": [
                              {
                                  "code": "GUID",
                                  "display": "The DCE Universal Unique Identifier, in accordance with RFC 4122. Recommended format is 32 hexadecimal digits separated by hyphens, in the digit grouping 8-4-4-4-12",
                                  "system": "http://terminology.hl7.org/CodeSystem/v2-0301"
                              }
                          ]
                      }
                  },
                  {
                      "system": "urn:oid:1.3.6.1.4.1.44750.1.2.2",
                      "type": {
                          "coding": [
                              {
                                  "code": "ISO",
                                  "display": "An International Standards Organization Object Identifier (OID), in accordance with ISO/IEC 8824. Formatted as decimal digits separated by periods; recommended limit of 64 characters",
                                  "system": "http://terminology.hl7.org/CodeSystem/v2-0301"
                              }
                          ]
                      }
                  }
              ]
          },
          "request": {
              "method": "PUT",
              "url": "Device/960162f4-e8c5-e229-eb52-e6f3f6224edc"
          }
      },
      {
          "fullUrl": "urn:uuid:45f65e47-46c4-1a54-f9fb-1321258e79b2",
          "resource": {
              "resourceType": "Practitioner",
              "id": "45f65e47-46c4-1a54-f9fb-1321258e79b2",
              "identifier": [
                  {
                      "type": {
                          "coding": [
                              {
                                  "code": "MD-25"
                              }
                          ]
                      }
                  }
              ]
          },
          "request": {
              "method": "PUT",
              "url": "Practitioner/45f65e47-46c4-1a54-f9fb-1321258e79b2"
          }
      },
      {
          "fullUrl": "urn:uuid:090ea2e4-0a3a-eb7f-8f9f-16dd7d13f7f3",
          "resource": {
              "resourceType": "PractitionerRole",
              "id": "090ea2e4-0a3a-eb7f-8f9f-16dd7d13f7f3",
              "code": [
                  {
                      "coding": [
                          {
                              "code": "MDIR",
                              "display": "Medical Director",
                              "system": "http://terminology.hl7.org/CodeSystem/v2-0443"
                          }
                      ]
                  }
              ],
              "practitioner": {
                  "reference": "Practitioner/45f65e47-46c4-1a54-f9fb-1321258e79b2"
              },
              "organization": {
                  "reference": "Organization/056aa7c7-6b75-3c67-63c5-cf9604f16d25"
              }
          },
          "request": {
              "method": "PUT",
              "url": "PractitionerRole/090ea2e4-0a3a-eb7f-8f9f-16dd7d13f7f3"
          }
      },
      {
          "fullUrl": "urn:uuid:056aa7c7-6b75-3c67-63c5-cf9604f16d25",
          "resource": {
              "resourceType": "Organization",
              "id": "056aa7c7-6b75-3c67-63c5-cf9604f16d25",
              "name": "FairOaks Hspital",
              "address": [
                  {
                      "line": [
                          "Research Park",
                          "Fairfax"
                      ],
                      "city": "VA",
                      "state": "22031",
                      "postalCode": "USA"
                  }
              ]
          },
          "request": {
              "method": "PUT",
              "url": "Organization/056aa7c7-6b75-3c67-63c5-cf9604f16d25"
          }
      },
      {
          "fullUrl": "urn:uuid:6586ece7-7d50-e6c0-b0f9-2da3a2c26174",
          "resource": {
              "resourceType": "Observation",
              "id": "6586ece7-7d50-e6c0-b0f9-2da3a2c26174",
              "identifier": [
                  {
                      "value": "EI21",
                      "system": "http://example.com/v2-to-fhir-converter/Identifier/OII"
                  },
                  {
                      "type": {
                          "coding": [
                              {
                                  "code": "FILL"
                              }
                          ]
                      }
                  }
              ],
              "status": "unknown",
              "code": {
                  "coding": [
                      {
                          "code": "8867-4",
                          "display": "heartrate",
                          "system": "http://loinc.org"
                      }
                  ]
              },
              "component": [
                  {
                      "code": {
                          "coding": [
                              {
                                  "code": "8867-4",
                                  "display": "heartrate",
                                  "system": "http://loinc.org"
                              }
                          ]
                      },
                      "valueQuantity": {
                          "value": 60,
                          "code": "beats/min",
                          "system": "urn:iso:std:iso:3986"
                      },
                      "referenceRange": [
                          {
                              "text": "70-80"
                          }
                      ]
                  },
                  {
                      "code": {
                          "coding": [
                              {
                                  "code": "8867-4",
                                  "display": "heartrate",
                                  "system": "http://loinc.org"
                              }
                          ]
                      },
                      "valueQuantity": {
                          "value": 120,
                          "code": "beats/min",
                          "system": "urn:iso:std:iso:3986"
                      },
                      "referenceRange": [
                          {
                              "text": "70-80"
                          }
                      ]
                  }
              ],
              "effectiveDateTime": "1999-07-02",
              "method": {
                  "coding": [
                      {
                          "code": "OBS",
                          "display": "This is test method",
                          "system": "http://example.com/v2-to-fhir-converter/CodeSystem/AS4"
                      }
                  ]
              },
              "device": {
                  "reference": "Device/960162f4-e8c5-e229-eb52-e6f3f6224edc"
              },
              "bodySite": {
                  "coding": [
                      {
                          "code": "BU",
                          "display": "Observation site",
                          "system": "http://example.com/v2-to-fhir-converter/CodeSystem/E5"
                      }
                  ]
              },
              "performer": [
                  {
                      "reference": "PractitionerRole/88a53755-c972-6904-b4ce-8884b84ddc2e"
                  },
                  {
                      "reference": "PractitionerRole/bc78e290-ec67-c238-1e05-aefb6b252b0c"
                  },
                  {
                      "reference": "PractitionerRole/090ea2e4-0a3a-eb7f-8f9f-16dd7d13f7f3"
                  }
              ],
              "interpretation": [
                  {
                      "coding": [
                          {
                              "code": "A",
                              "display": "Abnormal",
                              "system": "http://terminology.hl7.org/CodeSystem/v3-ObservationInterpretation"
                          }
                      ]
                  },
                  {
                      "coding": [
                          {
                              "code": "B",
                              "display": "Better",
                              "system": "http://terminology.hl7.org/CodeSystem/v3-ObservationInterpretation"
                          }
                      ]
                  }
              ],
              "subject": {
                  "reference": "Patient/9e909e52-61a1-be50-1878-a12ef8c36346"
              },
              "extension": [
                  {
                      "url": "http://example.com/v2-to-fhir-converter/Observation_Status",
                      "valueCodeableConcept": {
                          "coding": [
                              {
                                  "code": "S",
                                  "display": "Partial",
                                  "system": "http://terminology.hl7.org/CodeSystem/v2-0085"
                              }
                          ],
                          "text": "Partial"
                      }
                  }
              ],
              "note": [
                  {
                      "text": "No Antibodies Detected",
                      "time": "2020-10-10T18:15:00+05:30",
                      "authorReference": {
                          "reference": "Practitioner/ca6d10cc-e8a7-9d21-bd61-ec6d1db557c2"
                      }
                  }
              ]
          },
          "request": {
              "method": "PUT",
              "url": "Observation/6586ece7-7d50-e6c0-b0f9-2da3a2c26174"
          }
      },
      {
          "fullUrl": "urn:uuid:ca6d10cc-e8a7-9d21-bd61-ec6d1db557c2",
          "resource": {
              "resourceType": "Practitioner",
              "id": "ca6d10cc-e8a7-9d21-bd61-ec6d1db557c2",
              "identifier": [
                  {
                      "value": "MLEE"
                  }
              ],
              "name": [
                  {
                      "family": "ATTEND",
                      "given": [
                          "AARON",
                          "A"
                      ],
                      "suffix": [
                          "MD"
                      ]
                  }
              ]
          },
          "request": {
              "method": "PUT",
              "url": "Practitioner/ca6d10cc-e8a7-9d21-bd61-ec6d1db557c2"
          }
      },
      {
          "fullUrl": "urn:uuid:8ad2f1f3-89ff-81ea-98ad-44d755fe98fe",
          "resource": {
              "resourceType": "Account",
              "id": "8ad2f1f3-89ff-81ea-98ad-44d755fe98fe",
              "identifier": [
                  {
                      "value": "AI167",
                      "type": {
                          "coding": [
                              {
                                  "code": "MR",
                                  "system": "http://terminology.hl7.org/CodeSystem/v2-0203",
                                  "display": "Medical record number"
                              }
                          ]
                      },
                      "system": "http://example.com/v2-to-fhir-converter/Identifier/DNS"
                  }
              ],
              "status": "active"
          },
          "request": {
              "method": "PUT",
              "url": "Account/8ad2f1f3-89ff-81ea-98ad-44d755fe98fe"
          }
      },
      {
          "fullUrl": "urn:uuid:efc256b2-6f47-d905-3279-bea236bf89bf",
          "resource": {
              "resourceType": "ChargeItem",
              "id": "efc256b2-6f47-d905-3279-bea236bf89bf",
              "status": "unknown",
              "identifier": [
                  {
                      "value": "12345",
                      "system": "http://example.com/v2-to-fhir-converter/Identifier/L",
                      "type": {
                          "coding": [
                              {
                                  "system": "http://example.com/v2-to-fhir-converter/CodeSystem/identifier-type-code",
                                  "code": "TID",
                                  "display": "ChargeItem Transaction ID"
                              }
                          ]
                      }
                  }
              ],
              "occurrenceDateTime": "2019-11-22",
              "enteredDate": "2019-11-22",
              "code": {
                  "coding": [
                      {
                          "code": "71045",
                          "display": "Xray exam chest 1 view",
                          "system": "http://www.ama-assn.org/go/cpt"
                      }
                  ]
              },
              "quantity": {
                  "value": 2
              },
              "priceOverride": {
                  "value": 100,
                  "currency": "USD"
              },
              "reason": [
                  {
                      "coding": [
                          {
                              "code": "29857009",
                              "display": "Chest pain",
                              "system": "http://snomed.info/sct"
                          }
                      ]
                  },
                  {
                      "coding": [
                          {
                              "code": "68235000",
                              "display": "Nasal congestion",
                              "system": "http://snomed.info/sct"
                          }
                      ]
                  }
              ],
              "subject": {
                  "reference": "Patient/9e909e52-61a1-be50-1878-a12ef8c36346"
              },
              "account": [
                  {
                      "reference": "Account/4ad7c7d0-b69a-0653-9ea9-0979b8a66b39"
                  },
                  {
                      "reference": "Account/8ad2f1f3-89ff-81ea-98ad-44d755fe98fe"
                  }
              ],
              "context": {
                  "reference": "Encounter/da6f322f-ef5e-4f2c-c1f8-6e38dffbf995"
              },
              "supportingInformation": [
                  {
                      "reference": "SupplyRequest/a4593c44-65bc-e59b-2c53-a94eb2e9e939"
                  }
              ],
              "costCenter": {
                  "reference": "Organization/4082dc60-f9b6-5d4a-1ef2-5a40f7454e4b"
              },
              "performer": [
                  {
                      "actor": {
                          "reference": "Practitioner/3ec3c243-2f18-287a-4275-a062f0131a03"
                      }
                  }
              ],
              "enterer": {
                  "reference": "Practitioner/e43414a7-79a4-70bb-e4d0-245f330edfa6"
              },
              "service": [
                  {
                      "reference": "Procedure/b31aed81-fe7b-341f-f862-857b77ca1d8c",
                      "type": "Procedure"
                  },
                  {
                      "reference": "MedicationDispense/32dbe4c1-0bbc-484b-a25b-6cd25b28275d",
                      "type": "MedicationDispense"
                  }
              ],
              "performingOrganization": {
                  "reference": "Organization/52a163eb-90ba-48c4-82f3-d13ad2665faf"
              },
              "requestingOrganization": {
                  "reference": "Organization/379abbe1-0596-62f8-5218-4f988127cd70"
              },
              "productReference": {
                  "reference": "Device/2676707e-6e0a-3a9d-9b51-1b035b7f5f1f"
              }
          },
          "request": {
              "method": "PUT",
              "url": "ChargeItem/efc256b2-6f47-d905-3279-bea236bf89bf"
          }
      },
      {
          "fullUrl": "urn:uuid:4082dc60-f9b6-5d4a-1ef2-5a40f7454e4b",
          "resource": {
              "resourceType": "Organization",
              "id": "4082dc60-f9b6-5d4a-1ef2-5a40f7454e4b",
              "identifier": [
                  {
                      "value": "RAD-1",
                      "system": "http://example.com/v2-to-fhir-converter/Identifier/L"
                  }
              ],
              "name": "Radiology Deptt"
          },
          "request": {
              "method": "PUT",
              "url": "Organization/4082dc60-f9b6-5d4a-1ef2-5a40f7454e4b"
          }
      },
      {
          "fullUrl": "urn:uuid:3ec3c243-2f18-287a-4275-a062f0131a03",
          "resource": {
              "resourceType": "Practitioner",
              "id": "3ec3c243-2f18-287a-4275-a062f0131a03",
              "identifier": [
                  {
                      "value": "9941339108",
                      "system": "urn:oid:2.16.840.1.113883.4.6",
                      "type": {
                          "coding": [
                              {
                                  "code": "NPI",
                                  "display": "National provider identifier",
                                  "system": "http://terminology.hl7.org/CodeSystem/v2-0203"
                              }
                          ]
                      }
                  }
              ],
              "name": [
                  {
                      "family": "Smith",
                      "given": [
                          "Adam"
                      ]
                  }
              ]
          },
          "request": {
              "method": "PUT",
              "url": "Practitioner/3ec3c243-2f18-287a-4275-a062f0131a03"
          }
      },
      {
          "fullUrl": "urn:uuid:e43414a7-79a4-70bb-e4d0-245f330edfa6",
          "resource": {
              "resourceType": "Practitioner",
              "id": "e43414a7-79a4-70bb-e4d0-245f330edfa6",
              "identifier": [
                  {
                      "value": "9941339116",
                      "system": "urn:oid:2.16.840.1.113883.4.6",
                      "type": {
                          "coding": [
                              {
                                  "code": "NPI",
                                  "display": "National provider identifier",
                                  "system": "http://terminology.hl7.org/CodeSystem/v2-0203"
                              }
                          ]
                      }
                  }
              ],
              "name": [
                  {
                      "family": "Mellie",
                      "given": [
                          "John"
                      ]
                  }
              ]
          },
          "request": {
              "method": "PUT",
              "url": "Practitioner/e43414a7-79a4-70bb-e4d0-245f330edfa6"
          }
      },
      {
          "fullUrl": "urn:uuid:b31aed81-fe7b-341f-f862-857b77ca1d8c",
          "resource": {
              "resourceType": "Procedure",
              "id": "b31aed81-fe7b-341f-f862-857b77ca1d8c",
              "code": {
                  "coding": [
                      {
                          "code": "71045",
                          "display": "Xray exam chest 1 view",
                          "system": "http://www.ama-assn.org/go/cpt"
                      }
                  ]
              },
              "status": "unknown",
              "subject": {
                  "reference": "Patient/9e909e52-61a1-be50-1878-a12ef8c36346"
              }
          },
          "request": {
              "method": "PUT",
              "url": "Procedure/b31aed81-fe7b-341f-f862-857b77ca1d8c"
          }
      },
      {
          "fullUrl": "urn:uuid:32dbe4c1-0bbc-484b-a25b-6cd25b28275d",
          "resource": {
              "resourceType": "MedicationDispense",
              "id": "32dbe4c1-0bbc-484b-a25b-6cd25b28275d",
              "quantity": {
                  "value": 5,
                  "unit": "Capsule"
              },
              "authorizingPrescription": [
                  {
                      "identifier": {
                          "value": "PN-12345",
                          "type": {
                              "coding": [
                                  {
                                      "system": "http://example.com/v2-to-fhir-converter/CodeSystem/identifier-type-code",
                                      "code": "PRN",
                                      "display": "Prescription Number"
                                  }
                              ]
                          }
                      },
                      "type": "MedicationRequest"
                  }
              ],
              "status": "unknown",
              "subject": {
                  "reference": "Patient/9e909e52-61a1-be50-1878-a12ef8c36346"
              },
              "medicationCodeableConcept": {
                  "coding": [
                      {
                          "code": "0182-1061-05",
                          "display": "ASPIRIN EC",
                          "system": "http://hl7.org/fhir/sid/ndc"
                      }
                  ]
              }
          },
          "request": {
              "method": "PUT",
              "url": "MedicationDispense/32dbe4c1-0bbc-484b-a25b-6cd25b28275d"
          }
      },
      {
          "fullUrl": "urn:uuid:52a163eb-90ba-48c4-82f3-d13ad2665faf",
          "resource": {
              "resourceType": "Organization",
              "id": "52a163eb-90ba-48c4-82f3-d13ad2665faf",
              "name": "Good Health Hospital",
              "identifier": [
                  {
                      "value": "4544",
                      "type": {
                          "coding": [
                              {
                                  "code": "XX",
                                  "system": "http://terminology.hl7.org/CodeSystem/v2-0203"
                              }
                          ]
                      }
                  }
              ]
          },
          "request": {
              "method": "PUT",
              "url": "Organization/52a163eb-90ba-48c4-82f3-d13ad2665faf"
          }
      },
      {
          "fullUrl": "urn:uuid:379abbe1-0596-62f8-5218-4f988127cd70",
          "resource": {
              "resourceType": "Organization",
              "id": "379abbe1-0596-62f8-5218-4f988127cd70",
              "name": "GOOD HEALTH HOSPITAL",
              "identifier": [
                  {
                      "value": "123456789"
                  }
              ]
          },
          "request": {
              "method": "PUT",
              "url": "Organization/379abbe1-0596-62f8-5218-4f988127cd70"
          }
      },
      {
          "fullUrl": "urn:uuid:2676707e-6e0a-3a9d-9b51-1b035b7f5f1f",
          "resource": {
              "resourceType": "Device",
              "id": "2676707e-6e0a-3a9d-9b51-1b035b7f5f1f",
              "identifier": [
                  {
                      "value": "Item-12345",
                      "system": "http://example.com/v2-to-fhir-converter/Identifier/L"
                  }
              ],
              "modelNumber": "Model-12345",
              "patient": {
                  "reference": "Patient/9e909e52-61a1-be50-1878-a12ef8c36346"
              }
          },
          "request": {
              "method": "PUT",
              "url": "Device/2676707e-6e0a-3a9d-9b51-1b035b7f5f1f"
          }
      }
  ]
}