{
  "resourceType": "Bundle",
  "type": "batch",
  "timestamp": "2021-01-15T19:35:00+05:30",
  "identifier": {
      "value": "MSG00009"
  },
  "id": "24b9dc64-92d3-2f87-ff56-c6ca7f8fa571",
  "entry": [
      {
          "fullUrl": "urn:uuid:65e8e4a5-80e5-cae2-935e-ff1f3df7c0ba",
          "resource": {
              "resourceType": "MessageHeader",
              "id": "65e8e4a5-80e5-cae2-935e-ff1f3df7c0ba",
              "source": {
                  "name": "24GHH",
                  "endpoint": "urn:oid:2.16.840.1.114884.10.20",
                  "version": "2.4.3.52854",
                  "software": "Rhapsody"
              },
              "destination": [
                  {
                      "name": "25GHH",
                      "endpoint": "urn:oid:2.16.840.1.114884.10.23",
                      "receiver": {
                          "reference": "Organization/527280c1-34d1-c639-e9ba-61986d28e266"
                      }
                  }
              ],
              "meta": {
                  "security": [
                      {
                          "display": "SECURITY"
                      }
                  ],
                  "tag": [
                      {
                          "code": "P",
                          "system": "http://terminology.hl7.org/CodeSystem/v2-0103"
                      }
                  ]
              },
              "eventCoding": {
                  "code": "A09",
                  "system": "http://terminology.hl7.org/CodeSystem/v2-0003",
                  "display": "ADT^A09^ADT_A09"
              },
              "language": "en-US",
              "sender": {
                  "reference": "Organization/4356fb81-6ecd-2d70-57b1-47812638e785"
              },
              "responsible": {
                  "reference": "Organization/33532a82-d220-4c0d-1abe-53e48951c201"
              }
          },
          "request": {
              "method": "PUT",
              "url": "MessageHeader/65e8e4a5-80e5-cae2-935e-ff1f3df7c0ba"
          }
      },
      {
          "fullUrl": "urn:uuid:aaf37d11-5d66-af8d-c286-16b46b7f9ada",
          "resource": {
              "resourceType": "Provenance",
              "id": "aaf37d11-5d66-af8d-c286-16b46b7f9ada",
              "text": {
                  "status": "generated",
                  "div": "<div xmlns=\"http://www.w3.org/1999/xhtml\"><p><span>Resource bundle generated on 2022-03-28T07:17:02.638Z using Microsoft FHIR Converter.</span><span>Template Version: TEMPLATE_VERSION_PLACEHOLDER.</span><span>Template URL: https://github.com/microsoft/FHIR-Converter/releases/download/vTEMPLATE_VERSION_PLACEHOLDER/Hl7v2DefaultTemplates.tar.gz.</span><span>Root template: ADT_A09.</span></p></div>"
              },
              "occurredDateTime": "2021-01-15T19:35:00+05:30",
              "recorded": "2021-01-15T19:35:00+05:30",
              "agent": [
                  {
                      "type": {
                          "coding": [
                              {
                                  "code": "author",
                                  "system": "http://terminology.hl7.org/CodeSystem/provenance-participant-type"
                              }
                          ]
                      },
                      "who": {
                          "reference": "Organization/33532a82-d220-4c0d-1abe-53e48951c201"
                      }
                  }
              ],
              "activity": {
                  "coding": [
                      {
                          "display": "ADT^A09^ADT_A09"
                      }
                  ]
              },
              "entity": [
                  {
                      "role": "source",
                      "what": {
                          "reference": "Device/de4a0e37-220f-608a-1333-2640637851e9"
                      }
                  }
              ],
              "target": [
                  {
                      "reference": "Bundle/24b9dc64-92d3-2f87-ff56-c6ca7f8fa571"
                  }
              ]
          },
          "request": {
              "method": "PUT",
              "url": "Provenance/aaf37d11-5d66-af8d-c286-16b46b7f9ada"
          }
      },
      {
          "fullUrl": "urn:uuid:4356fb81-6ecd-2d70-57b1-47812638e785",
          "resource": {
              "resourceType": "Organization",
              "id": "4356fb81-6ecd-2d70-57b1-47812638e785",
              "identifier": [
                  {
                      "value": "GHHSFacility",
                      "system": "http://example.com/v2-to-fhir-converter/Identifier/GHHSFacility"
                  },
                  {
                      "value": "urn:oid:2.16.840.1.122848.1.30",
                      "system": "urn:ietf:rfc:3986",
                      "type": {
                          "coding": [
                              {
                                  "code": "ISO",
                                  "display": "An International Standards Organization Object Identifier (OID), in accordance with ISO/IEC 8824. Formatted as decimal digits separated by periods; recommended limit of 64 characters",
                                  "system": "http://terminology.hl7.org/CodeSystem/v2-0301"
                              }
                          ]
                      }
                  }
              ],
              "partOf": {
                  "reference": "Organization/33532a82-d220-4c0d-1abe-53e48951c201"
              },
              "address": [
                  {
                      "country": "USA"
                  }
              ]
          },
          "request": {
              "method": "PUT",
              "url": "Organization/4356fb81-6ecd-2d70-57b1-47812638e785"
          }
      },
      {
          "fullUrl": "urn:uuid:62781ad6-3896-cb63-0178-ead0c4a432b5",
          "resource": {
              "resourceType": "Organization",
              "id": "62781ad6-3896-cb63-0178-ead0c4a432b5",
              "identifier": [
                  {
                      "value": "GHHRFacility",
                      "system": "http://example.com/v2-to-fhir-converter/Identifier/GHHRFacility"
                  },
                  {
                      "value": "urn:oid:2.16.840.1.1122848.1.32",
                      "system": "urn:ietf:rfc:3986",
                      "type": {
                          "coding": [
                              {
                                  "code": "ISO",
                                  "display": "An International Standards Organization Object Identifier (OID), in accordance with ISO/IEC 8824. Formatted as decimal digits separated by periods; recommended limit of 64 characters",
                                  "system": "http://terminology.hl7.org/CodeSystem/v2-0301"
                              }
                          ]
                      }
                  }
              ],
              "partOf": {
                  "reference": "Organization/527280c1-34d1-c639-e9ba-61986d28e266"
              },
              "address": [
                  {
                      "country": "USA"
                  }
              ]
          },
          "request": {
              "method": "PUT",
              "url": "Organization/62781ad6-3896-cb63-0178-ead0c4a432b5"
          }
      },
      {
          "fullUrl": "urn:uuid:33532a82-d220-4c0d-1abe-53e48951c201",
          "resource": {
              "resourceType": "Organization",
              "id": "33532a82-d220-4c0d-1abe-53e48951c201",
              "name": "22 GHH Inc."
          },
          "request": {
              "method": "PUT",
              "url": "Organization/33532a82-d220-4c0d-1abe-53e48951c201"
          }
      },
      {
          "fullUrl": "urn:uuid:527280c1-34d1-c639-e9ba-61986d28e266",
          "resource": {
              "resourceType": "Organization",
              "id": "527280c1-34d1-c639-e9ba-61986d28e266",
              "name": "23 GHH Inc."
          },
          "request": {
              "method": "PUT",
              "url": "Organization/527280c1-34d1-c639-e9ba-61986d28e266"
          }
      },
      {
          "fullUrl": "urn:uuid:de4a0e37-220f-608a-1333-2640637851e9",
          "resource": {
              "resourceType": "Device",
              "id": "de4a0e37-220f-608a-1333-2640637851e9",
              "identifier": [
                  {
                      "value": "ADT1"
                  }
              ]
          },
          "request": {
              "method": "PUT",
              "url": "Device/de4a0e37-220f-608a-1333-2640637851e9"
          }
      },
      {
          "fullUrl": "urn:uuid:4b549918-a84d-cdaf-e150-c773a5d306e5",
          "resource": {
              "resourceType": "Device",
              "id": "4b549918-a84d-cdaf-e150-c773a5d306e5",
              "manufacturer": "Orion Health",
              "deviceName": [
                  {
                      "name": "Rhapsody",
                      "type": "manufacturer-name"
                  }
              ],
              "version": [
                  {
                      "value": "2.4.3.52854"
                  }
              ],
              "modelNumber": "2.4.3.52854",
              "note": [
                  {
                      "text": "RAP234 Text"
                  }
              ]
          },
          "request": {
              "method": "PUT",
              "url": "Device/4b549918-a84d-cdaf-e150-c773a5d306e5"
          }
      },
      {
          "fullUrl": "urn:uuid:d5fe6802-a680-e762-8f43-9659340b00ac",
          "resource": {
              "resourceType": "Patient",
              "id": "d5fe6802-a680-e762-8f43-9659340b00ac",
              "identifier": [
                  {
                      "value": "PATID1234",
                      "type": {
                          "coding": [
                              {
                                  "code": "GOOD HEALTH HOSPITAL",
                                  "display": "GOOD HEALTH HOSPITAL"
                              }
                          ]
                      },
                      "system": "http://example.com/v2-to-fhir-converter/Identifier/ADT1"
                  },
                  {
                      "value": "123456789"
                  },
                  {
                      "value": "220917255",
                      "type": {
                          "coding": [
                              {
                                  "code": "SB",
                                  "system": "http://terminology.hl7.org/CodeSystem/v2-0203"
                              }
                          ]
                      },
                      "system": "http://hl7.org/fhir/sid/us-ssn"
                  },
                  {
                      "value": "DL",
                      "type": {
                          "coding": [
                              {
                                  "code": "DL"
                              }
                          ]
                      },
                      "system": "http://example.com/v2-to-fhir-converter/CodeSystem/T05349638"
                  },
                  {
                      "value": "DB1456"
                  }
              ],
              "name": [
                  {
                      "family": "EVERYMAN",
                      "given": [
                          "ADAM",
                          "A"
                      ],
                      "suffix": [
                          "III"
                      ]
                  },
                  {
                      "family": "SMITH",
                      "given": [
                          "JOHN"
                      ]
                  }
              ],
              "birthDate": "1961-06-15",
              "gender": "male",
              "address": [
                  {
                      "line": [
                          "115 MAINSTREET"
                      ],
                      "city": "GOODTOWN",
                      "state": "KY",
                      "postalCode": "42010",
                      "country": "USA"
                  }
              ],
              "telecom": [
                  {
                      "use": "home",
                      "system": "phone"
                  },
                  {
                      "value": "89898989",
                      "use": "work",
                      "system": "email"
                  }
              ],
              "communication": [
                  {
                      "language": {
                          "coding": [
                              {
                                  "code": "EN",
                                  "display": "ENGLISH",
                                  "system": "http://example.com/v2-to-fhir-converter/CodeSystem/HL70296"
                              }
                          ]
                      },
                      "preferred": true
                  }
              ],
              "maritalStatus": {
                  "coding": [
                      {
                          "code": "M",
                          "display": "Married",
                          "system": "http://terminology.hl7.org/CodeSystem/v3-MaritalStatus"
                      }
                  ]
              },
              "multipleBirthInteger": 1,
              "deceasedBoolean": false,
              "meta": {
                  "lastUpdated": "2021-01-10T04:05:14+05:30"
              },
              "active": true,
              "generalPractitioner": [
                  {
                      "reference": "Organization/719266ca-c272-9569-a797-c0b3fe3b2c91"
                  },
                  {
                      "reference": "Practitioner/864cd641-6bf0-9def-ae05-da0239bb20a7"
                  }
              ],
              "extension": [
                  {
                      "url": "http://hl7.org/fhir/us/core/StructureDefinition/us-core-race",
                      "extension": [
                          {
                              "url": "ombCategory",
                              "valueCoding": {
                                  "code": "2106-3",
                                  "display": "White",
                                  "system": "urn:oid:2.16.840.1.113883.6.238"
                              }
                          },
                          {
                              "url": "text",
                              "valueString": "White"
                          }
                      ]
                  },
                  {
                      "url": "http://hl7.org/fhir/StructureDefinition/patient-mothersMaidenName",
                      "valueString": "Davis"
                  },
                  {
                      "url": "http://hl7.org/fhir/StructureDefinition/patient-birthPlace",
                      "valueAddress": {
                          "text": "St. Francis Community Hospital of Lower South Side"
                      }
                  },
                  {
                      "url": "http://hl7.org/fhir/StructureDefinition/patient-religion",
                      "valueCodeableConcept": {
                          "coding": [
                              {
                                  "code": "1009",
                                  "display": "Baptist",
                                  "system": "http://terminology.hl7.org/CodeSystem/v3-ReligiousAffiliation"
                              }
                          ]
                      }
                  },
                  {
                      "url": "http://hl7.org/fhir/us/core/StructureDefinition/us-core-ethnicity",
                      "extension": [
                          {
                              "url": "ombCategory",
                              "valueCoding": {
                                  "code": "2186-5",
                                  "display": "Non Hispanic or Latino",
                                  "system": "urn:oid:2.16.840.1.113883.6.238"
                              }
                          },
                          {
                              "url": "text",
                              "valueString": "Non Hispanic or Latino"
                          }
                      ]
                  },
                  {
                      "url": "http://hl7.org/fhir/StructureDefinition/patient-citizenship",
                      "extension": [
                          {
                              "url": "code",
                              "valueCodeableConcept": {
                                  "coding": [
                                      {
                                          "code": "US",
                                          "display": "United States of America",
                                          "system": "urn:iso:std:iso:3166"
                                      }
                                  ],
                                  "text": "United States of America"
                              }
                          }
                      ]
                  },
                  {
                      "url": "http://hl7.org/fhir/StructureDefinition/patient-congregation",
                      "valueString": "Church"
                  },
                  {
                      "url": "http://example.com/v2-to-fhir-converter/StructureDefinition/patient-disabilityIndicator",
                      "valueBoolean": true
                  },
                  {
                      "url": "http://example.com/v2-to-fhir-converter/StructureDefinition/DisabilityPeriod",
                      "valuePeriod": {
                          "start": "2021-08-30",
                          "end": "2021-09-30"
                      }
                  }
              ]
          },
          "request": {
              "method": "PUT",
              "url": "Patient/d5fe6802-a680-e762-8f43-9659340b00ac"
          }
      },
      {
          "fullUrl": "urn:uuid:4d89d103-815b-6284-c821-c995368a2aeb",
          "resource": {
              "resourceType": "Account",
              "id": "4d89d103-815b-6284-c821-c995368a2aeb",
              "identifier": [
                  {
                      "value": "PACCT110"
                  }
              ],
              "status": "active",
              "subject": [
                  {
                      "reference": "Patient/d5fe6802-a680-e762-8f43-9659340b00ac"
                  }
              ]
          },
          "request": {
              "method": "PUT",
              "url": "Account/4d89d103-815b-6284-c821-c995368a2aeb"
          }
      },
      {
          "fullUrl": "urn:uuid:719266ca-c272-9569-a797-c0b3fe3b2c91",
          "resource": {
              "resourceType": "Organization",
              "id": "719266ca-c272-9569-a797-c0b3fe3b2c91",
              "name": "LINDAS TEST ORGANIZATION",
              "identifier": [
                  {
                      "value": "SIISCLIENT818"
                  }
              ]
          },
          "request": {
              "method": "PUT",
              "url": "Organization/719266ca-c272-9569-a797-c0b3fe3b2c91"
          }
      },
      {
          "fullUrl": "urn:uuid:864cd641-6bf0-9def-ae05-da0239bb20a7",
          "resource": {
              "resourceType": "Practitioner",
              "id": "864cd641-6bf0-9def-ae05-da0239bb20a7",
              "identifier": [
                  {
                      "type": {
                          "coding": [
                              {
                                  "code": "MR",
                                  "display": "Medical record number",
                                  "system": "http://terminology.hl7.org/CodeSystem/v2-0203"
                              }
                          ]
                      }
                  }
              ]
          },
          "request": {
              "method": "PUT",
              "url": "Practitioner/864cd641-6bf0-9def-ae05-da0239bb20a7"
          }
      },
      {
          "fullUrl": "urn:uuid:d00df304-17fa-8d9a-bd02-3276b1781ea1",
          "resource": {
              "resourceType": "Practitioner",
              "id": "d00df304-17fa-8d9a-bd02-3276b1781ea1",
              "identifier": [
                  {
                      "value": "0210"
                  }
              ],
              "name": [
                  {
                      "family": "ATTEND",
                      "given": [
                          "AARON",
                          "A"
                      ]
                  }
              ]
          },
          "request": {
              "method": "PUT",
              "url": "Practitioner/d00df304-17fa-8d9a-bd02-3276b1781ea1"
          }
      },
      {
          "fullUrl": "urn:uuid:21d5ab8b-8f3d-4fd9-f1c4-6f32568b0ae9",
          "resource": {
              "resourceType": "Practitioner",
              "id": "21d5ab8b-8f3d-4fd9-f1c4-6f32568b0ae9",
              "identifier": [
                  {
                      "value": "0310"
                  }
              ],
              "name": [
                  {
                      "family": "REFER",
                      "given": [
                          "LINDA",
                          "C"
                      ]
                  }
              ]
          },
          "request": {
              "method": "PUT",
              "url": "Practitioner/21d5ab8b-8f3d-4fd9-f1c4-6f32568b0ae9"
          }
      },
      {
          "fullUrl": "urn:uuid:43abcbc7-4a4f-99f7-0ac9-06d5d45f2df5",
          "resource": {
              "resourceType": "Practitioner",
              "id": "43abcbc7-4a4f-99f7-0ac9-06d5d45f2df5",
              "identifier": [
                  {
                      "value": "005454"
                  }
              ],
              "name": [
                  {
                      "family": "REFSRC",
                      "given": [
                          "ROBIN",
                          "B"
                      ]
                  }
              ]
          },
          "request": {
              "method": "PUT",
              "url": "Practitioner/43abcbc7-4a4f-99f7-0ac9-06d5d45f2df5"
          }
      },
      {
          "fullUrl": "urn:uuid:35adcab7-4732-0b72-7258-0f25e82119b3",
          "resource": {
              "resourceType": "Location",
              "id": "35adcab7-4732-0b72-7258-0f25e82119b3",
              "partOf": {
                  "reference": "Location/8759124b-b400-2c7c-ed89-3c87d62dc39f"
              },
              "name": "OT",
              "mode": "instance",
              "description": "OT--ROOM1--FACILITY1--BUILDING1--FLOOR10",
              "physicalType": {
                  "coding": [
                      {
                          "system": "http://terminology.hl7.org/CodeSystem/location-physical-type",
                          "code": "lvl"
                      }
                  ]
              }
          },
          "request": {
              "method": "PUT",
              "url": "Location/35adcab7-4732-0b72-7258-0f25e82119b3"
          }
      },
      {
          "fullUrl": "urn:uuid:0b53b18d-b8e9-fa73-5cef-791516486b01",
          "resource": {
              "resourceType": "Location",
              "id": "0b53b18d-b8e9-fa73-5cef-791516486b01",
              "partOf": {
                  "reference": "Location/35adcab7-4732-0b72-7258-0f25e82119b3"
              },
              "name": "ROOM1",
              "mode": "instance",
              "description": "OT--ROOM1--FACILITY1--BUILDING1--FLOOR10",
              "physicalType": {
                  "coding": [
                      {
                          "system": "http://terminology.hl7.org/CodeSystem/location-physical-type",
                          "code": "ro"
                      }
                  ]
              }
          },
          "request": {
              "method": "PUT",
              "url": "Location/0b53b18d-b8e9-fa73-5cef-791516486b01"
          }
      },
      {
          "fullUrl": "urn:uuid:514c636a-eb10-42c0-24ff-f40b4f9bfcbf",
          "resource": {
              "resourceType": "Location",
              "id": "514c636a-eb10-42c0-24ff-f40b4f9bfcbf",
              "name": "FACILITY1",
              "mode": "instance",
              "description": "OT--ROOM1--FACILITY1--BUILDING1--FLOOR10",
              "physicalType": {
                  "coding": [
                      {
                          "system": "http://terminology.hl7.org/CodeSystem/location-physical-type",
                          "code": "si"
                      }
                  ]
              }
          },
          "request": {
              "method": "PUT",
              "url": "Location/514c636a-eb10-42c0-24ff-f40b4f9bfcbf"
          }
      },
      {
          "fullUrl": "urn:uuid:5b9159a5-2b24-709e-5666-503e5efc9c27",
          "resource": {
              "resourceType": "Location",
              "id": "5b9159a5-2b24-709e-5666-503e5efc9c27",
              "partOf": {
                  "reference": "Location/514c636a-eb10-42c0-24ff-f40b4f9bfcbf"
              },
              "name": "BUILDING1",
              "mode": "instance",
              "description": "OT--ROOM1--FACILITY1--BUILDING1--FLOOR10",
              "physicalType": {
                  "coding": [
                      {
                          "system": "http://terminology.hl7.org/CodeSystem/location-physical-type",
                          "code": "bu"
                      }
                  ]
              }
          },
          "request": {
              "method": "PUT",
              "url": "Location/5b9159a5-2b24-709e-5666-503e5efc9c27"
          }
      },
      {
          "fullUrl": "urn:uuid:8759124b-b400-2c7c-ed89-3c87d62dc39f",
          "resource": {
              "resourceType": "Location",
              "id": "8759124b-b400-2c7c-ed89-3c87d62dc39f",
              "partOf": {
                  "reference": "Location/5b9159a5-2b24-709e-5666-503e5efc9c27"
              },
              "name": "FLOOR10",
              "mode": "instance",
              "description": "OT--ROOM1--FACILITY1--BUILDING1--FLOOR10",
              "physicalType": {
                  "coding": [
                      {
                          "system": "http://terminology.hl7.org/CodeSystem/location-physical-type",
                          "code": "lvl"
                      }
                  ]
              }
          },
          "request": {
              "method": "PUT",
              "url": "Location/8759124b-b400-2c7c-ed89-3c87d62dc39f"
          }
      },
      {
          "fullUrl": "urn:uuid:ec4efd8d-9c6b-130d-f105-b93e51d61c87",
          "resource": {
              "resourceType": "Location",
              "id": "ec4efd8d-9c6b-130d-f105-b93e51d61c87",
              "partOf": {
                  "reference": "Location/7522983b-4d60-e6a0-7c39-b011f49d586f"
              },
              "name": "GENROOM",
              "mode": "instance",
              "description": "GENROOM--ROOM-2--BED-24--FACILITY-1--BUILDING-1--FLOOR-1",
              "physicalType": {
                  "coding": [
                      {
                          "system": "http://terminology.hl7.org/CodeSystem/location-physical-type",
                          "code": "lvl"
                      }
                  ]
              }
          },
          "request": {
              "method": "PUT",
              "url": "Location/ec4efd8d-9c6b-130d-f105-b93e51d61c87"
          }
      },
      {
          "fullUrl": "urn:uuid:78ac69f3-fe8e-b992-b7d9-0475de418307",
          "resource": {
              "resourceType": "Location",
              "id": "78ac69f3-fe8e-b992-b7d9-0475de418307",
              "partOf": {
                  "reference": "Location/ec4efd8d-9c6b-130d-f105-b93e51d61c87"
              },
              "name": "ROOM-2",
              "mode": "instance",
              "description": "GENROOM--ROOM-2--BED-24--FACILITY-1--BUILDING-1--FLOOR-1",
              "physicalType": {
                  "coding": [
                      {
                          "system": "http://terminology.hl7.org/CodeSystem/location-physical-type",
                          "code": "ro"
                      }
                  ]
              }
          },
          "request": {
              "method": "PUT",
              "url": "Location/78ac69f3-fe8e-b992-b7d9-0475de418307"
          }
      },
      {
          "fullUrl": "urn:uuid:d109a356-3f03-46fd-5b8e-e82ba58c212e",
          "resource": {
              "resourceType": "Location",
              "id": "d109a356-3f03-46fd-5b8e-e82ba58c212e",
              "partOf": {
                  "reference": "Location/78ac69f3-fe8e-b992-b7d9-0475de418307"
              },
              "name": "BED-24",
              "mode": "instance",
              "description": "GENROOM--ROOM-2--BED-24--FACILITY-1--BUILDING-1--FLOOR-1",
              "physicalType": {
                  "coding": [
                      {
                          "system": "http://terminology.hl7.org/CodeSystem/location-physical-type",
                          "code": "bd"
                      }
                  ]
              }
          },
          "request": {
              "method": "PUT",
              "url": "Location/d109a356-3f03-46fd-5b8e-e82ba58c212e"
          }
      },
      {
          "fullUrl": "urn:uuid:fbe3ab28-6c2c-62e1-5c20-0c79bfdb7053",
          "resource": {
              "resourceType": "Location",
              "id": "fbe3ab28-6c2c-62e1-5c20-0c79bfdb7053",
              "name": "FACILITY-1",
              "mode": "instance",
              "description": "GENROOM--ROOM-2--BED-24--FACILITY-1--BUILDING-1--FLOOR-1",
              "physicalType": {
                  "coding": [
                      {
                          "system": "http://terminology.hl7.org/CodeSystem/location-physical-type",
                          "code": "si"
                      }
                  ]
              }
          },
          "request": {
              "method": "PUT",
              "url": "Location/fbe3ab28-6c2c-62e1-5c20-0c79bfdb7053"
          }
      },
      {
          "fullUrl": "urn:uuid:dea8b100-9d7f-df7f-d914-2b4d74e44a81",
          "resource": {
              "resourceType": "Location",
              "id": "dea8b100-9d7f-df7f-d914-2b4d74e44a81",
              "partOf": {
                  "reference": "Location/fbe3ab28-6c2c-62e1-5c20-0c79bfdb7053"
              },
              "name": "BUILDING-1",
              "mode": "instance",
              "description": "GENROOM--ROOM-2--BED-24--FACILITY-1--BUILDING-1--FLOOR-1",
              "physicalType": {
                  "coding": [
                      {
                          "system": "http://terminology.hl7.org/CodeSystem/location-physical-type",
                          "code": "bu"
                      }
                  ]
              }
          },
          "request": {
              "method": "PUT",
              "url": "Location/dea8b100-9d7f-df7f-d914-2b4d74e44a81"
          }
      },
      {
          "fullUrl": "urn:uuid:7522983b-4d60-e6a0-7c39-b011f49d586f",
          "resource": {
              "resourceType": "Location",
              "id": "7522983b-4d60-e6a0-7c39-b011f49d586f",
              "partOf": {
                  "reference": "Location/dea8b100-9d7f-df7f-d914-2b4d74e44a81"
              },
              "name": "FLOOR-1",
              "mode": "instance",
              "description": "GENROOM--ROOM-2--BED-24--FACILITY-1--BUILDING-1--FLOOR-1",
              "physicalType": {
                  "coding": [
                      {
                          "system": "http://terminology.hl7.org/CodeSystem/location-physical-type",
                          "code": "lvl"
                      }
                  ]
              }
          },
          "request": {
              "method": "PUT",
              "url": "Location/7522983b-4d60-e6a0-7c39-b011f49d586f"
          }
      },
      {
          "fullUrl": "urn:uuid:f609ba06-25b2-d148-fd8e-4435503b02bc",
          "resource": {
              "resourceType": "Location",
              "id": "f609ba06-25b2-d148-fd8e-4435503b02bc",
              "partOf": {
                  "reference": "Location/0a09cc71-2d38-5c29-9d29-abe93044b29a"
              },
              "name": "OTWAITROOM",
              "mode": "instance",
              "description": "OTWAITROOM--ROOM11--FACI-1--BUILD-1--FL-10",
              "physicalType": {
                  "coding": [
                      {
                          "system": "http://terminology.hl7.org/CodeSystem/location-physical-type",
                          "code": "lvl"
                      }
                  ]
              }
          },
          "request": {
              "method": "PUT",
              "url": "Location/f609ba06-25b2-d148-fd8e-4435503b02bc"
          }
      },
      {
          "fullUrl": "urn:uuid:f233f087-28b1-1577-4262-84951e6eaa99",
          "resource": {
              "resourceType": "Location",
              "id": "f233f087-28b1-1577-4262-84951e6eaa99",
              "partOf": {
                  "reference": "Location/f609ba06-25b2-d148-fd8e-4435503b02bc"
              },
              "name": "ROOM11",
              "mode": "instance",
              "description": "OTWAITROOM--ROOM11--FACI-1--BUILD-1--FL-10",
              "physicalType": {
                  "coding": [
                      {
                          "system": "http://terminology.hl7.org/CodeSystem/location-physical-type",
                          "code": "ro"
                      }
                  ]
              }
          },
          "request": {
              "method": "PUT",
              "url": "Location/f233f087-28b1-1577-4262-84951e6eaa99"
          }
      },
      {
          "fullUrl": "urn:uuid:4c8262e4-0887-f93a-9e5e-7b5a52c82dc0",
          "resource": {
              "resourceType": "Location",
              "id": "4c8262e4-0887-f93a-9e5e-7b5a52c82dc0",
              "name": "FACI-1",
              "mode": "instance",
              "description": "OTWAITROOM--ROOM11--FACI-1--BUILD-1--FL-10",
              "physicalType": {
                  "coding": [
                      {
                          "system": "http://terminology.hl7.org/CodeSystem/location-physical-type",
                          "code": "si"
                      }
                  ]
              }
          },
          "request": {
              "method": "PUT",
              "url": "Location/4c8262e4-0887-f93a-9e5e-7b5a52c82dc0"
          }
      },
      {
          "fullUrl": "urn:uuid:72c6bc91-99c5-c49e-ba4a-f4911d2737c9",
          "resource": {
              "resourceType": "Location",
              "id": "72c6bc91-99c5-c49e-ba4a-f4911d2737c9",
              "partOf": {
                  "reference": "Location/4c8262e4-0887-f93a-9e5e-7b5a52c82dc0"
              },
              "name": "BUILD-1",
              "mode": "instance",
              "description": "OTWAITROOM--ROOM11--FACI-1--BUILD-1--FL-10",
              "physicalType": {
                  "coding": [
                      {
                          "system": "http://terminology.hl7.org/CodeSystem/location-physical-type",
                          "code": "bu"
                      }
                  ]
              }
          },
          "request": {
              "method": "PUT",
              "url": "Location/72c6bc91-99c5-c49e-ba4a-f4911d2737c9"
          }
      },
      {
          "fullUrl": "urn:uuid:0a09cc71-2d38-5c29-9d29-abe93044b29a",
          "resource": {
              "resourceType": "Location",
              "id": "0a09cc71-2d38-5c29-9d29-abe93044b29a",
              "partOf": {
                  "reference": "Location/72c6bc91-99c5-c49e-ba4a-f4911d2737c9"
              },
              "name": "FL-10",
              "mode": "instance",
              "description": "OTWAITROOM--ROOM11--FACI-1--BUILD-1--FL-10",
              "physicalType": {
                  "coding": [
                      {
                          "system": "http://terminology.hl7.org/CodeSystem/location-physical-type",
                          "code": "lvl"
                      }
                  ]
              }
          },
          "request": {
              "method": "PUT",
              "url": "Location/0a09cc71-2d38-5c29-9d29-abe93044b29a"
          }
      },
      {
          "fullUrl": "urn:uuid:133d7f97-7f18-598b-353d-d08dc649c1eb",
          "resource": {
              "resourceType": "Location",
              "id": "133d7f97-7f18-598b-353d-d08dc649c1eb",
              "name": "RM1",
              "identifier": [
                  {
                      "value": "urn:oid:2.16.840.1.113883.4.642.1.1108",
                      "system": "urn:ietf:rfc:3986"
                  }
              ],
              "mode": "instance",
              "description": "RM1--2.16.840.1.113883.4.642.1.1108--ISO--F1--B1--F10",
              "physicalType": {
                  "coding": [
                      {
                          "system": "http://terminology.hl7.org/CodeSystem/location-physical-type",
                          "code": "ro"
                      }
                  ]
              }
          },
          "request": {
              "method": "PUT",
              "url": "Location/133d7f97-7f18-598b-353d-d08dc649c1eb"
          }
      },
      {
          "fullUrl": "urn:uuid:092b8e53-17db-2b11-dbb7-78cda48f6bc5",
          "resource": {
              "resourceType": "Location",
              "id": "092b8e53-17db-2b11-dbb7-78cda48f6bc5",
              "name": "F1",
              "mode": "instance",
              "description": "RM1--2.16.840.1.113883.4.642.1.1108--ISO--F1--B1--F10",
              "physicalType": {
                  "coding": [
                      {
                          "system": "http://terminology.hl7.org/CodeSystem/location-physical-type",
                          "code": "si"
                      }
                  ]
              }
          },
          "request": {
              "method": "PUT",
              "url": "Location/092b8e53-17db-2b11-dbb7-78cda48f6bc5"
          }
      },
      {
          "fullUrl": "urn:uuid:30d7f79b-0b0f-0acc-2292-d84eb8c66813",
          "resource": {
              "resourceType": "Location",
              "id": "30d7f79b-0b0f-0acc-2292-d84eb8c66813",
              "partOf": {
                  "reference": "Location/092b8e53-17db-2b11-dbb7-78cda48f6bc5"
              },
              "name": "B1",
              "mode": "instance",
              "description": "RM1--2.16.840.1.113883.4.642.1.1108--ISO--F1--B1--F10",
              "physicalType": {
                  "coding": [
                      {
                          "system": "http://terminology.hl7.org/CodeSystem/location-physical-type",
                          "code": "bu"
                      }
                  ]
              }
          },
          "request": {
              "method": "PUT",
              "url": "Location/30d7f79b-0b0f-0acc-2292-d84eb8c66813"
          }
      },
      {
          "fullUrl": "urn:uuid:d10aa972-edf2-8c56-5618-d650f51e4d6b",
          "resource": {
              "resourceType": "Location",
              "id": "d10aa972-edf2-8c56-5618-d650f51e4d6b",
              "partOf": {
                  "reference": "Location/30d7f79b-0b0f-0acc-2292-d84eb8c66813"
              },
              "name": "F10",
              "mode": "instance",
              "description": "RM1--2.16.840.1.113883.4.642.1.1108--ISO--F1--B1--F10",
              "physicalType": {
                  "coding": [
                      {
                          "system": "http://terminology.hl7.org/CodeSystem/location-physical-type",
                          "code": "lvl"
                      }
                  ]
              }
          },
          "request": {
              "method": "PUT",
              "url": "Location/d10aa972-edf2-8c56-5618-d650f51e4d6b"
          }
      },
      {
          "fullUrl": "urn:uuid:19f93d0c-778a-6a5d-4816-504675827c1e",
          "resource": {
              "resourceType": "Encounter",
              "id": "19f93d0c-778a-6a5d-4816-504675827c1e",
              "class": {
                  "code": "IMP",
                  "display": "inpatient encounter",
                  "system": "http://terminology.hl7.org/CodeSystem/v3-ActCode"
              },
              "status": "in-progress",
              "location": [
                  {
                      "status": "active",
                      "location": {
                          "reference": "Location/35adcab7-4732-0b72-7258-0f25e82119b3"
                      }
                  },
                  {
                      "status": "completed",
                      "location": {
                          "reference": "Location/ec4efd8d-9c6b-130d-f105-b93e51d61c87"
                      }
                  },
                  {
                      "status": "planned",
                      "location": {
                          "reference": "Location/f609ba06-25b2-d148-fd8e-4435503b02bc"
                      },
                      "extension": [
                          {
                              "url": "http://hl7.org/fhir/uv/v2mappings/StructureDefinition/temporary-location",
                              "valueBoolean": true
                          }
                      ]
                  },
                  {
                      "status": "planned",
                      "location": {
                          "reference": "Location/133d7f97-7f18-598b-353d-d08dc649c1eb"
                      }
                  }
              ],
              "participant": [
                  {
                      "type": [
                          {
                              "coding": [
                                  {
                                      "code": "ATND",
                                      "system": "http://terminology.hl7.org/CodeSystem/v3-ParticipationType",
                                      "display": "attender"
                                  }
                              ]
                          }
                      ],
                      "individual": {
                          "reference": "Practitioner/d00df304-17fa-8d9a-bd02-3276b1781ea1"
                      }
                  },
                  {
                      "type": [
                          {
                              "coding": [
                                  {
                                      "code": "REF",
                                      "system": "http://terminology.hl7.org/CodeSystem/v3-ParticipationType"
                                  }
                              ],
                              "text": "referrer"
                          }
                      ],
                      "individual": {
                          "reference": "Practitioner/21d5ab8b-8f3d-4fd9-f1c4-6f32568b0ae9"
                      }
                  },
                  {
                      "type": [
                          {
                              "coding": [
                                  {
                                      "code": "REF",
                                      "system": "http://terminology.hl7.org/CodeSystem/v3-ParticipationType"
                                  }
                              ],
                              "text": "referrer"
                          }
                      ],
                      "individual": {
                          "reference": "Practitioner/43abcbc7-4a4f-99f7-0ac9-06d5d45f2df5"
                      }
                  }
              ],
              "identifier": [
                  {
                      "value": "5001",
                      "system": "http://example.com/v2-to-fhir-converter/Identifier/AccMgr",
                      "type": {
                          "coding": [
                              {
                                  "code": "VN",
                                  "system": "http://terminology.hl7.org/CodeSystem/v2-0203"
                              }
                          ],
                          "text": "visit number"
                      }
                  }
              ],
              "period": {
                  "start": "2021-01-15T20:20:10+05:30"
              },
              "reasonCode": [
                  {
                      "coding": [
                          {
                              "code": "140004",
                              "display": "Chronic pharyngitis",
                              "system": "http://example.com/v2-to-fhir-converter/CodeSystem/sct"
                          }
                      ]
                  }
              ],
              "text": {
                  "status": "generated",
                  "div": "<div xmlns=\"http://www.w3.org/1999/xhtml\"><p><span>Visit Description: </span></p></div>"
              },
              "account": [
                  {
                      "reference": "Account/4d89d103-815b-6284-c821-c995368a2aeb"
                  }
              ],
              "subject": {
                  "reference": "Patient/d5fe6802-a680-e762-8f43-9659340b00ac"
              }
          },
          "request": {
              "method": "PUT",
              "url": "Encounter/19f93d0c-778a-6a5d-4816-504675827c1e"
          }
      },
      {
          "fullUrl": "urn:uuid:bffeceee-c43b-5971-a8f9-662a4a9ea710",
          "resource": {
              "resourceType": "Provenance",
              "id": "bffeceee-c43b-5971-a8f9-662a4a9ea710",
              "occurredDateTime": "2021-01-15T20:20:10+05:30",
              "recorded": "2021-01-15T20:20:10+05:30",
              "reason": [
                  {
                      "coding": [
                          {
                              "code": "HOPERAT",
                              "display": "healthcare operations",
                              "system": "http://terminology.hl7.org/CodeSystem/v3-ActReason"
                          }
                      ]
                  }
              ],
              "agent": [
                  {
                      "who": {
                          "reference": "Practitioner/6c9ea0f5-1b45-04f9-e07d-bae5096b7a4a"
                      }
                  }
              ],
              "activity": {
                  "text": "ADT^A09^ADT_A09"
              },
              "location": {
                  "reference": "Location/9b7cb9bd-a061-04d1-4757-24dbda8f72b2"
              },
              "target": [
                  {
                      "reference": "Bundle/24b9dc64-92d3-2f87-ff56-c6ca7f8fa571"
                  }
              ]
          },
          "request": {
              "method": "PUT",
              "url": "Provenance/bffeceee-c43b-5971-a8f9-662a4a9ea710"
          }
      },
      {
          "fullUrl": "urn:uuid:df03b003-6818-1abd-209e-0889025aad16",
          "resource": {
              "resourceType": "Organization",
              "id": "df03b003-6818-1abd-209e-0889025aad16",
              "identifier": [
                  {
                      "value": "NPIID",
                      "system": "http://example.com/v2-to-fhir-converter/Identifier/NPIID"
                  },
                  {
                      "value": "urn:oid:2.16.840.1.113883.4.6",
                      "system": "urn:ietf:rfc:3986",
                      "type": {
                          "coding": [
                              {
                                  "code": "ISO",
                                  "display": "An International Standards Organization Object Identifier (OID), in accordance with ISO/IEC 8824. Formatted as decimal digits separated by periods; recommended limit of 64 characters",
                                  "system": "http://terminology.hl7.org/CodeSystem/v2-0301"
                              }
                          ]
                      }
                  }
              ]
          },
          "request": {
              "method": "PUT",
              "url": "Organization/df03b003-6818-1abd-209e-0889025aad16"
          }
      },
      {
          "fullUrl": "urn:uuid:6c9ea0f5-1b45-04f9-e07d-bae5096b7a4a",
          "resource": {
              "resourceType": "Practitioner",
              "id": "6c9ea0f5-1b45-04f9-e07d-bae5096b7a4a",
              "identifier": [
                  {
                      "value": "9941339108",
                      "system": "urn:oid:2.16.840.1.113883.4.6",
                      "assigner": {
                          "reference": "Organization/df03b003-6818-1abd-209e-0889025aad16"
                      },
                      "type": {
                          "coding": [
                              {
                                  "code": "NPI",
                                  "display": "National provider identifier",
                                  "system": "http://terminology.hl7.org/CodeSystem/v2-0203"
                              }
                          ]
                      }
                  }
              ],
              "name": [
                  {
                      "family": "Smith",
                      "given": [
                          "Adam",
                          "Mellie"
                      ],
                      "suffix": [
                          "Jr",
                          "MD",
                          "GP"
                      ],
                      "prefix": [
                          "Dr"
                      ],
                      "use": "official",
                      "period": {
                          "start": "2010-01-15T20:20:10+05:30",
                          "end": "2020-01-15T20:20:10+05:30"
                      }
                  }
              ]
          },
          "request": {
              "method": "PUT",
              "url": "Practitioner/6c9ea0f5-1b45-04f9-e07d-bae5096b7a4a"
          }
      },
      {
          "fullUrl": "urn:uuid:9b7cb9bd-a061-04d1-4757-24dbda8f72b2",
          "resource": {
              "resourceType": "Location",
              "id": "9b7cb9bd-a061-04d1-4757-24dbda8f72b2",
              "name": "Good Health Hospital",
              "identifier": [
                  {
                      "value": "urn:oid:1.3.6.1.4.1.44750.1.4",
                      "system": "urn:ietf:rfc:3986"
                  }
              ],
              "physicalType": {
                  "coding": [
                      {
                          "code": "si",
                          "display": "site",
                          "system": "http://terminology.hl7.org/CodeSystem/location-physical-type"
                      }
                  ]
              }
          },
          "request": {
              "method": "PUT",
              "url": "Location/9b7cb9bd-a061-04d1-4757-24dbda8f72b2"
          }
      },
      {
          "fullUrl": "urn:uuid:c617f6ba-843a-e58a-f573-72f341e608d3",
          "resource": {
              "resourceType": "Practitioner",
              "id": "c617f6ba-843a-e58a-f573-72f341e608d3",
              "identifier": [
                  {
                      "type": {
                          "coding": [
                              {
                                  "code": "Research Park"
                              }
                          ]
                      }
                  }
              ]
          },
          "request": {
              "method": "PUT",
              "url": "Practitioner/c617f6ba-843a-e58a-f573-72f341e608d3"
          }
      },
      {
          "fullUrl": "urn:uuid:c30de4cb-ad91-c3b8-b7d6-918c0effbbda",
          "resource": {
              "resourceType": "PractitionerRole",
              "id": "c30de4cb-ad91-c3b8-b7d6-918c0effbbda",
              "code": [
                  {
                      "coding": [
                          {
                              "code": "MDIR",
                              "display": "Medical Director",
                              "system": "http://terminology.hl7.org/CodeSystem/v2-0443"
                          }
                      ]
                  }
              ],
              "practitioner": {
                  "reference": "Practitioner/c617f6ba-843a-e58a-f573-72f341e608d3"
              },
              "organization": {
                  "reference": "Organization/a5f89225-9b37-737d-9b70-c9cf83668801"
              }
          },
          "request": {
              "method": "PUT",
              "url": "PractitionerRole/c30de4cb-ad91-c3b8-b7d6-918c0effbbda"
          }
      },
      {
          "fullUrl": "urn:uuid:a5f89225-9b37-737d-9b70-c9cf83668801",
          "resource": {
              "resourceType": "Organization",
              "id": "a5f89225-9b37-737d-9b70-c9cf83668801",
              "name": "Good Health Hospital"
          },
          "request": {
              "method": "PUT",
              "url": "Organization/a5f89225-9b37-737d-9b70-c9cf83668801"
          }
      },
      {
          "fullUrl": "urn:uuid:51083bfe-8942-8cc3-d9ac-f2b4cd18de54",
          "resource": {
              "resourceType": "Observation",
              "id": "51083bfe-8942-8cc3-d9ac-f2b4cd18de54",
              "status": "final",
              "code": {
                  "coding": [
                      {
                          "code": "8867-4",
                          "display": "heart rate",
                          "system": "http://loinc.org"
                      }
                  ]
              },
              "valueQuantity": {
                  "value": 44,
                  "code": "beats/min",
                  "system": "urn:iso:std:iso:3986"
              },
              "referenceRange": [
                  {
                      "text": "70-80"
                  }
              ],
              "effectiveDateTime": "1999-07-02",
              "performer": [
                  {
                      "reference": "PractitionerRole/c30de4cb-ad91-c3b8-b7d6-918c0effbbda"
                  }
              ],
              "interpretation": [
                  {
                      "coding": [
                          {
                              "code": "A",
                              "display": "Abnormal",
                              "system": "http://terminology.hl7.org/CodeSystem/v3-ObservationInterpretation"
                          }
                      ]
                  }
              ],
              "subject": {
                  "reference": "Patient/d5fe6802-a680-e762-8f43-9659340b00ac"
              },
              "encounter": {
                  "reference": "Encounter/19f93d0c-778a-6a5d-4816-504675827c1e"
              },
              "extension": [
                  {
                      "url": "http://example.com/v2-to-fhir-converter/Observation_Status",
                      "valueCodeableConcept": {
                          "coding": [
                              {
                                  "code": "F",
                                  "display": "Final",
                                  "system": "http://terminology.hl7.org/CodeSystem/v2-0085"
                              }
                          ],
                          "text": "Final"
                      }
                  }
              ]
          },
          "request": {
              "method": "PUT",
              "url": "Observation/51083bfe-8942-8cc3-d9ac-f2b4cd18de54"
          }
      }
  ]
}