{
  "resourceType": "Bundle",
  "type": "batch",
  "timestamp": "2019-04-23T18:16:37+05:30",
  "identifier": {
      "value": "8919-40"
  },
  "id": "b27fc313-56c8-37ac-91c9-fc7513b0ee2e",
  "entry": [
      {
          "fullUrl": "urn:uuid:20b57098-4376-ae45-0cb1-348b9f57e03a",
          "resource": {
              "resourceType": "MessageHeader",
              "id": "20b57098-4376-ae45-0cb1-348b9f57e03a",
              "source": {
                  "name": "Ntierprise",
                  "_endpoint": {
                      "extension": [
                          {
                              "url": "http://hl7.org/fhir/StructureDefinition/data-absent-reason",
                              "valueCode": "unknown"
                          }
                      ]
                  }
              },
              "destination": [
                  {
                      "name": "Healthmatics EHR",
                      "_endpoint": {
                          "extension": [
                              {
                                  "url": "http://hl7.org/fhir/StructureDefinition/data-absent-reason",
                                  "valueCode": "unknown"
                              }
                          ]
                      },
                      "receiver": {
                          "reference": "Organization/a5a353ac-11e0-2861-0313-0f8c392bf3c6"
                      }
                  }
              ],
              "meta": {
                  "tag": [
                      {
                          "code": "P",
                          "system": "http://terminology.hl7.org/CodeSystem/v2-0103"
                      }
                  ]
              },
              "eventCoding": {
                  "code": "A40",
                  "system": "http://terminology.hl7.org/CodeSystem/v2-0003",
                  "display": "ADT^A40^ADT_A40"
              },
              "sender": {
                  "reference": "Organization/109d1e78-889d-ebe3-b804-22cee315e8df"
              }
          },
          "request": {
              "method": "PUT",
              "url": "MessageHeader/20b57098-4376-ae45-0cb1-348b9f57e03a"
          }
      },
      {
          "fullUrl": "urn:uuid:17de3c50-3288-08bc-469e-be7ec466eac8",
          "resource": {
              "resourceType": "Provenance",
              "id": "17de3c50-3288-08bc-469e-be7ec466eac8",
              "text": {
                  "status": "generated",
                  "div": "<div xmlns=\"http://www.w3.org/1999/xhtml\"><p><span>Resource bundle generated on 2022-03-28T07:33:05.922Z using Microsoft FHIR Converter.</span><span>Template Version: TEMPLATE_VERSION_PLACEHOLDER.</span><span>Template URL: https://github.com/microsoft/FHIR-Converter/releases/download/vTEMPLATE_VERSION_PLACEHOLDER/Hl7v2DefaultTemplates.tar.gz.</span><span>Root template: ADT_A40.</span></p></div>"
              },
              "occurredDateTime": "2019-04-23T18:16:37+05:30",
              "recorded": "2019-04-23T18:16:37+05:30",
              "agent": [
                  {
                      "type": {
                          "coding": [
                              {
                                  "code": "author",
                                  "system": "http://terminology.hl7.org/CodeSystem/provenance-participant-type"
                              }
                          ]
                      },
                      "who": {
                          "reference": "Organization/109d1e78-889d-ebe3-b804-22cee315e8df"
                      }
                  }
              ],
              "activity": {
                  "coding": [
                      {
                          "display": "ADT^A40^ADT_A40"
                      }
                  ]
              },
              "target": [
                  {
                      "reference": "Bundle/b27fc313-56c8-37ac-91c9-fc7513b0ee2e"
                  }
              ]
          },
          "request": {
              "method": "PUT",
              "url": "Provenance/17de3c50-3288-08bc-469e-be7ec466eac8"
          }
      },
      {
          "fullUrl": "urn:uuid:109d1e78-889d-ebe3-b804-22cee315e8df",
          "resource": {
              "resourceType": "Organization",
              "id": "109d1e78-889d-ebe3-b804-22cee315e8df",
              "identifier": [
                  {
                      "value": "Ntierprise Clinic",
                      "system": "http://example.com/v2-to-fhir-converter/Identifier/Ntierprise-Clinic"
                  }
              ]
          },
          "request": {
              "method": "PUT",
              "url": "Organization/109d1e78-889d-ebe3-b804-22cee315e8df"
          }
      },
      {
          "fullUrl": "urn:uuid:a5a353ac-11e0-2861-0313-0f8c392bf3c6",
          "resource": {
              "resourceType": "Organization",
              "id": "a5a353ac-11e0-2861-0313-0f8c392bf3c6",
              "identifier": [
                  {
                      "value": "Healthmatics Clinic",
                      "system": "http://example.com/v2-to-fhir-converter/Identifier/Healthmatics-Clinic"
                  }
              ]
          },
          "request": {
              "method": "PUT",
              "url": "Organization/a5a353ac-11e0-2861-0313-0f8c392bf3c6"
          }
      },
      {
          "fullUrl": "urn:uuid:377cdef1-68f5-04d8-2aca-8cf70adde926",
          "resource": {
              "resourceType": "Provenance",
              "id": "377cdef1-68f5-04d8-2aca-8cf70adde926",
              "recorded": "2019-04-23T18:16:37+05:30",
              "reason": [
                  {
                      "coding": [
                          {
                              "code": "PATRQT",
                              "display": "patient requested",
                              "system": "http://terminology.hl7.org/CodeSystem/v3-ActReason"
                          }
                      ]
                  }
              ],
              "agent": [
                  {
                      "who": {
                          "reference": "Practitioner/6eb92c1f-cdee-06fa-a24b-a9958e88dc68"
                      }
                  }
              ],
              "activity": {
                  "text": "ADT^A40^ADT_A40"
              },
              "target": [
                  {
                      "reference": "Bundle/b27fc313-56c8-37ac-91c9-fc7513b0ee2e"
                  }
              ]
          },
          "request": {
              "method": "PUT",
              "url": "Provenance/377cdef1-68f5-04d8-2aca-8cf70adde926"
          }
      },
      {
          "fullUrl": "urn:uuid:6eb92c1f-cdee-06fa-a24b-a9958e88dc68",
          "resource": {
              "resourceType": "Practitioner",
              "id": "6eb92c1f-cdee-06fa-a24b-a9958e88dc68",
              "identifier": [
                  {
                      "value": "13"
                  }
              ],
              "name": [
                  {
                      "family": "Berry"
                  }
              ]
          },
          "request": {
              "method": "PUT",
              "url": "Practitioner/6eb92c1f-cdee-06fa-a24b-a9958e88dc68"
          }
      },
      {
          "fullUrl": "urn:uuid:5954c994-f412-af04-3361-90ef6d96f005",
          "resource": {
              "resourceType": "Linkage",
              "id": "5954c994-f412-af04-3361-90ef6d96f005",
              "item": [
                  {
                      "type": "source",
                      "resource": {
                          "type": "Patient",
                          "identifier": {
                              "value": "12345",
                              "type": {
                                  "coding": [
                                      {
                                          "code": "MR",
                                          "system": "http://terminology.hl7.org/CodeSystem/v2-0203",
                                          "display": "Medical record number"
                                      }
                                  ]
                              },
                              "system": "http://example.com/v2-to-fhir-converter/Identifier/BCBS"
                          }
                      }
                  },
                  {
                      "type": "historical",
                      "resource": {
                          "type": "Patient",
                          "identifier": {
                              "value": "56789",
                              "type": {
                                  "coding": [
                                      {
                                          "code": "MR",
                                          "system": "http://terminology.hl7.org/CodeSystem/v2-0203",
                                          "display": "Medical record number"
                                      }
                                  ]
                              },
                              "system": "http://example.com/v2-to-fhir-converter/Identifier/BCBS"
                          }
                      }
                  },
                  {
                      "type": "source",
                      "resource": {
                          "type": "Patient",
                          "identifier": {
                              "value": "145",
                              "type": {
                                  "coding": [
                                      {
                                          "code": "MR",
                                          "system": "http://terminology.hl7.org/CodeSystem/v2-0203",
                                          "display": "Medical record number"
                                      }
                                  ]
                              },
                              "system": "http://example.com/v2-to-fhir-converter/Identifier/BCBS"
                          }
                      }
                  },
                  {
                      "type": "historical",
                      "resource": {
                          "type": "Patient",
                          "identifier": {
                              "value": "569",
                              "type": {
                                  "coding": [
                                      {
                                          "code": "MR",
                                          "system": "http://terminology.hl7.org/CodeSystem/v2-0203",
                                          "display": "Medical record number"
                                      }
                                  ]
                              },
                              "system": "http://example.com/v2-to-fhir-converter/Identifier/BCBS"
                          }
                      }
                  }
              ]
          },
          "request": {
              "method": "PUT",
              "url": "Linkage/5954c994-f412-af04-3361-90ef6d96f005"
          }
      }
  ]
}