{
    "resourceType": "Bundle",
    "type": "batch",
    "timestamp": "2021-01-15T19:35:00+05:30",
    "identifier": {
        "value": "MSG00045"
    },
    "id": "2f2138a1-bd04-c948-33ff-229ea2b1da24",
    "entry": [
        {
            "fullUrl": "urn:uuid:1c679f21-46f2-a192-d95e-b6455ee18072",
            "resource": {
                "resourceType": "MessageHeader",
                "id": "1c679f21-46f2-a192-d95e-b6455ee18072",
                "source": {
                    "name": "24GHH",
                    "endpoint": "urn:oid:2.16.840.1.114884.10.20",
                    "version": "2.4.3.52854",
                    "software": "Rhapsody"
                },
                "destination": [
                    {
                        "name": "25GHH",
                        "endpoint": "urn:oid:2.16.840.1.114884.10.23",
                        "receiver": {
                            "reference": "Organization/527280c1-34d1-c639-e9ba-61986d28e266"
                        }
                    }
                ],
                "meta": {
                    "security": [
                        {
                            "display": "SECURITY"
                        }
                    ],
                    "tag": [
                        {
                            "code": "P",
                            "system": "http://terminology.hl7.org/CodeSystem/v2-0103"
                        }
                    ]
                },
                "eventCoding": {
                    "code": "A45",
                    "system": "http://terminology.hl7.org/CodeSystem/v2-0003",
                    "display": "ADT^A45^ADT_A45"
                },
                "language": "en-US",
                "sender": {
                    "reference": "Organization/4356fb81-6ecd-2d70-57b1-47812638e785"
                },
                "responsible": {
                    "reference": "Organization/33532a82-d220-4c0d-1abe-53e48951c201"
                }
            },
            "request": {
                "method": "PUT",
                "url": "MessageHeader/1c679f21-46f2-a192-d95e-b6455ee18072"
            }
        },
        {
            "fullUrl": "urn:uuid:aaf37d11-5d66-af8d-c286-16b46b7f9ada",
            "resource": {
                "resourceType": "Provenance",
                "id": "aaf37d11-5d66-af8d-c286-16b46b7f9ada",
                "text": {
                    "status": "generated",
                    "div": "<div xmlns=\"http://www.w3.org/1999/xhtml\"><p><span>Resource bundle generated on 2022-03-23T11:07:37.516Z using Microsoft FHIR Converter.</span><span>Template Version: TEMPLATE_VERSION_PLACEHOLDER.</span><span>Template URL: https://github.com/microsoft/FHIR-Converter/releases/download/vTEMPLATE_VERSION_PLACEHOLDER/Hl7v2DefaultTemplates.tar.gz.</span><span>Root template: ADT_A45.</span></p></div>"
                },
                "occurredDateTime": "2021-01-15T19:35:00+05:30",
                "recorded": "2021-01-15T19:35:00+05:30",
                "agent": [
                    {
                        "type": {
                            "coding": [
                                {
                                    "code": "author",
                                    "system": "http://terminology.hl7.org/CodeSystem/provenance-participant-type"
                                }
                            ]
                        },
                        "who": {
                            "reference": "Organization/33532a82-d220-4c0d-1abe-53e48951c201"
                        }
                    }
                ],
                "activity": {
                    "coding": [
                        {
                            "display": "ADT^A45^ADT_A45"
                        }
                    ]
                },
                "entity": [
                    {
                        "role": "source",
                        "what": {
                            "reference": "Device/de4a0e37-220f-608a-1333-2640637851e9"
                        }
                    }
                ],
                "target": [
                    {
                        "reference": "Bundle/2f2138a1-bd04-c948-33ff-229ea2b1da24"
                    }
                ]
            },
            "request": {
                "method": "PUT",
                "url": "Provenance/aaf37d11-5d66-af8d-c286-16b46b7f9ada"
            }
        },
        {
            "fullUrl": "urn:uuid:4356fb81-6ecd-2d70-57b1-47812638e785",
            "resource": {
                "resourceType": "Organization",
                "id": "4356fb81-6ecd-2d70-57b1-47812638e785",
                "identifier": [
                    {
                        "value": "GHHSFacility",
                        "system": "http://example.com/v2-to-fhir-converter/Identifier/GHHSFacility"
                    },
                    {
                        "value": "urn:oid:2.16.840.1.122848.1.30",
                        "system": "urn:ietf:rfc:3986",
                        "type": {
                            "coding": [
                                {
                                    "code": "ISO",
                                    "display": "An International Standards Organization Object Identifier (OID), in accordance with ISO/IEC 8824. Formatted as decimal digits separated by periods; recommended limit of 64 characters",
                                    "system": "http://terminology.hl7.org/CodeSystem/v2-0301"
                                }
                            ]
                        }
                    }
                ],
                "partOf": {
                    "reference": "Organization/33532a82-d220-4c0d-1abe-53e48951c201"
                },
                "address": [
                    {
                        "country": "USA"
                    }
                ]
            },
            "request": {
                "method": "PUT",
                "url": "Organization/4356fb81-6ecd-2d70-57b1-47812638e785"
            }
        },
        {
            "fullUrl": "urn:uuid:62781ad6-3896-cb63-0178-ead0c4a432b5",
            "resource": {
                "resourceType": "Organization",
                "id": "62781ad6-3896-cb63-0178-ead0c4a432b5",
                "identifier": [
                    {
                        "value": "GHHRFacility",
                        "system": "http://example.com/v2-to-fhir-converter/Identifier/GHHRFacility"
                    },
                    {
                        "value": "urn:oid:2.16.840.1.1122848.1.32",
                        "system": "urn:ietf:rfc:3986",
                        "type": {
                            "coding": [
                                {
                                    "code": "ISO",
                                    "display": "An International Standards Organization Object Identifier (OID), in accordance with ISO/IEC 8824. Formatted as decimal digits separated by periods; recommended limit of 64 characters",
                                    "system": "http://terminology.hl7.org/CodeSystem/v2-0301"
                                }
                            ]
                        }
                    }
                ],
                "partOf": {
                    "reference": "Organization/527280c1-34d1-c639-e9ba-61986d28e266"
                },
                "address": [
                    {
                        "country": "USA"
                    }
                ]
            },
            "request": {
                "method": "PUT",
                "url": "Organization/62781ad6-3896-cb63-0178-ead0c4a432b5"
            }
        },
        {
            "fullUrl": "urn:uuid:33532a82-d220-4c0d-1abe-53e48951c201",
            "resource": {
                "resourceType": "Organization",
                "id": "33532a82-d220-4c0d-1abe-53e48951c201",
                "name": "22 GHH Inc."
            },
            "request": {
                "method": "PUT",
                "url": "Organization/33532a82-d220-4c0d-1abe-53e48951c201"
            }
        },
        {
            "fullUrl": "urn:uuid:527280c1-34d1-c639-e9ba-61986d28e266",
            "resource": {
                "resourceType": "Organization",
                "id": "527280c1-34d1-c639-e9ba-61986d28e266",
                "name": "23 GHH Inc."
            },
            "request": {
                "method": "PUT",
                "url": "Organization/527280c1-34d1-c639-e9ba-61986d28e266"
            }
        },
        {
            "fullUrl": "urn:uuid:de4a0e37-220f-608a-1333-2640637851e9",
            "resource": {
                "resourceType": "Device",
                "id": "de4a0e37-220f-608a-1333-2640637851e9",
                "identifier": [
                    {
                        "value": "ADT1"
                    }
                ]
            },
            "request": {
                "method": "PUT",
                "url": "Device/de4a0e37-220f-608a-1333-2640637851e9"
            }
        },
        {
            "fullUrl": "urn:uuid:4b549918-a84d-cdaf-e150-c773a5d306e5",
            "resource": {
                "resourceType": "Device",
                "id": "4b549918-a84d-cdaf-e150-c773a5d306e5",
                "manufacturer": "Orion Health",
                "deviceName": [
                    {
                        "name": "Rhapsody",
                        "type": "manufacturer-name"
                    }
                ],
                "version": [
                    {
                        "value": "2.4.3.52854"
                    }
                ],
                "modelNumber": "2.4.3.52854",
                "note": [
                    {
                        "text": "RAP234 Text"
                    }
                ]
            },
            "request": {
                "method": "PUT",
                "url": "Device/4b549918-a84d-cdaf-e150-c773a5d306e5"
            }
        },
        {
            "fullUrl": "urn:uuid:f63d3422-af5c-03f8-aa55-5f20d0d11aef",
            "resource": {
                "resourceType": "Provenance",
                "id": "f63d3422-af5c-03f8-aa55-5f20d0d11aef",
                "occurredDateTime": "2021-01-15T19:15:10+05:30",
                "recorded": "2021-01-15T19:15:10+05:30",
                "reason": [
                    {
                        "coding": [
                            {
                                "code": "HOPERAT",
                                "display": "healthcare operations",
                                "system": "http://terminology.hl7.org/CodeSystem/v3-ActReason"
                            }
                        ]
                    }
                ],
                "agent": [
                    {
                        "who": {
                            "reference": "Practitioner/6c9ea0f5-1b45-04f9-e07d-bae5096b7a4a"
                        }
                    }
                ],
                "activity": {
                    "text": "ADT^A45^ADT_A45"
                },
                "location": {
                    "reference": "Location/9b7cb9bd-a061-04d1-4757-24dbda8f72b2"
                },
                "target": [
                    {
                        "reference": "Bundle/2f2138a1-bd04-c948-33ff-229ea2b1da24"
                    }
                ]
            },
            "request": {
                "method": "PUT",
                "url": "Provenance/f63d3422-af5c-03f8-aa55-5f20d0d11aef"
            }
        },
        {
            "fullUrl": "urn:uuid:df03b003-6818-1abd-209e-0889025aad16",
            "resource": {
                "resourceType": "Organization",
                "id": "df03b003-6818-1abd-209e-0889025aad16",
                "identifier": [
                    {
                        "value": "NPIID",
                        "system": "http://example.com/v2-to-fhir-converter/Identifier/NPIID"
                    },
                    {
                        "value": "urn:oid:2.16.840.1.113883.4.6",
                        "system": "urn:ietf:rfc:3986",
                        "type": {
                            "coding": [
                                {
                                    "code": "ISO",
                                    "display": "An International Standards Organization Object Identifier (OID), in accordance with ISO/IEC 8824. Formatted as decimal digits separated by periods; recommended limit of 64 characters",
                                    "system": "http://terminology.hl7.org/CodeSystem/v2-0301"
                                }
                            ]
                        }
                    }
                ]
            },
            "request": {
                "method": "PUT",
                "url": "Organization/df03b003-6818-1abd-209e-0889025aad16"
            }
        },
        {
            "fullUrl": "urn:uuid:6c9ea0f5-1b45-04f9-e07d-bae5096b7a4a",
            "resource": {
                "resourceType": "Practitioner",
                "id": "6c9ea0f5-1b45-04f9-e07d-bae5096b7a4a",
                "identifier": [
                    {
                        "value": "9941339108",
                        "system": "urn:oid:2.16.840.1.113883.4.6",
                        "assigner": {
                            "reference": "Organization/df03b003-6818-1abd-209e-0889025aad16"
                        },
                        "type": {
                            "coding": [
                                {
                                    "code": "NPI",
                                    "display": "National provider identifier",
                                    "system": "http://terminology.hl7.org/CodeSystem/v2-0203"
                                }
                            ]
                        }
                    }
                ],
                "name": [
                    {
                        "family": "Smith",
                        "given": [
                            "Adam",
                            "Mellie"
                        ],
                        "suffix": [
                            "Jr",
                            "MD",
                            "GP"
                        ],
                        "prefix": [
                            "Dr"
                        ],
                        "use": "official",
                        "period": {
                            "start": "2010-01-15T19:15:10+05:30",
                            "end": "2020-01-15T19:15:10+05:30"
                        }
                    }
                ]
            },
            "request": {
                "method": "PUT",
                "url": "Practitioner/6c9ea0f5-1b45-04f9-e07d-bae5096b7a4a"
            }
        },
        {
            "fullUrl": "urn:uuid:9b7cb9bd-a061-04d1-4757-24dbda8f72b2",
            "resource": {
                "resourceType": "Location",
                "id": "9b7cb9bd-a061-04d1-4757-24dbda8f72b2",
                "name": "Good Health Hospital",
                "identifier": [
                    {
                        "value": "urn:oid:1.3.6.1.4.1.44750.1.4",
                        "system": "urn:ietf:rfc:3986"
                    }
                ],
                "physicalType": {
                    "coding": [
                        {
                            "code": "si",
                            "display": "site",
                            "system": "http://terminology.hl7.org/CodeSystem/location-physical-type"
                        }
                    ]
                }
            },
            "request": {
                "method": "PUT",
                "url": "Location/9b7cb9bd-a061-04d1-4757-24dbda8f72b2"
            }
        },
        {
            "fullUrl": "urn:uuid:d00df304-17fa-8d9a-bd02-3276b1781ea1",
            "resource": {
                "resourceType": "Practitioner",
                "id": "d00df304-17fa-8d9a-bd02-3276b1781ea1",
                "identifier": [
                    {
                        "value": "0210"
                    }
                ],
                "name": [
                    {
                        "family": "ATTEND",
                        "given": [
                            "AARON",
                            "A"
                        ]
                    }
                ]
            },
            "request": {
                "method": "PUT",
                "url": "Practitioner/d00df304-17fa-8d9a-bd02-3276b1781ea1"
            }
        },
        {
            "fullUrl": "urn:uuid:21d5ab8b-8f3d-4fd9-f1c4-6f32568b0ae9",
            "resource": {
                "resourceType": "Practitioner",
                "id": "21d5ab8b-8f3d-4fd9-f1c4-6f32568b0ae9",
                "identifier": [
                    {
                        "value": "0310"
                    }
                ],
                "name": [
                    {
                        "family": "REFER",
                        "given": [
                            "LINDA",
                            "C"
                        ]
                    }
                ]
            },
            "request": {
                "method": "PUT",
                "url": "Practitioner/21d5ab8b-8f3d-4fd9-f1c4-6f32568b0ae9"
            }
        },
        {
            "fullUrl": "urn:uuid:221b9db9-1de9-90d1-9fbf-9523a06e427c",
            "resource": {
                "resourceType": "Location",
                "id": "221b9db9-1de9-90d1-9fbf-9523a06e427c",
                "name": "OPD",
                "mode": "instance",
                "description": "OPD--0001--01--GOOD HEALTH HOSPITAL",
                "physicalType": {
                    "coding": [
                        {
                            "system": "http://terminology.hl7.org/CodeSystem/location-physical-type",
                            "code": "lvl"
                        }
                    ]
                }
            },
            "request": {
                "method": "PUT",
                "url": "Location/221b9db9-1de9-90d1-9fbf-9523a06e427c"
            }
        },
        {
            "fullUrl": "urn:uuid:680e3787-2fea-c526-fddc-fe7799c0dbf8",
            "resource": {
                "resourceType": "Location",
                "id": "680e3787-2fea-c526-fddc-fe7799c0dbf8",
                "partOf": {
                    "reference": "Location/221b9db9-1de9-90d1-9fbf-9523a06e427c"
                },
                "name": "0001",
                "mode": "instance",
                "description": "OPD--0001--01--GOOD HEALTH HOSPITAL",
                "physicalType": {
                    "coding": [
                        {
                            "system": "http://terminology.hl7.org/CodeSystem/location-physical-type",
                            "code": "ro"
                        }
                    ]
                }
            },
            "request": {
                "method": "PUT",
                "url": "Location/680e3787-2fea-c526-fddc-fe7799c0dbf8"
            }
        },
        {
            "fullUrl": "urn:uuid:75e3808c-5e3e-9ab9-7124-2fb485353fba",
            "resource": {
                "resourceType": "Location",
                "id": "75e3808c-5e3e-9ab9-7124-2fb485353fba",
                "partOf": {
                    "reference": "Location/680e3787-2fea-c526-fddc-fe7799c0dbf8"
                },
                "name": "01",
                "mode": "instance",
                "description": "OPD--0001--01--GOOD HEALTH HOSPITAL",
                "physicalType": {
                    "coding": [
                        {
                            "system": "http://terminology.hl7.org/CodeSystem/location-physical-type",
                            "code": "bd"
                        }
                    ]
                }
            },
            "request": {
                "method": "PUT",
                "url": "Location/75e3808c-5e3e-9ab9-7124-2fb485353fba"
            }
        },
        {
            "fullUrl": "urn:uuid:f3a48419-5674-2456-0237-ea79a6293066",
            "resource": {
                "resourceType": "Location",
                "id": "f3a48419-5674-2456-0237-ea79a6293066",
                "name": "GOOD HEALTH HOSPITAL",
                "mode": "instance",
                "description": "OPD--0001--01--GOOD HEALTH HOSPITAL",
                "physicalType": {
                    "coding": [
                        {
                            "system": "http://terminology.hl7.org/CodeSystem/location-physical-type",
                            "code": "si"
                        }
                    ]
                }
            },
            "request": {
                "method": "PUT",
                "url": "Location/f3a48419-5674-2456-0237-ea79a6293066"
            }
        },
        {
            "fullUrl": "urn:uuid:fe7489c5-7f77-c511-74ad-13c0242bf5d1",
            "resource": {
                "resourceType": "Location",
                "id": "fe7489c5-7f77-c511-74ad-13c0242bf5d1",
                "partOf": {
                    "reference": "Location/5689c61e-b130-c8c9-9152-47b1a67f9059"
                },
                "name": "WAITINGROOM",
                "mode": "instance",
                "description": "WAITINGROOM--ROOM1--2.16.840.1.113883.4.642.1.1108--ISO--BED1--FACILITY1--BUILDING1--FLOOR1",
                "physicalType": {
                    "coding": [
                        {
                            "system": "http://terminology.hl7.org/CodeSystem/location-physical-type",
                            "code": "lvl"
                        }
                    ]
                }
            },
            "request": {
                "method": "PUT",
                "url": "Location/fe7489c5-7f77-c511-74ad-13c0242bf5d1"
            }
        },
        {
            "fullUrl": "urn:uuid:4000d832-f001-23ad-19ff-ecd90dde6fb0",
            "resource": {
                "resourceType": "Location",
                "id": "4000d832-f001-23ad-19ff-ecd90dde6fb0",
                "partOf": {
                    "reference": "Location/fe7489c5-7f77-c511-74ad-13c0242bf5d1"
                },
                "name": "ROOM1",
                "identifier": [
                    {
                        "value": "urn:oid:2.16.840.1.113883.4.642.1.1108",
                        "system": "urn:ietf:rfc:3986"
                    }
                ],
                "mode": "instance",
                "description": "WAITINGROOM--ROOM1--2.16.840.1.113883.4.642.1.1108--ISO--BED1--FACILITY1--BUILDING1--FLOOR1",
                "physicalType": {
                    "coding": [
                        {
                            "system": "http://terminology.hl7.org/CodeSystem/location-physical-type",
                            "code": "ro"
                        }
                    ]
                }
            },
            "request": {
                "method": "PUT",
                "url": "Location/4000d832-f001-23ad-19ff-ecd90dde6fb0"
            }
        },
        {
            "fullUrl": "urn:uuid:d27662df-7371-3a1d-d50e-942876e50bb8",
            "resource": {
                "resourceType": "Location",
                "id": "d27662df-7371-3a1d-d50e-942876e50bb8",
                "partOf": {
                    "reference": "Location/4000d832-f001-23ad-19ff-ecd90dde6fb0"
                },
                "name": "BED1",
                "mode": "instance",
                "description": "WAITINGROOM--ROOM1--2.16.840.1.113883.4.642.1.1108--ISO--BED1--FACILITY1--BUILDING1--FLOOR1",
                "physicalType": {
                    "coding": [
                        {
                            "system": "http://terminology.hl7.org/CodeSystem/location-physical-type",
                            "code": "bd"
                        }
                    ]
                }
            },
            "request": {
                "method": "PUT",
                "url": "Location/d27662df-7371-3a1d-d50e-942876e50bb8"
            }
        },
        {
            "fullUrl": "urn:uuid:7c6ba0e4-256f-ad38-dec4-abe91db717d4",
            "resource": {
                "resourceType": "Location",
                "id": "7c6ba0e4-256f-ad38-dec4-abe91db717d4",
                "name": "FACILITY1",
                "mode": "instance",
                "description": "WAITINGROOM--ROOM1--2.16.840.1.113883.4.642.1.1108--ISO--BED1--FACILITY1--BUILDING1--FLOOR1",
                "physicalType": {
                    "coding": [
                        {
                            "system": "http://terminology.hl7.org/CodeSystem/location-physical-type",
                            "code": "si"
                        }
                    ]
                }
            },
            "request": {
                "method": "PUT",
                "url": "Location/7c6ba0e4-256f-ad38-dec4-abe91db717d4"
            }
        },
        {
            "fullUrl": "urn:uuid:04a989c0-7b14-d5bd-cc7c-4a3ef3ab7528",
            "resource": {
                "resourceType": "Location",
                "id": "04a989c0-7b14-d5bd-cc7c-4a3ef3ab7528",
                "partOf": {
                    "reference": "Location/7c6ba0e4-256f-ad38-dec4-abe91db717d4"
                },
                "name": "BUILDING1",
                "mode": "instance",
                "description": "WAITINGROOM--ROOM1--2.16.840.1.113883.4.642.1.1108--ISO--BED1--FACILITY1--BUILDING1--FLOOR1",
                "physicalType": {
                    "coding": [
                        {
                            "system": "http://terminology.hl7.org/CodeSystem/location-physical-type",
                            "code": "bu"
                        }
                    ]
                }
            },
            "request": {
                "method": "PUT",
                "url": "Location/04a989c0-7b14-d5bd-cc7c-4a3ef3ab7528"
            }
        },
        {
            "fullUrl": "urn:uuid:5689c61e-b130-c8c9-9152-47b1a67f9059",
            "resource": {
                "resourceType": "Location",
                "id": "5689c61e-b130-c8c9-9152-47b1a67f9059",
                "partOf": {
                    "reference": "Location/04a989c0-7b14-d5bd-cc7c-4a3ef3ab7528"
                },
                "name": "FLOOR1",
                "mode": "instance",
                "description": "WAITINGROOM--ROOM1--2.16.840.1.113883.4.642.1.1108--ISO--BED1--FACILITY1--BUILDING1--FLOOR1",
                "physicalType": {
                    "coding": [
                        {
                            "system": "http://terminology.hl7.org/CodeSystem/location-physical-type",
                            "code": "lvl"
                        }
                    ]
                }
            },
            "request": {
                "method": "PUT",
                "url": "Location/5689c61e-b130-c8c9-9152-47b1a67f9059"
            }
        },
        {
            "fullUrl": "urn:uuid:19f93d0c-778a-6a5d-4816-504675827c1e",
            "resource": {
                "resourceType": "Encounter",
                "id": "19f93d0c-778a-6a5d-4816-504675827c1e",
                "class": {
                    "code": "AMB",
                    "display": "ambulatory",
                    "system": "http://terminology.hl7.org/CodeSystem/v3-ActCode"
                },
                "status": "in-progress",
                "location": [
                    {
                        "status": "active",
                        "location": {
                            "reference": "Location/221b9db9-1de9-90d1-9fbf-9523a06e427c"
                        }
                    },
                    {
                        "status": "completed",
                        "location": {
                            "reference": "Location/fe7489c5-7f77-c511-74ad-13c0242bf5d1"
                        }
                    }
                ],
                "participant": [
                    {
                        "type": [
                            {
                                "coding": [
                                    {
                                        "code": "ATND",
                                        "system": "http://terminology.hl7.org/CodeSystem/v3-ParticipationType",
                                        "display": "attender"
                                    }
                                ]
                            }
                        ],
                        "individual": {
                            "reference": "Practitioner/d00df304-17fa-8d9a-bd02-3276b1781ea1"
                        }
                    },
                    {
                        "type": [
                            {
                                "coding": [
                                    {
                                        "code": "REF",
                                        "system": "http://terminology.hl7.org/CodeSystem/v3-ParticipationType"
                                    }
                                ],
                                "text": "referrer"
                            }
                        ],
                        "individual": {
                            "reference": "Practitioner/21d5ab8b-8f3d-4fd9-f1c4-6f32568b0ae9"
                        }
                    }
                ],
                "identifier": [
                    {
                        "value": "5001",
                        "system": "http://example.com/v2-to-fhir-converter/Identifier/AccMgr",
                        "type": {
                            "coding": [
                                {
                                    "code": "VN",
                                    "system": "http://terminology.hl7.org/CodeSystem/v2-0203"
                                }
                            ],
                            "text": "visit number"
                        }
                    }
                ],
                "period": {
                    "start": "2021-01-15T19:15:10+05:30"
                },
                "text": {
                    "status": "generated",
                    "div": "<div xmlns=\"http://www.w3.org/1999/xhtml\"><p><span>Visit Description: </span></p></div>"
                },
                "account": [
                    {
                        "reference": "Account/4d89d103-815b-6284-c821-c995368a2aeb"
                    }
                ]
            },
            "request": {
                "method": "PUT",
                "url": "Encounter/19f93d0c-778a-6a5d-4816-504675827c1e"
            }
        }
    ]
}