{
  "resourceType": "Bundle",
  "type": "batch",
  "entry": [
    {
      "fullUrl": "urn:uuid:5091cf50-e30c-d6a9-3743-5b363abe9974",
      "resource": {
        "resourceType": "Composition",
        "id": "5091cf50-e30c-d6a9-3743-5b363abe9974",
        "identifier": {
          "use": "official",
          "value": "db734647-fc99-424c-a864-7e3cda82e703"
        },
        "status": "final",
        "type": {
          "coding": [
            {
              "code": "52521-2",
              "display": "Overall Plan of Care/Advance Care Directives",
              "system": "http://loinc.org"
            }
          ]
        },
        "date": "2013-08-20T11:20:00-08:00",
        "title": "Good Health Hospital Care Plan",
        "confidentiality": "N",
        "attester": [
          {
            "mode": "legal",
            "time": "2013-07-30",
            "party": {
              "reference": "Practitioner/2cc9a3a8-789c-1981-1868-ed0f20d85191"
            }
          }
        ],
        "event": [
          {
            "period": {
              "start": "2013-07-20",
              "end": "2013-08-15"
            }
          }
        ],
        "section": [
          {
            "title": "Health Concerns Section",
            "text": {
              "status": "generated",
              "div": "<div xmlns=\"http://www.w3.org/1999/xhtml\">Health Concerns Section</div>"
            },
            "code": {
              "coding": [
                {
                  "code": "75310-3",
                  "display": "Health Concerns Document",
                  "system": "http://loinc.org"
                }
              ]
            },
            "mode": "snapshot"
          },
          {
            "title": "Goals Section",
            "text": {
              "status": "generated",
              "div": "<div xmlns=\"http://www.w3.org/1999/xhtml\">Goals Section</div>"
            },
            "code": {
              "coding": [
                {
                  "code": "61146-7",
                  "display": "Goals",
                  "system": "http://loinc.org"
                }
              ]
            },
            "mode": "snapshot"
          },
          {
            "title": "Interventions Section",
            "text": {
              "status": "generated",
              "div": "<div xmlns=\"http://www.w3.org/1999/xhtml\">Interventions Section</div>"
            },
            "code": {
              "coding": [
                {
                  "code": "62387-6",
                  "display": "Interventions Provided",
                  "system": "http://loinc.org"
                }
              ]
            },
            "mode": "snapshot"
          },
          {
            "title": "Health Status Evaluations/Outcomes Section",
            "text": {
              "status": "generated",
              "div": "<div xmlns=\"http://www.w3.org/1999/xhtml\">Health Status Evaluations/Outcomes Section</div>"
            },
            "code": {
              "coding": [
                {
                  "code": "11383-7",
                  "display": "Patient Problem Outcome",
                  "system": "http://loinc.org"
                }
              ]
            },
            "mode": "snapshot"
          }
        ],
        "subject": {
          "reference": "Patient/aca97b95-3c1c-ce73-ac65-f520242997a9"
        },
        "encounter": {
          "reference": "Encounter/e3b99f69-936d-5d8f-0388-4dd7eccc6cb2"
        },
        "custodian": {
          "reference": "Organization/63407f17-1d85-02ee-516d-1fc729e6eae9"
        },
        "author": [
          {
            "reference": "Practitioner/2cc9a3a8-789c-1981-1868-ed0f20d85191"
          }
        ]
      },
      "request": {
        "method": "PUT",
        "url": "Composition/5091cf50-e30c-d6a9-3743-5b363abe9974"
      }
    },
    {
      "fullUrl": "urn:uuid:2cc9a3a8-789c-1981-1868-ed0f20d85191",
      "resource": {
        "resourceType": "Practitioner",
        "id": "2cc9a3a8-789c-1981-1868-ed0f20d85191",
        "meta": {
          "profile": [
            "http://hl7.org/fhir/us/core/StructureDefinition/us-core-practitioner"
          ]
        },
        "identifier": [
          {
            "system": "urn:ietf:rfc:3986",
            "value": "urn:uuid:20cf14fb-b65c-4c8c-a54d-b0cca834c18c"
          }
        ],
        "name": [
          {
            "family": "Nightingale",
            "given": [
              "Nurse"
            ],
            "suffix": [
              "RN"
            ]
          }
        ],
        "address": [
          {
            "line": [
              "1004 Healthcare Drive "
            ],
            "city": "Portland",
            "state": "OR",
            "country": "US",
            "postalCode": "99123"
          }
        ],
        "telecom": [
          {
            "system": "phone",
            "value": "+1(555)555-1004",
            "use": "work"
          }
        ],
        "qualification": [
          {
            "code": {
              "coding": [
                {
                  "code": "163W00000X",
                  "display": "Registered nurse",
                  "system": "http://nucc.org/provider-taxonomy"
                }
              ]
            }
          }
        ]
      },
      "request": {
        "method": "PUT",
        "url": "Practitioner/2cc9a3a8-789c-1981-1868-ed0f20d85191"
      }
    },
    {
      "fullUrl": "urn:uuid:e3b99f69-936d-5d8f-0388-4dd7eccc6cb2",
      "resource": {
        "resourceType": "Encounter",
        "id": "e3b99f69-936d-5d8f-0388-4dd7eccc6cb2",
        "status": "unknown",
        "class": {
          "code": "IMP",
          "display": "Inpatient",
          "system": "urn:oid:2.16.840.1.113883.5.4"
        },
        "identifier": [
          {
            "system": "urn:oid:2.16.840.1.113883.19",
            "value": "9937012"
          }
        ],
        "period": {
          "start": "2013-06-15"
        }
      },
      "request": {
        "method": "PUT",
        "url": "Encounter/e3b99f69-936d-5d8f-0388-4dd7eccc6cb2"
      }
    },
    {
      "fullUrl": "urn:uuid:63407f17-1d85-02ee-516d-1fc729e6eae9",
      "resource": {
        "resourceType": "Organization",
        "id": "63407f17-1d85-02ee-516d-1fc729e6eae9",
        "identifier": [
          {
            "system": "http://hl7.org/fhir/sid/us-npi",
            "value": "321CX"
          }
        ],
        "name": "Good Health HIE",
        "address": [
          {
            "use": "work",
            "line": [
              "1009 Healthcare Drive "
            ],
            "city": "Portland",
            "state": "OR",
            "country": "US",
            "postalCode": "99123"
          }
        ],
        "telecom": [
          {
            "system": "phone",
            "value": "+1(555)555-1009",
            "use": "work"
          }
        ]
      },
      "request": {
        "method": "PUT",
        "url": "Organization/63407f17-1d85-02ee-516d-1fc729e6eae9"
      }
    },
    {
      "fullUrl": "urn:uuid:3e4065e3-f89d-a1e3-dd51-7ae0e849eae9",
      "resource": {
        "resourceType": "Organization",
        "id": "3e4065e3-f89d-a1e3-dd51-7ae0e849eae9",
        "identifier": [
          {
            "system": "urn:ietf:rfc:3986",
            "value": "urn:uuid:2.16.840.1.113883.19.5"
          }
        ],
        "name": "Good Health Hospital"
      },
      "request": {
        "method": "PUT",
        "url": "Organization/3e4065e3-f89d-a1e3-dd51-7ae0e849eae9"
      }
    },
    {
      "fullUrl": "urn:uuid:aca97b95-3c1c-ce73-ac65-f520242997a9",
      "resource": {
        "resourceType": "Patient",
        "id": "aca97b95-3c1c-ce73-ac65-f520242997a9",
        "meta": {
          "profile": [
            "http://hl7.org/fhir/us/core/StructureDefinition/us-core-patient"
          ]
        },
        "identifier": [
          {
            "system": "http://hl7.org/fhir/sid/us-ssn",
            "value": "444222222"
          }
        ],
        "name": [
          {
            "use": "usual",
            "family": "Betterhalf",
            "given": [
              "Eve"
            ]
          },
          {
            "family": "Everywoman",
            "given": [
              "Eve"
            ]
          }
        ],
        "birthDate": "1975-05-01",
        "gender": "female",
        "extension": [
          {
            "url": "http://hl7.org/fhir/us/core/StructureDefinition/us-core-race",
            "extension": [
              {
                "url": "ombCategory",
                "valueCoding": {
                  "code": "2106-3",
                  "display": "White"
                }
              },
              {
                "url": "ombCategory",
                "valueCoding": {
                  "code": "2076-8",
                  "display": "Hawaiian or Other Pacific Islander"
                }
              },
              {
                "url": "text",
                "valueString": "Mixed"
              }
            ]
          },
          {
            "url": "http://hl7.org/fhir/us/core/StructureDefinition/us-core-ethnicity",
            "extension": [
              {
                "url": "ombCategory",
                "valueCoding": {
                  "code": "2186-5",
                  "display": "Not Hispanic or Latino"
                }
              },
              {
                "url": "text",
                "valueString": "Not Hispanic or Latino"
              }
            ]
          }
        ],
        "address": [
          {
            "use": "home",
            "line": [
              "2222 Home Street"
            ],
            "city": "Beaverton",
            "state": "OR",
            "country": "US",
            "postalCode": "97867"
          }
        ],
        "telecom": [
          {
            "system": "phone",
            "value": "+1(555)555-2003",
            "use": "home"
          }
        ],
        "communication": [
          {
            "language": {
              "coding": [
                {
                  "system": "urn:ietf:bcp:47",
                  "code": "en",
                  "display": "English"
                }
              ]
            },
            "preferred": true
          }
        ]
      },
      "request": {
        "method": "PUT",
        "url": "Patient/aca97b95-3c1c-ce73-ac65-f520242997a9"
      }
    },
    {
      "fullUrl": "urn:uuid:1e516bfc-532c-65a4-45e2-e8536f0eb630",
      "resource": {
        "resourceType": "RelatedPerson",
        "id": "1e516bfc-532c-65a4-45e2-e8536f0eb630",
        "relationship": [
          {
            "coding": [
              {
                "code": "POWATT",
                "display": "Power of Attorney",
                "system": "urn:oid:2.16.840.1.113883.1.11.19830"
              }
            ]
          }
        ],
        "name": [
          {
            "family": "Betterhalf",
            "given": [
              "Boris",
              "Bo"
            ]
          }
        ],
        "telecom": [
          {
            "system": "phone",
            "value": "+1(555)555-2008",
            "use": "mobile"
          }
        ],
        "address": [
          {
            "use": "home",
            "line": [
              "2222 Home Street"
            ],
            "city": "Beaverton",
            "state": "OR",
            "country": "US",
            "postalCode": "97867"
          }
        ],
        "patient": {
          "reference": "Patient/aca97b95-3c1c-ce73-ac65-f520242997a9"
        }
      },
      "request": {
        "method": "PUT",
        "url": "RelatedPerson/1e516bfc-532c-65a4-45e2-e8536f0eb630"
      }
    },
    {
      "fullUrl": "urn:uuid:1eecd6b8-281c-6e6d-7f34-7a216f812202",
      "resource": {
        "resourceType": "DocumentReference",
        "id": "1eecd6b8-281c-6e6d-7f34-7a216f812202",
        "type": {
          "coding": [
            {
              "code": "52521-2",
              "display": "Overall Plan of Care/Advance Care Directives",
              "system": "http://loinc.org"
            }
          ]
        },
        "date": "2024-10-31T14:50:24.223Z",
        "status": "current",
        "content": [
          {
            "attachment": {
              "contentType": "text/plain",
              "data": "",
              "hash": "YWM2MjA4YTgxNTBkMTRhOTlhOTEyZDY0MDA0YzdjZjMwNzJiY2FkYw=="
            }
          }
        ]
      },
      "request": {
        "method": "PUT",
        "url": "DocumentReference/1eecd6b8-281c-6e6d-7f34-7a216f812202"
      }
    }
  ]
}