{
  "resourceType": "Bundle",
  "type": "batch",
  "entry": [
    {
      "fullUrl": "urn:uuid:b4e6feed-c1a7-5d0e-c1fd-c87dfa2aaaa5",
      "resource": {
        "resourceType": "Composition",
        "id": "b4e6feed-c1a7-5d0e-c1fd-c87dfa2aaaa5",
        "identifier": {
          "use": "official",
          "value": "2.16.840.1.113883.3.3208.101.1"
        },
        "status": "final",
        "type": {
          "coding": [
            {
              "code": "81334-5",
              "display": "Personal adv care plan",
              "system": "http://loinc.org"
            }
          ]
        },
        "date": "2014-07-31T17:22:00-06:00",
        "title": "Personal Advance Care Document",
        "confidentiality": "N",
        "subject": {
          "reference": "Patient/007bb6b5-fac8-7a95-8d44-ecebd8320f23"
        },
        "custodian": {
          "reference": "Organization/62c763ba-056d-edf7-5777-cdc756109e4a"
        },
        "author": [
          {
            "reference": "Practitioner/69730861-923b-bc62-f3f1-aa410bf618f8"
          },
          {
            "reference": "Device/ce77e7d1-5b1b-2009-1f47-760c5df20c50"
          }
        ]
      },
      "request": {
        "method": "PUT",
        "url": "Composition/b4e6feed-c1a7-5d0e-c1fd-c87dfa2aaaa5"
      }
    },
    {
      "fullUrl": "urn:uuid:62c763ba-056d-edf7-5777-cdc756109e4a",
      "resource": {
        "resourceType": "Organization",
        "id": "62c763ba-056d-edf7-5777-cdc756109e4a",
        "identifier": [
          {
            "system": "http://hl7.org/fhir/sid/us-npi",
            "value": "44444"
          }
        ],
        "name": "MyDirectives.com",
        "address": [
          {
            "use": "work",
            "line": [
              "P.O. Box 832624"
            ],
            "city": "Richardson",
            "state": "TX",
            "country": "US",
            "postalCode": "75083"
          }
        ],
        "telecom": [
          {
            "system": "phone",
            "value": "+1(202)776-7700",
            "use": "work"
          }
        ]
      },
      "request": {
        "method": "PUT",
        "url": "Organization/62c763ba-056d-edf7-5777-cdc756109e4a"
      }
    },
    {
      "fullUrl": "urn:uuid:69730861-923b-bc62-f3f1-aa410bf618f8",
      "resource": {
        "resourceType": "Practitioner",
        "id": "69730861-923b-bc62-f3f1-aa410bf618f8",
        "meta": {
          "profile": [
            "http://hl7.org/fhir/us/core/StructureDefinition/us-core-practitioner"
          ]
        },
        "identifier": [
          {
            "system": "http://hl7.org/fhir/sid/us-npi",
            "value": "66666"
          },
          {
            "system": "urn:oid:2.16.840.1.113883.4.823.1",
            "value": "20130607100800-McBeeID"
          },
          {
            "system": "urn:oid:2.16.840.1.113883.9.9.9",
            "value": "Roger.McBee@direct.max.md"
          }
        ],
        "name": [
          {
            "use": "usual",
            "family": "McBee",
            "given": [
              "Roger",
              "Rienman"
            ]
          }
        ],
        "address": [
          {
            "use": "home",
            "line": [
              "1111 StreetName St."
            ],
            "city": "Silver Spring",
            "state": "IL",
            "country": "US",
            "postalCode": "20901"
          }
        ],
        "telecom": [
          {
            "system": "phone",
            "value": "+1(301)111-1111",
            "use": "home"
          }
        ],
        "qualification": [
          {
            "code": {
              "coding": [
                {
                  "code": "ONESELF",
                  "display": "self",
                  "system": "urn:oid:2.16.840.1.113883.5.111"
                }
              ]
            }
          }
        ]
      },
      "request": {
        "method": "PUT",
        "url": "Practitioner/69730861-923b-bc62-f3f1-aa410bf618f8"
      }
    },
    {
      "fullUrl": "urn:uuid:ce77e7d1-5b1b-2009-1f47-760c5df20c50",
      "resource": {
        "resourceType": "Device",
        "id": "ce77e7d1-5b1b-2009-1f47-760c5df20c50",
        "identifier": [
          {
            "system": "http://hl7.org/fhir/sid/us-npi",
            "value": "66660"
          }
        ],
        "type": {
          "coding": [
            {
              "display": "MyDirectives.com"
            }
          ]
        },
        "manufacturer": "MyDirectives.com",
        "version": [
          {
            "value": "MyDirectives.com v2.0"
          }
        ],
        "owner": {
          "reference": "Organization/c0da242a-0989-19d3-3bbd-75eb113418f2"
        }
      },
      "request": {
        "method": "PUT",
        "url": "Device/ce77e7d1-5b1b-2009-1f47-760c5df20c50"
      }
    },
    {
      "fullUrl": "urn:uuid:c0da242a-0989-19d3-3bbd-75eb113418f2",
      "resource": {
        "resourceType": "Organization",
        "id": "c0da242a-0989-19d3-3bbd-75eb113418f2",
        "identifier": [
          {
            "system": "urn:oid:1.3.6.1.4.1.42424242.4.99930.4",
            "value": "4"
          }
        ],
        "name": "ADVault, Inc.",
        "address": [
          {
            "use": "work",
            "line": [
              "P.O. Box 832624"
            ],
            "city": "Richardson",
            "state": "TX",
            "country": "US",
            "postalCode": "75083"
          }
        ],
        "telecom": [
          {
            "system": "phone",
            "value": "+1(202)776-7700",
            "use": "work"
          }
        ]
      },
      "request": {
        "method": "PUT",
        "url": "Organization/c0da242a-0989-19d3-3bbd-75eb113418f2"
      }
    },
    {
      "fullUrl": "urn:uuid:007bb6b5-fac8-7a95-8d44-ecebd8320f23",
      "resource": {
        "resourceType": "Patient",
        "id": "007bb6b5-fac8-7a95-8d44-ecebd8320f23",
        "meta": {
          "profile": [
            "http://hl7.org/fhir/us/core/StructureDefinition/us-core-patient"
          ]
        },
        "identifier": [
          {
            "system": "urn:oid:2.16.840.1.113883.4.823.1",
            "value": "20130607100800-McBeeID"
          },
          {
            "system": "urn:oid:2.16.840.1.113883.9.9.9",
            "value": "Roger.McBee@direct.max.md"
          }
        ],
        "name": [
          {
            "use": "usual",
            "family": "McBee",
            "given": [
              "Roger",
              "Rienman"
            ]
          }
        ],
        "birthDate": "1930-09-11",
        "gender": "male",
        "extension": [
          {
            "url": "http://hl7.org/fhir/us/core/StructureDefinition/us-core-race",
            "extension": [
              {
                "url": "ombCategory",
                "valueCoding": {
                  "code": "2106-3",
                  "display": "White"
                }
              },
              {
                "url": "text",
                "valueString": "White"
              }
            ]
          },
          {
            "url": "http://hl7.org/fhir/us/core/StructureDefinition/us-core-ethnicity",
            "extension": [
              {
                "url": "ombCategory",
                "valueCoding": {
                  "code": "2186-5",
                  "display": "Not Hispanic or Latino"
                }
              },
              {
                "url": "text",
                "valueString": "Not Hispanic or Latino"
              }
            ]
          }
        ],
        "address": [
          {
            "use": "home",
            "line": [
              "1111 StreetName St."
            ],
            "city": "Silver Spring",
            "state": "IL",
            "country": "US",
            "postalCode": "20901"
          }
        ],
        "telecom": [
          {
            "system": "phone",
            "value": "+1(301)111-1111",
            "use": "home"
          },
          {
            "system": "email",
            "value": "roger.r.mcbee@fakegmail.com"
          }
        ],
        "communication": [
          {
            "language": {
              "coding": [
                {
                  "system": "urn:ietf:bcp:47",
                  "code": "en",
                  "display": "English"
                }
              ]
            }
          }
        ]
      },
      "request": {
        "method": "PUT",
        "url": "Patient/007bb6b5-fac8-7a95-8d44-ecebd8320f23"
      }
    },
    {
      "fullUrl": "urn:uuid:4fa10229-f794-46b3-2c8b-8004d5205fcb",
      "resource": {
        "resourceType": "DocumentReference",
        "id": "4fa10229-f794-46b3-2c8b-8004d5205fcb",
        "type": {
          "coding": [
            {
              "code": "81334-5",
              "display": "Personal adv care plan",
              "system": "http://loinc.org"
            }
          ]
        },
        "date": "2024-10-31T15:05:04.74Z",
        "status": "current",
        "content": [
          {
            "attachment": {
              "contentType": "text/plain",
              "data": "",
              "hash": "OThjMmFkNWYyZGE3MzRjODE4YmU4N2MwYWM0MjFlZTZiMDdhYjcyNw=="
            }
          }
        ]
      },
      "request": {
        "method": "PUT",
        "url": "DocumentReference/4fa10229-f794-46b3-2c8b-8004d5205fcb"
      }
    }
  ]
}