{
  "resourceType": "Bundle",
  "type": "batch",
  "entry": [
    {
      "fullUrl": "urn:uuid:6e2e608e-4c9d-1f62-d940-c48de2cb77ad",
      "resource": {
        "resourceType": "Composition",
        "id": "6e2e608e-4c9d-1f62-d940-c48de2cb77ad",
        "identifier": {
          "use": "official",
          "value": "2.16.840.1.113883.19.5.99999.1"
        },
        "status": "final",
        "type": {
          "coding": [
            {
              "code": "11488-4",
              "display": "Consultation Note",
              "system": "http://loinc.org"
            }
          ]
        },
        "date": "2013-08-01T21:00:00+08:00",
        "title": "Community Health Consult Note",
        "confidentiality": "N",
        "attester": [
          {
            "mode": "legal",
            "time": "2013-08-02T14:36:15+08:00",
            "party": {
              "reference": "Practitioner/08161958-acd8-1ccb-1416-a6a3b9a2c973"
            }
          }
        ],
        "section": [
          {
            "title": "ALLERGIES AND ADVERSE REACTIONS",
            "text": {
              "status": "generated",
              "div": "<div xmlns=\"http://www.w3.org/1999/xhtml\">ALLERGIES AND ADVERSE REACTIONS</div>"
            },
            "code": {
              "coding": [
                {
                  "code": "48765-2",
                  "system": "http://loinc.org"
                }
              ]
            },
            "mode": "snapshot"
          },
          {
            "title": "ASSESSMENT",
            "text": {
              "status": "generated",
              "div": "<div xmlns=\"http://www.w3.org/1999/xhtml\">ASSESSMENT</div>"
            },
            "code": {
              "coding": [
                {
                  "code": "51848-0",
                  "display": "ASSESSMENT",
                  "system": "http://loinc.org"
                }
              ]
            },
            "mode": "snapshot"
          },
          {
            "title": "HISTORY OF PRESENT ILLNESS",
            "text": {
              "status": "generated",
              "div": "<div xmlns=\"http://www.w3.org/1999/xhtml\">HISTORY OF PRESENT ILLNESS</div>"
            },
            "code": {
              "coding": [
                {
                  "code": "10164-2",
                  "display": "HISTORY OF PRESENT ILLNESS",
                  "system": "http://loinc.org"
                }
              ]
            },
            "mode": "snapshot"
          },
          {
            "title": "FUNCTIONAL STATUS",
            "text": {
              "status": "generated",
              "div": "<div xmlns=\"http://www.w3.org/1999/xhtml\">FUNCTIONAL STATUS</div>"
            },
            "code": {
              "coding": [
                {
                  "code": "47420-5",
                  "display": "Functional Status",
                  "system": "http://loinc.org"
                }
              ]
            },
            "mode": "snapshot"
          },
          {
            "title": "MEDICATIONS",
            "text": {
              "status": "generated",
              "div": "<div xmlns=\"http://www.w3.org/1999/xhtml\">MEDICATIONS</div>"
            },
            "code": {
              "coding": [
                {
                  "code": "10160-0",
                  "display": "HISTORY OF MEDICATION USE",
                  "system": "http://loinc.org"
                }
              ]
            },
            "mode": "snapshot"
          },
          {
            "title": "MENTAL STATUS",
            "text": {
              "status": "generated",
              "div": "<div xmlns=\"http://www.w3.org/1999/xhtml\">MENTAL STATUS</div>"
            },
            "code": {
              "coding": [
                {
                  "code": "10190-7",
                  "display": "MENTAL STATUS",
                  "system": "http://loinc.org"
                }
              ]
            },
            "mode": "snapshot"
          },
          {
            "title": "NUTRITION SECTION",
            "text": {
              "status": "generated",
              "div": "<div xmlns=\"http://www.w3.org/1999/xhtml\">NUTRITION SECTION</div>"
            },
            "code": {
              "coding": [
                {
                  "code": "61144-2",
                  "display": "Diet and Nutrition",
                  "system": "http://loinc.org"
                }
              ]
            },
            "mode": "snapshot"
          },
          {
            "title": "Physical Examination",
            "text": {
              "status": "generated",
              "div": "<div xmlns=\"http://www.w3.org/1999/xhtml\">Physical Examination</div>"
            },
            "code": {
              "coding": [
                {
                  "code": "29545-1",
                  "display": "Physical Findings",
                  "system": "http://loinc.org"
                }
              ]
            },
            "mode": "snapshot"
          },
          {
            "title": "TREATMENT PLAN",
            "text": {
              "status": "generated",
              "div": "<div xmlns=\"http://www.w3.org/1999/xhtml\">TREATMENT PLAN</div>"
            },
            "code": {
              "coding": [
                {
                  "code": "18776-5",
                  "display": "Treatment plan",
                  "system": "http://loinc.org"
                }
              ]
            },
            "mode": "snapshot"
          },
          {
            "title": "PROBLEMS",
            "text": {
              "status": "generated",
              "div": "<div xmlns=\"http://www.w3.org/1999/xhtml\">PROBLEMS</div>"
            },
            "code": {
              "coding": [
                {
                  "code": "11450-4",
                  "display": "PROBLEM LIST",
                  "system": "http://loinc.org"
                }
              ]
            },
            "mode": "snapshot"
          },
          {
            "title": "REASON FOR REFERRAL",
            "text": {
              "status": "generated",
              "div": "<div xmlns=\"http://www.w3.org/1999/xhtml\">REASON FOR REFERRAL</div>"
            },
            "code": {
              "coding": [
                {
                  "code": "42349-1",
                  "display": "Reason for Referral ",
                  "system": "http://loinc.org"
                }
              ]
            },
            "mode": "snapshot"
          },
          {
            "title": "RESULTS",
            "text": {
              "status": "generated",
              "div": "<div xmlns=\"http://www.w3.org/1999/xhtml\">RESULTS</div>"
            },
            "code": {
              "coding": [
                {
                  "code": "30954-2",
                  "display": "RESULTS",
                  "system": "http://loinc.org"
                }
              ]
            },
            "mode": "snapshot"
          },
          {
            "title": "VITAL SIGNS",
            "text": {
              "status": "generated",
              "div": "<div xmlns=\"http://www.w3.org/1999/xhtml\">VITAL SIGNS</div>"
            },
            "code": {
              "coding": [
                {
                  "code": "8716-3",
                  "display": "VITAL SIGNS",
                  "system": "http://loinc.org"
                }
              ]
            },
            "mode": "snapshot"
          }
        ],
        "subject": {
          "reference": "Patient/b6d7e193-338c-f580-36eb-156f27ed3541"
        },
        "encounter": {
          "reference": "Encounter/87bc1ecf-f666-27ca-5562-e5d10cc4cc44"
        },
        "custodian": {
          "reference": "Organization/d9b17f7a-c973-98ba-d798-05a68eafe519"
        },
        "author": [
          {
            "reference": "Practitioner/08161958-acd8-1ccb-1416-a6a3b9a2c973"
          }
        ]
      },
      "request": {
        "method": "PUT",
        "url": "Composition/6e2e608e-4c9d-1f62-d940-c48de2cb77ad"
      }
    },
    {
      "fullUrl": "urn:uuid:08161958-acd8-1ccb-1416-a6a3b9a2c973",
      "resource": {
        "resourceType": "Practitioner",
        "id": "08161958-acd8-1ccb-1416-a6a3b9a2c973",
        "meta": {
          "profile": [
            "http://hl7.org/fhir/us/core/StructureDefinition/us-core-practitioner"
          ]
        },
        "identifier": [
          {
            "system": "http://hl7.org/fhir/sid/us-npi",
            "value": "555555555"
          }
        ],
        "name": [
          {
            "family": "Primary",
            "given": [
              "Patricia",
              "Patty"
            ],
            "suffix": [
              "M.D."
            ]
          }
        ],
        "address": [
          {
            "line": [
              "1004 Healthcare Drive "
            ],
            "city": "Portland",
            "state": "OR",
            "country": "US",
            "postalCode": "99123"
          }
        ],
        "telecom": [
          {
            "system": "phone",
            "value": "+1(555)-1004",
            "use": "work"
          }
        ],
        "qualification": [
          {
            "code": {
              "coding": [
                {
                  "code": "207QA0505X",
                  "display": "Adult Medicine",
                  "system": "http://nucc.org/provider-taxonomy"
                }
              ]
            }
          }
        ]
      },
      "request": {
        "method": "PUT",
        "url": "Practitioner/08161958-acd8-1ccb-1416-a6a3b9a2c973"
      }
    },
    {
      "fullUrl": "urn:uuid:87bc1ecf-f666-27ca-5562-e5d10cc4cc44",
      "resource": {
        "resourceType": "Encounter",
        "id": "87bc1ecf-f666-27ca-5562-e5d10cc4cc44",
        "status": "unknown",
        "class": {
          "code": "99213",
          "display": "Evaluation and Management",
          "system": "urn:oid:2.16.840.1.113883.6.12"
        },
        "type": [
          {
            "coding": [
              {
                "code": "99213",
                "display": "Evaluation and Management",
                "system": "urn:oid:2.16.840.1.113883.6.12"
              }
            ]
          }
        ],
        "identifier": [
          {
            "system": "urn:oid:2.16.840.1.113883.19",
            "value": "9937012"
          }
        ],
        "period": {
          "start": "2013-07-31",
          "end": "2013-07-31"
        },
        "location": [
          {
            "location": {
              "reference": "Location/6dfdc7c6-e225-71eb-cec1-75870e529061"
            }
          }
        ]
      },
      "request": {
        "method": "PUT",
        "url": "Encounter/87bc1ecf-f666-27ca-5562-e5d10cc4cc44"
      }
    },
    {
      "fullUrl": "urn:uuid:6dfdc7c6-e225-71eb-cec1-75870e529061",
      "resource": {
        "resourceType": "Location",
        "id": "6dfdc7c6-e225-71eb-cec1-75870e529061"
      },
      "request": {
        "method": "PUT",
        "url": "Location/6dfdc7c6-e225-71eb-cec1-75870e529061"
      }
    },
    {
      "fullUrl": "urn:uuid:d9b17f7a-c973-98ba-d798-05a68eafe519",
      "resource": {
        "resourceType": "Organization",
        "id": "d9b17f7a-c973-98ba-d798-05a68eafe519",
        "identifier": [
          {
            "system": "http://hl7.org/fhir/sid/us-npi",
            "value": "321CX"
          }
        ],
        "name": "Good Health HIE",
        "address": [
          {
            "use": "work",
            "line": [
              "1009 Healthcare Drive "
            ],
            "city": "Portland",
            "state": "OR",
            "country": "US",
            "postalCode": "99123"
          }
        ],
        "telecom": [
          {
            "system": "phone",
            "value": "+1(555)-1009",
            "use": "work"
          }
        ]
      },
      "request": {
        "method": "PUT",
        "url": "Organization/d9b17f7a-c973-98ba-d798-05a68eafe519"
      }
    },
    {
      "fullUrl": "urn:uuid:b6d7e193-338c-f580-36eb-156f27ed3541",
      "resource": {
        "resourceType": "Patient",
        "id": "b6d7e193-338c-f580-36eb-156f27ed3541",
        "meta": {
          "profile": [
            "http://hl7.org/fhir/us/core/StructureDefinition/us-core-patient"
          ]
        },
        "identifier": [
          {
            "system": "http://hl7.org/fhir/sid/us-ssn",
            "value": "444-22-2222"
          }
        ],
        "name": [
          {
            "use": "usual",
            "family": "Betterhalf",
            "given": [
              "Eve"
            ]
          },
          {
            "use": "SRCH",
            "family": "Everywoman",
            "given": [
              "Eve"
            ]
          }
        ],
        "birthDate": "1975-05-01",
        "gender": "female",
        "extension": [
          {
            "url": "http://hl7.org/fhir/us/core/StructureDefinition/us-core-race",
            "extension": [
              {
                "url": "ombCategory",
                "valueCoding": {
                  "code": "2106-3",
                  "display": "White",
                  "system": "urn:oid:2.16.840.1.113883.6.238"
                }
              },
              {
                "url": "ombCategory",
                "valueCoding": {
                  "code": "2076-8",
                  "display": "Hawaiian or Other Pacific Islander",
                  "system": "urn:oid:2.16.840.1.113883.6.238"
                }
              },
              {
                "url": "text",
                "valueString": "Mixed"
              }
            ]
          },
          {
            "url": "http://hl7.org/fhir/us/core/StructureDefinition/us-core-ethnicity",
            "extension": [
              {
                "url": "ombCategory",
                "valueCoding": {
                  "code": "2186-5",
                  "display": "Not Hispanic or Latino",
                  "system": "urn:oid:2.16.840.1.113883.6.238"
                }
              },
              {
                "url": "text",
                "valueString": "Not Hispanic or Latino"
              }
            ]
          }
        ],
        "address": [
          {
            "use": "home",
            "line": [
              "2222 Home Street"
            ],
            "city": "Beaverton",
            "state": "OR",
            "country": "US",
            "postalCode": "97867"
          }
        ],
        "telecom": [
          {
            "system": "phone",
            "value": "+1(555)555-2003",
            "use": "home"
          }
        ],
        "communication": [
          {
            "language": {
              "coding": [
                {
                  "system": "urn:ietf:bcp:47",
                  "code": "eng",
                  "display": "eng"
                }
              ]
            },
            "preferred": true
          }
        ]
      },
      "request": {
        "method": "PUT",
        "url": "Patient/b6d7e193-338c-f580-36eb-156f27ed3541"
      }
    },
    {
      "fullUrl": "urn:uuid:1e516bfc-532c-65a4-45e2-e8536f0eb630",
      "resource": {
        "resourceType": "RelatedPerson",
        "id": "1e516bfc-532c-65a4-45e2-e8536f0eb630",
        "relationship": [
          {
            "coding": [
              {
                "code": "POWATT",
                "display": "Power of Attorney",
                "system": "urn:oid:2.16.840.1.113883.1.11.19830"
              }
            ]
          }
        ],
        "name": [
          {
            "family": "Betterhalf",
            "given": [
              "Boris",
              "Bo"
            ]
          }
        ],
        "telecom": [
          {
            "system": "phone",
            "value": "+1(555)555-2008",
            "use": "mobile"
          }
        ],
        "address": [
          {
            "use": "home",
            "line": [
              "2222 Home Street"
            ],
            "city": "Beaverton",
            "state": "OR",
            "country": "US",
            "postalCode": "97867"
          }
        ],
        "patient": {
          "reference": "Patient/b6d7e193-338c-f580-36eb-156f27ed3541"
        }
      },
      "request": {
        "method": "PUT",
        "url": "RelatedPerson/1e516bfc-532c-65a4-45e2-e8536f0eb630"
      }
    },
    {
      "fullUrl": "urn:uuid:055ddf40-8945-8113-5454-eb0070939c37",
      "resource": {
        "resourceType": "AllergyIntolerance",
        "id": "055ddf40-8945-8113-5454-eb0070939c37",
        "identifier": [
          {
            "system": "urn:ietf:rfc:3986",
            "value": "urn:uuid:4adc1020-7b14-11db-9fe1-0800200c9a66"
          }
        ],
        "clinicalStatus": {
          "coding": [
            {
              "system": "http://terminology.hl7.org/CodeSystem/allergyintolerance-clinical",
              "code": "active"
            }
          ]
        },
        "reaction": [
          {
            "substance": {
              "coding": [
                {
                  "code": "70618",
                  "display": "Penicillin",
                  "system": "http://www.nlm.nih.gov/research/umls/rxnorm"
                }
              ]
            },
            "manifestation": [
              {
                "coding": [
                  {
                    "code": "422587007",
                    "display": "Nausea",
                    "system": "http://snomed.info/sct"
                  }
                ]
              }
            ],
            "onset": "2008-02-27T00:05:00+08:00",
            "severity": "Nausea"
          }
        ],
        "onsetDateTime": "1998-05-01",
        "patient": {
          "reference": "Patient/b6d7e193-338c-f580-36eb-156f27ed3541"
        }
      },
      "request": {
        "method": "PUT",
        "url": "AllergyIntolerance/055ddf40-8945-8113-5454-eb0070939c37"
      }
    },
    {
      "fullUrl": "urn:uuid:023fffb6-ab9c-78cf-4631-e45bbd101825",
      "resource": {
        "resourceType": "AllergyIntolerance",
        "id": "023fffb6-ab9c-78cf-4631-e45bbd101825",
        "clinicalStatus": {
          "coding": [
            {
              "system": "http://terminology.hl7.org/CodeSystem/allergyintolerance-clinical",
              "code": "active"
            }
          ]
        },
        "patient": {
          "reference": "Patient/b6d7e193-338c-f580-36eb-156f27ed3541"
        }
      },
      "request": {
        "method": "PUT",
        "url": "AllergyIntolerance/023fffb6-ab9c-78cf-4631-e45bbd101825"
      }
    },
    {
      "fullUrl": "urn:uuid:80b41489-d434-1d18-476b-c6c08eaf45b3",
      "resource": {
        "resourceType": "AllergyIntolerance",
        "id": "80b41489-d434-1d18-476b-c6c08eaf45b3",
        "identifier": [
          {
            "system": "urn:ietf:rfc:3986",
            "value": "urn:uuid:901db0f8-9355-4794-81cd-fd951ef07917"
          }
        ],
        "clinicalStatus": {
          "coding": [
            {
              "system": "http://terminology.hl7.org/CodeSystem/allergyintolerance-clinical",
              "code": "active"
            }
          ]
        },
        "reaction": [
          {
            "substance": {
              "coding": [
                {
                  "code": "2670",
                  "display": "Codeine",
                  "system": "http://www.nlm.nih.gov/research/umls/rxnorm"
                }
              ]
            },
            "manifestation": [
              {
                "coding": [
                  {
                    "code": "56018004",
                    "display": "Wheezing",
                    "system": "http://snomed.info/sct"
                  }
                ]
              }
            ],
            "severity": "Wheezing"
          },
          {
            "substance": {
              "coding": [
                {
                  "code": "2670",
                  "display": "Codeine",
                  "system": "http://www.nlm.nih.gov/research/umls/rxnorm"
                }
              ]
            },
            "manifestation": [
              {
                "coding": [
                  {
                    "code": "255604002",
                    "display": "Mild",
                    "system": "http://snomed.info/sct"
                  }
                ]
              }
            ],
            "severity": "mild"
          }
        ],
        "patient": {
          "reference": "Patient/b6d7e193-338c-f580-36eb-156f27ed3541"
        }
      },
      "request": {
        "method": "PUT",
        "url": "AllergyIntolerance/80b41489-d434-1d18-476b-c6c08eaf45b3"
      }
    },
    {
      "fullUrl": "urn:uuid:c71b76e3-c194-5c1c-aad9-43950515c3ef",
      "resource": {
        "resourceType": "Condition",
        "id": "c71b76e3-c194-5c1c-aad9-43950515c3ef",
        "identifier": [
          {
            "system": "urn:ietf:rfc:3986",
            "value": "urn:uuid:ab1791b0-5c71-11db-b0de-0800200c9a66"
          }
        ],
        "clinicalStatus": {
          "coding": [
            {
              "code": "55561003",
              "display": "Active",
              "system": "http://snomed.info/sct"
            }
          ]
        },
        "code": {
          "coding": [
            {
              "code": "190389009",
              "display": "Type II diabetes mellitus with ulcer (disorder)",
              "system": "http://snomed.info/sct"
            }
          ]
        },
        "onsetDateTime": "2000-07-03",
        "subject": {
          "reference": "Patient/b6d7e193-338c-f580-36eb-156f27ed3541"
        }
      },
      "request": {
        "method": "PUT",
        "url": "Condition/c71b76e3-c194-5c1c-aad9-43950515c3ef"
      }
    },
    {
      "fullUrl": "urn:uuid:acfb6214-75c1-52b5-8b82-c0c64f658150",
      "resource": {
        "resourceType": "Condition",
        "id": "acfb6214-75c1-52b5-8b82-c0c64f658150",
        "identifier": [
          {
            "system": "urn:ietf:rfc:3986",
            "value": "urn:uuid:11d088a8-b957-401c-8ee0-3bd20a772fc0"
          }
        ],
        "code": {
          "coding": [
            {
              "code": "195977004",
              "display": "mixed asthma",
              "system": "http://snomed.info/sct"
            }
          ]
        },
        "onsetDateTime": "2007-04-14",
        "subject": {
          "reference": "Patient/b6d7e193-338c-f580-36eb-156f27ed3541"
        }
      },
      "request": {
        "method": "PUT",
        "url": "Condition/acfb6214-75c1-52b5-8b82-c0c64f658150"
      }
    },
    {
      "fullUrl": "urn:uuid:fb05b32d-81f1-424f-ffcb-97d9cfe41d70",
      "resource": {
        "resourceType": "Condition",
        "id": "fb05b32d-81f1-424f-ffcb-97d9cfe41d70",
        "identifier": [
          {
            "system": "urn:ietf:rfc:3986",
            "value": "urn:uuid:4991db40-4c4f-41e8-9146-50c12d716424"
          }
        ],
        "code": {
          "coding": [
            {
              "code": "304527002",
              "display": "Acute Asthma",
              "system": "http://snomed.info/sct"
            }
          ]
        },
        "onsetDateTime": "2007-04-17",
        "subject": {
          "reference": "Patient/b6d7e193-338c-f580-36eb-156f27ed3541"
        }
      },
      "request": {
        "method": "PUT",
        "url": "Condition/fb05b32d-81f1-424f-ffcb-97d9cfe41d70"
      }
    },
    {
      "fullUrl": "urn:uuid:18167cc2-87c2-9ca0-f0c1-9ddfc4bff22b",
      "resource": {
        "resourceType": "Condition",
        "id": "18167cc2-87c2-9ca0-f0c1-9ddfc4bff22b",
        "identifier": [
          {
            "system": "urn:ietf:rfc:3986",
            "value": "urn:uuid:10506b4d-c30a-4220-8bec-97bff9568fd1"
          }
        ],
        "code": {
          "coding": [
            {
              "code": "233604007",
              "display": "Pneumonia",
              "system": "http://snomed.info/sct"
            }
          ]
        },
        "onsetDateTime": "1998-03-10",
        "subject": {
          "reference": "Patient/b6d7e193-338c-f580-36eb-156f27ed3541"
        }
      },
      "request": {
        "method": "PUT",
        "url": "Condition/18167cc2-87c2-9ca0-f0c1-9ddfc4bff22b"
      }
    },
    {
      "fullUrl": "urn:uuid:572f9d4f-1573-eda6-b41e-1e21144dfa6e",
      "resource": {
        "resourceType": "MedicationStatement",
        "id": "572f9d4f-1573-eda6-b41e-1e21144dfa6e",
        "identifier": [
          {
            "system": "urn:ietf:rfc:3986",
            "value": "urn:uuid:cdbd33f0-6cde-11db-9fe1-0800200c9a66"
          }
        ],
        "status": "active",
        "dosage": [
          {
            "doseAndRate": [
              {
                "doseQuantity": {
                  "value": 2
                }
              }
            ]
          }
        ],
        "subject": {
          "reference": "Patient/b6d7e193-338c-f580-36eb-156f27ed3541"
        },
        "medicationReference": {
          "reference": "Medication/b5636b87-c508-37d0-1f21-e11906922433"
        }
      },
      "request": {
        "method": "PUT",
        "url": "MedicationStatement/572f9d4f-1573-eda6-b41e-1e21144dfa6e"
      }
    },
    {
      "fullUrl": "urn:uuid:b5636b87-c508-37d0-1f21-e11906922433",
      "resource": {
        "resourceType": "Medication",
        "id": "b5636b87-c508-37d0-1f21-e11906922433",
        "code": {
          "coding": [
            {
              "code": "573621",
              "display": "Proventil 0.09 MG/ACTUAT inhalant solution",
              "system": "http://www.nlm.nih.gov/research/umls/rxnorm"
            }
          ]
        }
      },
      "request": {
        "method": "PUT",
        "url": "Medication/b5636b87-c508-37d0-1f21-e11906922433"
      }
    },
    {
      "fullUrl": "urn:uuid:be848367-118c-28f6-d463-2e4c8729e55b",
      "resource": {
        "resourceType": "MedicationStatement",
        "id": "be848367-118c-28f6-d463-2e4c8729e55b",
        "identifier": [
          {
            "system": "urn:ietf:rfc:3986",
            "value": "urn:uuid:6c844c75-aa34-411c-b7bd-5e4a9f206e29"
          }
        ],
        "status": "active",
        "dosage": [
          {
            "doseAndRate": [
              {
                "doseQuantity": {
                  "value": 1
                }
              }
            ]
          }
        ],
        "subject": {
          "reference": "Patient/b6d7e193-338c-f580-36eb-156f27ed3541"
        },
        "medicationReference": {
          "reference": "Medication/b9a3c41d-8623-d966-e245-8a5aa61ad806"
        }
      },
      "request": {
        "method": "PUT",
        "url": "MedicationStatement/be848367-118c-28f6-d463-2e4c8729e55b"
      }
    },
    {
      "fullUrl": "urn:uuid:b9a3c41d-8623-d966-e245-8a5aa61ad806",
      "resource": {
        "resourceType": "Medication",
        "id": "b9a3c41d-8623-d966-e245-8a5aa61ad806",
        "code": {
          "coding": [
            {
              "code": "197380",
              "display": "Atenolol 25 MG Oral Tablet",
              "system": "http://www.nlm.nih.gov/research/umls/rxnorm"
            }
          ]
        }
      },
      "request": {
        "method": "PUT",
        "url": "Medication/b9a3c41d-8623-d966-e245-8a5aa61ad806"
      }
    },
    {
      "fullUrl": "urn:uuid:c3b74f03-987c-6292-e127-7a3a8be13681",
      "resource": {
        "resourceType": "DiagnosticReport",
        "id": "c3b74f03-987c-6292-e127-7a3a8be13681",
        "identifier": [
          {
            "system": "urn:ietf:rfc:3986",
            "value": "urn:uuid:7d5a02b0-67a4-11db-bd13-0800200c9a66"
          }
        ],
        "status": "final",
        "code": {
          "coding": [
            {
              "code": "57021-8",
              "display": "CBC W Auto Differential panel in Blood",
              "system": "http://loinc.org"
            }
          ]
        },
        "effectivePeriod": {
          "start": "2013-03-12T00:30:00+08:00",
          "end": "2013-03-12T00:30:00+08:00"
        },
        "subject": {
          "reference": "Patient/b6d7e193-338c-f580-36eb-156f27ed3541"
        },
        "result": [
          {
            "reference": "Observation/d79b76a6-21dc-0ed6-4c03-6873b8bd3b63"
          },
          {
            "reference": "Observation/3db6a404-97bf-b2fc-75f2-0b3f6d20937e"
          },
          {
            "reference": "Observation/93e570e3-548d-09ad-bd02-a076cf0dfc28"
          },
          {
            "reference": "Observation/7ccbf3d3-26cd-c78e-b1ad-f04681b84a54"
          },
          {
            "reference": "Observation/6bb0f497-0482-9cf5-bf35-64cf636d58d0"
          }
        ]
      },
      "request": {
        "method": "PUT",
        "url": "DiagnosticReport/c3b74f03-987c-6292-e127-7a3a8be13681"
      }
    },
    {
      "fullUrl": "urn:uuid:d79b76a6-21dc-0ed6-4c03-6873b8bd3b63",
      "resource": {
        "resourceType": "Observation",
        "id": "d79b76a6-21dc-0ed6-4c03-6873b8bd3b63",
        "meta": {
          "profile": [
            "http://hl7.org/fhir/us/core/StructureDefinition/us-core-observationresults"
          ]
        },
        "identifier": [
          {
            "system": "urn:ietf:rfc:3986",
            "value": "urn:uuid:107c2dc0-67a5-11db-bd13-0800200c9a66"
          }
        ],
        "category": [
          {
            "coding": [
              {
                "system": "http://terminology.hl7.org/CodeSystem/observation-category",
                "code": "laboratory"
              }
            ]
          }
        ],
        "status": "final",
        "code": {
          "coding": [
            {
              "code": "718-7",
              "display": "Hemoglobin",
              "system": "http://loinc.org"
            }
          ]
        },
        "effectiveDateTime": "2013-03-12T00:30:00+08:00",
        "valueQuantity": {
          "value": 13.2,
          "unit": "g/dL"
        },
        "referenceRange": [
          {
            "low": {
              "value": 12.0,
              "unit": "g/dL"
            },
            "high": {
              "value": 15.5,
              "unit": "g/dL"
            }
          }
        ],
        "interpretation": [
          {
            "coding": [
              {
                "code": "N",
                "system": "http://terminology.hl7.org/CodeSystem/v3-ObservationInterpretation"
              }
            ]
          }
        ],
        "subject": {
          "reference": "Patient/b6d7e193-338c-f580-36eb-156f27ed3541"
        },
        "performer": [
          {
            "reference": "Practitioner/f02faa7a-9472-70c5-2aa4-ecad5340bc01"
          }
        ]
      },
      "request": {
        "method": "PUT",
        "url": "Observation/d79b76a6-21dc-0ed6-4c03-6873b8bd3b63"
      }
    },
    {
      "fullUrl": "urn:uuid:3db6a404-97bf-b2fc-75f2-0b3f6d20937e",
      "resource": {
        "resourceType": "Observation",
        "id": "3db6a404-97bf-b2fc-75f2-0b3f6d20937e",
        "meta": {
          "profile": [
            "http://hl7.org/fhir/us/core/StructureDefinition/us-core-observationresults"
          ]
        },
        "identifier": [
          {
            "system": "urn:ietf:rfc:3986",
            "value": "urn:uuid:a69b3d60-2ffd-4440-958b-72b3335ff35f"
          }
        ],
        "category": [
          {
            "coding": [
              {
                "system": "http://terminology.hl7.org/CodeSystem/observation-category",
                "code": "laboratory"
              }
            ]
          }
        ],
        "status": "final",
        "code": {
          "coding": [
            {
              "code": "6690-2",
              "display": "Leukocytes",
              "system": "http://loinc.org"
            }
          ]
        },
        "effectiveDateTime": "2013-03-12T00:30:00+08:00",
        "valueQuantity": {
          "value": 6.7,
          "unit": "10*9/L"
        },
        "referenceRange": [
          {
            "low": {
              "value": 4.3,
              "unit": "10*9/L"
            },
            "high": {
              "value": 10.8,
              "unit": "10*9/L"
            }
          }
        ],
        "interpretation": [
          {
            "coding": [
              {
                "code": "N",
                "system": "http://terminology.hl7.org/CodeSystem/v3-ObservationInterpretation"
              }
            ]
          }
        ],
        "subject": {
          "reference": "Patient/b6d7e193-338c-f580-36eb-156f27ed3541"
        },
        "performer": [
          {
            "reference": "Practitioner/f02faa7a-9472-70c5-2aa4-ecad5340bc01"
          }
        ]
      },
      "request": {
        "method": "PUT",
        "url": "Observation/3db6a404-97bf-b2fc-75f2-0b3f6d20937e"
      }
    },
    {
      "fullUrl": "urn:uuid:93e570e3-548d-09ad-bd02-a076cf0dfc28",
      "resource": {
        "resourceType": "Observation",
        "id": "93e570e3-548d-09ad-bd02-a076cf0dfc28",
        "meta": {
          "profile": [
            "http://hl7.org/fhir/us/core/StructureDefinition/us-core-observationresults"
          ]
        },
        "identifier": [
          {
            "system": "urn:ietf:rfc:3986",
            "value": "urn:uuid:ef5c1c58-4665-4556-a8e8-6e720d82f572"
          }
        ],
        "category": [
          {
            "coding": [
              {
                "system": "http://terminology.hl7.org/CodeSystem/observation-category",
                "code": "laboratory"
              }
            ]
          }
        ],
        "status": "final",
        "code": {
          "coding": [
            {
              "code": "777-3",
              "display": "Platelets",
              "system": "http://loinc.org"
            }
          ]
        },
        "effectiveDateTime": "2013-03-12T00:30:00+08:00",
        "valueQuantity": {
          "value": 123,
          "unit": "10*9/L"
        },
        "referenceRange": [
          {
            "low": {
              "value": 150,
              "unit": "10*9/L"
            },
            "high": {
              "value": 350,
              "unit": "10*9/L"
            }
          }
        ],
        "interpretation": [
          {
            "coding": [
              {
                "code": "A",
                "system": "http://terminology.hl7.org/CodeSystem/v3-ObservationInterpretation"
              }
            ]
          }
        ],
        "subject": {
          "reference": "Patient/b6d7e193-338c-f580-36eb-156f27ed3541"
        },
        "performer": [
          {
            "reference": "Practitioner/f02faa7a-9472-70c5-2aa4-ecad5340bc01"
          }
        ]
      },
      "request": {
        "method": "PUT",
        "url": "Observation/93e570e3-548d-09ad-bd02-a076cf0dfc28"
      }
    },
    {
      "fullUrl": "urn:uuid:7ccbf3d3-26cd-c78e-b1ad-f04681b84a54",
      "resource": {
        "resourceType": "Observation",
        "id": "7ccbf3d3-26cd-c78e-b1ad-f04681b84a54",
        "meta": {
          "profile": [
            "http://hl7.org/fhir/us/core/StructureDefinition/us-core-observationresults"
          ]
        },
        "identifier": [
          {
            "system": "urn:ietf:rfc:3986",
            "value": "urn:uuid:7c0704bb-9c40-41b5-9c7d-26b2d59e234f"
          }
        ],
        "category": [
          {
            "coding": [
              {
                "system": "http://terminology.hl7.org/CodeSystem/observation-category",
                "code": "laboratory"
              }
            ]
          }
        ],
        "status": "final",
        "code": {
          "coding": [
            {
              "code": "4544-3",
              "display": "Hematocrit",
              "system": "http://loinc.org"
            }
          ]
        },
        "effectiveDateTime": "2013-03-12T00:30:00+08:00",
        "valueQuantity": {
          "value": 35.3,
          "unit": "%"
        },
        "referenceRange": [
          {
            "low": {
              "value": 34.9,
              "unit": "%"
            },
            "high": {
              "value": 44.5,
              "unit": "%"
            }
          }
        ],
        "interpretation": [
          {
            "coding": [
              {
                "code": "A",
                "system": "http://terminology.hl7.org/CodeSystem/v3-ObservationInterpretation"
              }
            ]
          }
        ],
        "subject": {
          "reference": "Patient/b6d7e193-338c-f580-36eb-156f27ed3541"
        },
        "performer": [
          {
            "reference": "Practitioner/f02faa7a-9472-70c5-2aa4-ecad5340bc01"
          }
        ]
      },
      "request": {
        "method": "PUT",
        "url": "Observation/7ccbf3d3-26cd-c78e-b1ad-f04681b84a54"
      }
    },
    {
      "fullUrl": "urn:uuid:6bb0f497-0482-9cf5-bf35-64cf636d58d0",
      "resource": {
        "resourceType": "Observation",
        "id": "6bb0f497-0482-9cf5-bf35-64cf636d58d0",
        "meta": {
          "profile": [
            "http://hl7.org/fhir/us/core/StructureDefinition/us-core-observationresults"
          ]
        },
        "identifier": [
          {
            "system": "urn:ietf:rfc:3986",
            "value": "urn:uuid:bccd6fc9-0c7f-455e-8616-923ed0d04d09"
          }
        ],
        "category": [
          {
            "coding": [
              {
                "system": "http://terminology.hl7.org/CodeSystem/observation-category",
                "code": "laboratory"
              }
            ]
          }
        ],
        "status": "final",
        "code": {
          "coding": [
            {
              "code": "789-8",
              "display": "Erythrocytes",
              "system": "http://loinc.org"
            }
          ]
        },
        "effectiveDateTime": "2013-03-12T00:30:00+08:00",
        "valueQuantity": {
          "value": 4.21,
          "unit": "10*12/L"
        },
        "referenceRange": [
          {
            "low": {
              "value": 3.9,
              "unit": "10*12/L"
            },
            "high": {
              "value": 5.03,
              "unit": "10*12/L"
            }
          }
        ],
        "interpretation": [
          {
            "coding": [
              {
                "code": "N",
                "system": "http://terminology.hl7.org/CodeSystem/v3-ObservationInterpretation"
              }
            ]
          }
        ],
        "subject": {
          "reference": "Patient/b6d7e193-338c-f580-36eb-156f27ed3541"
        },
        "performer": [
          {
            "reference": "Practitioner/f02faa7a-9472-70c5-2aa4-ecad5340bc01"
          }
        ]
      },
      "request": {
        "method": "PUT",
        "url": "Observation/6bb0f497-0482-9cf5-bf35-64cf636d58d0"
      }
    },
    {
      "fullUrl": "urn:uuid:474930ac-8bcf-eb23-9a5e-910c0b8561e1",
      "resource": {
        "resourceType": "DiagnosticReport",
        "id": "474930ac-8bcf-eb23-9a5e-910c0b8561e1",
        "identifier": [
          {
            "system": "urn:ietf:rfc:3986",
            "value": "urn:uuid:122ed3ae-6d9e-43d0-bfa2-434ea34b1426"
          }
        ],
        "status": "active",
        "code": {
          "coding": [
            {
              "code": "166312007",
              "display": "Blood chemistry test",
              "system": "http://snomed.info/sct"
            }
          ]
        },
        "effectivePeriod": {
          "start": "2008-03-21T01:30:00+08:00",
          "end": "2008-03-21T01:30:00+08:00"
        },
        "subject": {
          "reference": "Patient/b6d7e193-338c-f580-36eb-156f27ed3541"
        },
        "result": [
          {
            "reference": "Observation/295cc0b4-3e1d-8a4e-5e8e-ee614b0e0bc0"
          }
        ]
      },
      "request": {
        "method": "PUT",
        "url": "DiagnosticReport/474930ac-8bcf-eb23-9a5e-910c0b8561e1"
      }
    },
    {
      "fullUrl": "urn:uuid:295cc0b4-3e1d-8a4e-5e8e-ee614b0e0bc0",
      "resource": {
        "resourceType": "Observation",
        "id": "295cc0b4-3e1d-8a4e-5e8e-ee614b0e0bc0",
        "meta": {
          "profile": [
            "http://hl7.org/fhir/us/core/StructureDefinition/us-core-observationresults"
          ]
        },
        "identifier": [
          {
            "system": "urn:ietf:rfc:3986",
            "value": "urn:uuid:aed821af-3330-4138-97f0-e84dfe5f3c35"
          }
        ],
        "category": [
          {
            "coding": [
              {
                "system": "http://terminology.hl7.org/CodeSystem/observation-category",
                "code": "laboratory"
              }
            ]
          }
        ],
        "status": "active",
        "code": {
          "coding": [
            {
              "code": "3094-0",
              "display": "Urea nitrogen, Serum",
              "system": "http://loinc.org"
            }
          ]
        },
        "effectiveDateTime": "2008-03-21T01:30:00+08:00",
        "subject": {
          "reference": "Patient/b6d7e193-338c-f580-36eb-156f27ed3541"
        }
      },
      "request": {
        "method": "PUT",
        "url": "Observation/295cc0b4-3e1d-8a4e-5e8e-ee614b0e0bc0"
      }
    },
    {
      "fullUrl": "urn:uuid:034f3683-c60b-9def-717c-04631fb036dc",
      "resource": {
        "resourceType": "Observation",
        "id": "034f3683-c60b-9def-717c-04631fb036dc",
        "meta": {
          "profile": [
            "http://hl7.org/fhir/us/core/StructureDefinition/us-core-observationresults"
          ]
        },
        "identifier": [
          {
            "system": "urn:ietf:rfc:3986",
            "value": "urn:uuid:ed9589fd-fda0-41f7-a3d0-dc537554f5c2"
          }
        ],
        "category": [
          {
            "coding": [
              {
                "system": "http://terminology.hl7.org/CodeSystem/observation-category",
                "code": "vital-signs"
              }
            ]
          }
        ],
        "status": "final",
        "code": {
          "coding": [
            {
              "code": "8302-2",
              "display": "Height",
              "system": "http://loinc.org"
            }
          ]
        },
        "effectiveDateTime": "2012-09-10",
        "valueQuantity": {
          "value": 177,
          "unit": "cm"
        },
        "interpretation": [
          {
            "coding": [
              {
                "code": "N",
                "system": "http://terminology.hl7.org/CodeSystem/v3-ObservationInterpretation"
              }
            ]
          }
        ],
        "subject": {
          "reference": "Patient/b6d7e193-338c-f580-36eb-156f27ed3541"
        }
      },
      "request": {
        "method": "PUT",
        "url": "Observation/034f3683-c60b-9def-717c-04631fb036dc"
      }
    },
    {
      "fullUrl": "urn:uuid:1cb9c0a5-1f54-5b8d-db15-d0fa7f4e1d8e",
      "resource": {
        "resourceType": "Observation",
        "id": "1cb9c0a5-1f54-5b8d-db15-d0fa7f4e1d8e",
        "meta": {
          "profile": [
            "http://hl7.org/fhir/us/core/StructureDefinition/us-core-observationresults"
          ]
        },
        "identifier": [
          {
            "system": "urn:ietf:rfc:3986",
            "value": "urn:uuid:f4e729e2-a97f-4a7e-8e23-c92f9b6b55cf"
          }
        ],
        "category": [
          {
            "coding": [
              {
                "system": "http://terminology.hl7.org/CodeSystem/observation-category",
                "code": "vital-signs"
              }
            ]
          }
        ],
        "status": "final",
        "code": {
          "coding": [
            {
              "code": "3141-9",
              "display": "Patient Body Weight - Measured",
              "system": "http://loinc.org"
            }
          ]
        },
        "effectiveDateTime": "2012-09-10",
        "valueQuantity": {
          "value": 86,
          "unit": "kg"
        },
        "interpretation": [
          {
            "coding": [
              {
                "code": "N",
                "system": "http://terminology.hl7.org/CodeSystem/v3-ObservationInterpretation"
              }
            ]
          }
        ],
        "subject": {
          "reference": "Patient/b6d7e193-338c-f580-36eb-156f27ed3541"
        }
      },
      "request": {
        "method": "PUT",
        "url": "Observation/1cb9c0a5-1f54-5b8d-db15-d0fa7f4e1d8e"
      }
    },
    {
      "fullUrl": "urn:uuid:1dd6c2d6-1d84-94fd-e0d7-e4195354abba",
      "resource": {
        "resourceType": "Observation",
        "id": "1dd6c2d6-1d84-94fd-e0d7-e4195354abba",
        "meta": {
          "profile": [
            "http://hl7.org/fhir/us/core/StructureDefinition/us-core-observationresults"
          ]
        },
        "identifier": [
          {
            "system": "urn:ietf:rfc:3986",
            "value": "urn:uuid:a0e39c70-9674-4b2a-9837-cdf74200d8d5"
          }
        ],
        "category": [
          {
            "coding": [
              {
                "system": "http://terminology.hl7.org/CodeSystem/observation-category",
                "code": "vital-signs"
              }
            ]
          }
        ],
        "status": "final",
        "code": {
          "coding": [
            {
              "code": "8480-6",
              "display": "Intravascular Systolic",
              "system": "http://loinc.org"
            }
          ]
        },
        "effectiveDateTime": "2012-09-10",
        "valueQuantity": {
          "value": 132,
          "unit": "mm[Hg]"
        },
        "interpretation": [
          {
            "coding": [
              {
                "code": "N",
                "system": "http://terminology.hl7.org/CodeSystem/v3-ObservationInterpretation"
              }
            ]
          }
        ],
        "subject": {
          "reference": "Patient/b6d7e193-338c-f580-36eb-156f27ed3541"
        }
      },
      "request": {
        "method": "PUT",
        "url": "Observation/1dd6c2d6-1d84-94fd-e0d7-e4195354abba"
      }
    },
    {
      "fullUrl": "urn:uuid:4bba0ccc-30ab-18b4-6b87-49cd0b96229d",
      "resource": {
        "resourceType": "Observation",
        "id": "4bba0ccc-30ab-18b4-6b87-49cd0b96229d",
        "meta": {
          "profile": [
            "http://hl7.org/fhir/us/core/StructureDefinition/us-core-observationresults"
          ]
        },
        "identifier": [
          {
            "system": "urn:ietf:rfc:3986",
            "value": "urn:uuid:1c2748b7-e440-41ba-bc01-dde97d84a036"
          }
        ],
        "category": [
          {
            "coding": [
              {
                "system": "http://terminology.hl7.org/CodeSystem/observation-category",
                "code": "vital-signs"
              }
            ]
          }
        ],
        "status": "final",
        "code": {
          "coding": [
            {
              "code": "8462-4",
              "display": "BP Diastolic",
              "system": "http://loinc.org"
            }
          ]
        },
        "effectiveDateTime": "2012-09-10",
        "valueQuantity": {
          "value": 88,
          "unit": "mm[Hg]"
        },
        "interpretation": [
          {
            "coding": [
              {
                "code": "N",
                "system": "http://terminology.hl7.org/CodeSystem/v3-ObservationInterpretation"
              }
            ]
          }
        ],
        "subject": {
          "reference": "Patient/b6d7e193-338c-f580-36eb-156f27ed3541"
        }
      },
      "request": {
        "method": "PUT",
        "url": "Observation/4bba0ccc-30ab-18b4-6b87-49cd0b96229d"
      }
    },
    {
      "fullUrl": "urn:uuid:f1c7764a-8e91-ca98-dbba-fc7afe6a0cc5",
      "resource": {
        "resourceType": "Observation",
        "id": "f1c7764a-8e91-ca98-dbba-fc7afe6a0cc5",
        "meta": {
          "profile": [
            "http://hl7.org/fhir/us/core/StructureDefinition/us-core-observationresults"
          ]
        },
        "identifier": [
          {
            "system": "urn:ietf:rfc:3986",
            "value": "urn:uuid:05c047cd-28c3-41cd-be6c-56f8cc0c3f2f"
          }
        ],
        "category": [
          {
            "coding": [
              {
                "system": "http://terminology.hl7.org/CodeSystem/observation-category",
                "code": "vital-signs"
              }
            ]
          }
        ],
        "status": "final",
        "code": {
          "coding": [
            {
              "code": "8302-2",
              "display": "Height",
              "system": "http://loinc.org"
            }
          ]
        },
        "effectiveDateTime": "2011-09-01",
        "valueQuantity": {
          "value": 177,
          "unit": "cm"
        },
        "interpretation": [
          {
            "coding": [
              {
                "code": "N",
                "system": "http://terminology.hl7.org/CodeSystem/v3-ObservationInterpretation"
              }
            ]
          }
        ],
        "subject": {
          "reference": "Patient/b6d7e193-338c-f580-36eb-156f27ed3541"
        }
      },
      "request": {
        "method": "PUT",
        "url": "Observation/f1c7764a-8e91-ca98-dbba-fc7afe6a0cc5"
      }
    },
    {
      "fullUrl": "urn:uuid:4794996f-5d23-7d2e-26e6-6001dd23f423",
      "resource": {
        "resourceType": "Observation",
        "id": "4794996f-5d23-7d2e-26e6-6001dd23f423",
        "meta": {
          "profile": [
            "http://hl7.org/fhir/us/core/StructureDefinition/us-core-observationresults"
          ]
        },
        "identifier": [
          {
            "system": "urn:ietf:rfc:3986",
            "value": "urn:uuid:21b0f3d5-7d07-4f4f-ad7e-c33dc2ca3835"
          }
        ],
        "category": [
          {
            "coding": [
              {
                "system": "http://terminology.hl7.org/CodeSystem/observation-category",
                "code": "vital-signs"
              }
            ]
          }
        ],
        "status": "final",
        "code": {
          "coding": [
            {
              "code": "3141-9",
              "display": "Patient Body Weight - Measured",
              "system": "http://loinc.org"
            }
          ]
        },
        "effectiveDateTime": "2011-09-01",
        "valueQuantity": {
          "value": 88,
          "unit": "kg"
        },
        "interpretation": [
          {
            "coding": [
              {
                "code": "N",
                "system": "http://terminology.hl7.org/CodeSystem/v3-ObservationInterpretation"
              }
            ]
          }
        ],
        "subject": {
          "reference": "Patient/b6d7e193-338c-f580-36eb-156f27ed3541"
        }
      },
      "request": {
        "method": "PUT",
        "url": "Observation/4794996f-5d23-7d2e-26e6-6001dd23f423"
      }
    },
    {
      "fullUrl": "urn:uuid:b7ed1f38-af38-6d0b-4591-2ee2298ae175",
      "resource": {
        "resourceType": "Observation",
        "id": "b7ed1f38-af38-6d0b-4591-2ee2298ae175",
        "meta": {
          "profile": [
            "http://hl7.org/fhir/us/core/StructureDefinition/us-core-observationresults"
          ]
        },
        "identifier": [
          {
            "system": "urn:ietf:rfc:3986",
            "value": "urn:uuid:b046c35a-59c7-4215-ae09-9a8409a30b21"
          }
        ],
        "category": [
          {
            "coding": [
              {
                "system": "http://terminology.hl7.org/CodeSystem/observation-category",
                "code": "vital-signs"
              }
            ]
          }
        ],
        "status": "final",
        "code": {
          "coding": [
            {
              "code": "8480-6",
              "display": "BP Systolic",
              "system": "http://loinc.org"
            }
          ]
        },
        "effectiveDateTime": "2011-09-01",
        "valueQuantity": {
          "value": 128,
          "unit": "mm[Hg]"
        },
        "interpretation": [
          {
            "coding": [
              {
                "code": "N",
                "system": "http://terminology.hl7.org/CodeSystem/v3-ObservationInterpretation"
              }
            ]
          }
        ],
        "subject": {
          "reference": "Patient/b6d7e193-338c-f580-36eb-156f27ed3541"
        }
      },
      "request": {
        "method": "PUT",
        "url": "Observation/b7ed1f38-af38-6d0b-4591-2ee2298ae175"
      }
    },
    {
      "fullUrl": "urn:uuid:63d352b0-4fc8-ee05-4912-3f3a65d896b4",
      "resource": {
        "resourceType": "Observation",
        "id": "63d352b0-4fc8-ee05-4912-3f3a65d896b4",
        "meta": {
          "profile": [
            "http://hl7.org/fhir/us/core/StructureDefinition/us-core-observationresults"
          ]
        },
        "identifier": [
          {
            "system": "urn:ietf:rfc:3986",
            "value": "urn:uuid:44f54e66-fb4b-4ee5-9ced-9574ef307a23"
          }
        ],
        "category": [
          {
            "coding": [
              {
                "system": "http://terminology.hl7.org/CodeSystem/observation-category",
                "code": "vital-signs"
              }
            ]
          }
        ],
        "status": "final",
        "code": {
          "coding": [
            {
              "code": "8462-4",
              "display": "BP Diastolic",
              "system": "http://loinc.org"
            }
          ]
        },
        "effectiveDateTime": "2011-09-01",
        "valueQuantity": {
          "value": 80,
          "unit": "mm[Hg]"
        },
        "interpretation": [
          {
            "coding": [
              {
                "code": "N",
                "system": "http://terminology.hl7.org/CodeSystem/v3-ObservationInterpretation"
              }
            ]
          }
        ],
        "subject": {
          "reference": "Patient/b6d7e193-338c-f580-36eb-156f27ed3541"
        }
      },
      "request": {
        "method": "PUT",
        "url": "Observation/63d352b0-4fc8-ee05-4912-3f3a65d896b4"
      }
    },
    {
      "fullUrl": "urn:uuid:c7fa6186-8428-e0cd-1767-986047e905cb",
      "resource": {
        "resourceType": "Observation",
        "id": "c7fa6186-8428-e0cd-1767-986047e905cb",
        "meta": {
          "profile": [
            "http://hl7.org/fhir/us/core/StructureDefinition/us-core-observationresults"
          ]
        },
        "identifier": [
          {
            "system": "urn:ietf:rfc:3986",
            "value": "urn:uuid:c12ecaaf-53f8-4593-8f79-359aeaa3948b"
          }
        ],
        "status": "final",
        "code": {
          "coding": [
            {
              "code": "75275-8",
              "display": "Cognitive function",
              "system": "http://loinc.org"
            }
          ]
        },
        "effectiveDateTime": "2013-07-31",
        "valueCodeableConcept": {
          "coding": [
            {
              "code": "11163003",
              "display": "Intact",
              "system": "http://snomed.info/sct"
            }
          ]
        },
        "subject": {
          "reference": "Patient/b6d7e193-338c-f580-36eb-156f27ed3541"
        },
        "performer": [
          {
            "reference": "Practitioner/e1ba9b33-b82e-7558-1732-131914e8e2cc"
          }
        ]
      },
      "request": {
        "method": "PUT",
        "url": "Observation/c7fa6186-8428-e0cd-1767-986047e905cb"
      }
    },
    {
      "fullUrl": "urn:uuid:e1ba9b33-b82e-7558-1732-131914e8e2cc",
      "resource": {
        "resourceType": "Practitioner",
        "id": "e1ba9b33-b82e-7558-1732-131914e8e2cc",
        "meta": {
          "profile": [
            "http://hl7.org/fhir/us/core/StructureDefinition/us-core-practitioner"
          ]
        },
        "identifier": [
          {
            "system": "urn:oid:2.16.840.1.113883.19.5",
            "value": "KP00017"
          }
        ],
        "name": [
          {
            "family": "Amanda",
            "given": [
              "Assigned"
            ]
          }
        ],
        "address": [
          {
            "line": [
              "1003 Health Care Drive"
            ],
            "city": "Ann Arbor",
            "state": "MI",
            "country": "US",
            "postalCode": "02368"
          }
        ],
        "telecom": [
          {
            "system": "phone",
            "value": "+1(555)555-1003",
            "use": "work"
          }
        ]
      },
      "request": {
        "method": "PUT",
        "url": "Practitioner/e1ba9b33-b82e-7558-1732-131914e8e2cc"
      }
    },
    {
      "fullUrl": "urn:uuid:2dd0724b-2ff2-a4ec-374b-38fbb90cc6f8",
      "resource": {
        "resourceType": "Observation",
        "id": "2dd0724b-2ff2-a4ec-374b-38fbb90cc6f8",
        "meta": {
          "profile": [
            "http://hl7.org/fhir/us/core/StructureDefinition/us-core-observationresults"
          ]
        },
        "identifier": [
          {
            "system": "urn:ietf:rfc:3986",
            "value": "urn:uuid:c6b5a04b-2bf4-49d1-8336-636a3813df0a"
          }
        ],
        "status": "final",
        "code": {
          "coding": [
            {
              "code": "75275-8",
              "display": "Cognitive function",
              "system": "http://loinc.org"
            }
          ]
        },
        "effectiveDateTime": "2013-07-31",
        "valueCodeableConcept": {
          "coding": [
            {
              "code": "61372001",
              "display": "Aggressive behavior",
              "system": "http://snomed.info/sct"
            }
          ]
        },
        "subject": {
          "reference": "Patient/b6d7e193-338c-f580-36eb-156f27ed3541"
        },
        "performer": [
          {
            "reference": "Practitioner/e1ba9b33-b82e-7558-1732-131914e8e2cc"
          }
        ]
      },
      "request": {
        "method": "PUT",
        "url": "Observation/2dd0724b-2ff2-a4ec-374b-38fbb90cc6f8"
      }
    },
    {
      "fullUrl": "urn:uuid:070b5bca-2a26-3b1e-48f5-8512e0b39a6a",
      "resource": {
        "resourceType": "Observation",
        "id": "070b5bca-2a26-3b1e-48f5-8512e0b39a6a",
        "meta": {
          "profile": [
            "http://hl7.org/fhir/us/core/StructureDefinition/us-core-observationresults"
          ]
        },
        "identifier": [
          {
            "system": "urn:ietf:rfc:3986",
            "value": "urn:uuid:c6b5a04b-2bf4-49d1-8336-636a3813df0a"
          }
        ],
        "status": "final",
        "code": {
          "coding": [
            {
              "code": "75275-8",
              "display": "Cognitive function",
              "system": "http://loinc.org"
            }
          ]
        },
        "effectiveDateTime": "2013-07-31",
        "valueCodeableConcept": {
          "coding": [
            {
              "code": "286569004",
              "display": "difficulty understanding own emotions",
              "system": "http://snomed.info/sct"
            }
          ]
        },
        "subject": {
          "reference": "Patient/b6d7e193-338c-f580-36eb-156f27ed3541"
        },
        "performer": [
          {
            "reference": "Practitioner/e1ba9b33-b82e-7558-1732-131914e8e2cc"
          }
        ]
      },
      "request": {
        "method": "PUT",
        "url": "Observation/070b5bca-2a26-3b1e-48f5-8512e0b39a6a"
      }
    },
    {
      "fullUrl": "urn:uuid:3424448c-db3c-057f-299d-0401ef5ea473",
      "resource": {
        "resourceType": "Observation",
        "id": "3424448c-db3c-057f-299d-0401ef5ea473",
        "meta": {
          "profile": [
            "http://hl7.org/fhir/us/core/StructureDefinition/us-core-observationresults"
          ]
        },
        "identifier": [
          {
            "system": "urn:ietf:rfc:3986",
            "value": "urn:uuid:c6b5a04b-2bf4-49d1-8336-636a3813df0a"
          }
        ],
        "status": "final",
        "code": {
          "coding": [
            {
              "code": "75275-8",
              "display": "Cognitive function",
              "system": "http://loinc.org"
            }
          ]
        },
        "effectiveDateTime": "2013-07-31",
        "valueCodeableConcept": {
          "coding": [
            {
              "code": "288760009",
              "display": "difficulty communicating thoughts",
              "system": "http://snomed.info/sct"
            }
          ]
        },
        "subject": {
          "reference": "Patient/b6d7e193-338c-f580-36eb-156f27ed3541"
        },
        "performer": [
          {
            "reference": "Practitioner/e1ba9b33-b82e-7558-1732-131914e8e2cc"
          }
        ]
      },
      "request": {
        "method": "PUT",
        "url": "Observation/3424448c-db3c-057f-299d-0401ef5ea473"
      }
    },
    {
      "fullUrl": "urn:uuid:ed9773bf-2c11-08fa-5d4a-f5e2712fb366",
      "resource": {
        "resourceType": "Observation",
        "id": "ed9773bf-2c11-08fa-5d4a-f5e2712fb366",
        "meta": {
          "profile": [
            "http://hl7.org/fhir/us/core/StructureDefinition/us-core-observationresults"
          ]
        },
        "identifier": [
          {
            "system": "urn:ietf:rfc:3986",
            "value": "urn:uuid:c12ecaaf-53f8-4593-8f79-359aeaa3948b"
          }
        ],
        "status": "final",
        "code": {
          "coding": [
            {
              "code": "75305-3",
              "display": "Nutrition status ",
              "system": "http://loinc.org"
            }
          ]
        },
        "effectiveDateTime": "2013-05-12",
        "valueCodeableConcept": {
          "coding": [
            {
              "code": "248324001",
              "display": "well nourished",
              "system": "http://snomed.info/sct"
            }
          ]
        },
        "subject": {
          "reference": "Patient/b6d7e193-338c-f580-36eb-156f27ed3541"
        }
      },
      "request": {
        "method": "PUT",
        "url": "Observation/ed9773bf-2c11-08fa-5d4a-f5e2712fb366"
      }
    },
    {
      "fullUrl": "urn:uuid:d37b032f-2210-ed28-f1ef-4b131a64dc65",
      "resource": {
        "resourceType": "Observation",
        "id": "d37b032f-2210-ed28-f1ef-4b131a64dc65",
        "meta": {
          "profile": [
            "http://hl7.org/fhir/us/core/StructureDefinition/us-core-observationresults"
          ]
        },
        "identifier": [
          {
            "system": "urn:ietf:rfc:3986",
            "value": "urn:uuid:ab1791b0-5c71-11db-b0de-0800200c9a66"
          }
        ],
        "status": "final",
        "code": {
          "coding": [
            {
              "code": "75303-8",
              "display": "Nutrition assessment",
              "system": "http://loinc.org"
            }
          ]
        },
        "effectiveDateTime": "2013-05-12",
        "valueCodeableConcept": {
          "coding": [
            {
              "code": "386619000",
              "display": "low sodium diet (finding)",
              "system": "http://snomed.info/sct"
            }
          ]
        },
        "subject": {
          "reference": "Patient/b6d7e193-338c-f580-36eb-156f27ed3541"
        },
        "performer": [
          {
            "reference": "Practitioner/08161958-acd8-1ccb-1416-a6a3b9a2c973"
          }
        ]
      },
      "request": {
        "method": "PUT",
        "url": "Observation/d37b032f-2210-ed28-f1ef-4b131a64dc65"
      }
    },
    {
      "fullUrl": "urn:uuid:1431f1c2-18f8-d1b9-6f3c-0a59bc4694d2",
      "resource": {
        "resourceType": "Observation",
        "id": "1431f1c2-18f8-d1b9-6f3c-0a59bc4694d2",
        "meta": {
          "profile": [
            "http://hl7.org/fhir/us/core/StructureDefinition/us-core-observationresults"
          ]
        },
        "identifier": [
          {
            "system": "urn:ietf:rfc:3986",
            "value": "urn:uuid:ab1791b0-5c71-11db-b0de-0800200c9a66"
          }
        ],
        "status": "final",
        "code": {
          "coding": [
            {
              "code": "75303-8",
              "display": "Nutrition assessment",
              "system": "http://loinc.org"
            }
          ]
        },
        "effectiveDateTime": "2013-05-12",
        "valueCodeableConcept": {
          "coding": [
            {
              "code": "430186007",
              "display": "excessive dietary carbohydrate intake(finding)",
              "system": "http://snomed.info/sct"
            }
          ]
        },
        "subject": {
          "reference": "Patient/b6d7e193-338c-f580-36eb-156f27ed3541"
        },
        "performer": [
          {
            "reference": "Practitioner/08161958-acd8-1ccb-1416-a6a3b9a2c973"
          }
        ]
      },
      "request": {
        "method": "PUT",
        "url": "Observation/1431f1c2-18f8-d1b9-6f3c-0a59bc4694d2"
      }
    },
    {
      "fullUrl": "urn:uuid:ec57a6db-452b-8243-3f53-596ed5c4ca15",
      "resource": {
        "resourceType": "DocumentReference",
        "id": "ec57a6db-452b-8243-3f53-596ed5c4ca15",
        "type": {
          "coding": [
            {
              "code": "11488-4",
              "display": "Consultation Note",
              "system": "http://loinc.org"
            }
          ]
        },
        "date": "2021-05-06T07:59:47.695Z",
        "status": "current",
        "content": [
          {
            "attachment": {
              "contentType": "text/plain",
              "data": "",
              "hash": "MTg5OGRkNDg3ODlmNjMwZTIwNjhhMzQzYTkyNmE3OGJjZDIwYTgxOA=="
            }
          }
        ]
      },
      "request": {
        "method": "PUT",
        "url": "DocumentReference/ec57a6db-452b-8243-3f53-596ed5c4ca15"
      }
    }
  ]
}