{
    "resourceType": "Bundle",
    "type": "transaction",
    "entry": [
        {
            "fullUrl": "urn:uuid:dda8c6b4-bbb0-3322-aafb-f4d73ac2a605",
            "resource": {
                "resourceType": "Patient",
                "id": "dda8c6b4-bbb0-3322-aafb-f4d73ac2a605",
                "identifier": [
                    {
                        "value": "90012",
                        "type": {
                            "coding": [
                                {
                                    "code": "MR",
                                    "system": "http://terminology.hl7.org/CodeSystem/v2-0203"
                                }
                            ]
                        }
                    }
                ],
                "name": [
                    {
                        "family": "Wong",
                        "given": [
                            "Elise"
                        ],
                        "use": "official"
                    }
                ],
                "birthDate": "1983-06-15",
                "gender": "female",
                "address": [
                    {
                        "line": [
                            "9200 Wellington Trail"
                        ],
                        "city": "Bozeman",
                        "state": "MT",
                        "postalCode": "59715",
                        "country": "USA"
                    }
                ],
                "telecom": [
                    {
                        "use": "home"
                    },
                    {
                        "use": "home"
                    }
                ],
                "multipleBirthInteger": "1",
                "deceasedBoolean": "false",
                "active": "true"
            },
            "request": {
                "method": "PUT",
                "url": "Patient/dda8c6b4-bbb0-3322-aafb-f4d73ac2a605"
            }
        },
        {
            "fullUrl": "urn:uuid:ac5e5965-04d0-3692-8d28-cbd670bba882",
            "resource": {
                "resourceType": "Immunization",
                "id": "ac5e5965-04d0-3692-8d28-cbd670bba882",
                "identifier": [
                    {
                        "value": "4422",
                        "type": {
                            "coding": [
                                {
                                    "code": "PLAC",
                                    "system": "http://terminology.hl7.org/CodeSystem/v2-0203"
                                }
                            ]
                        }
                    },
                    {
                        "value": "13696",
                        "type": {
                            "coding": [
                                {
                                    "code": "FILL",
                                    "system": "http://terminology.hl7.org/CodeSystem/v2-0203"
                                }
                            ]
                        }
                    }
                ],
                "performer": [
                    {
                        "function": {
                            "coding": [
                                {
                                    "code": "OP",
                                    "system": "http://terminology.hl7.org/CodeSystem/v2-0443"
                                }
                            ]
                        }
                    },
                    {
                        "function": {
                            "coding": [
                                {
                                    "code": "AP",
                                    "system": "http://terminology.hl7.org/CodeSystem/v2-0443"
                                }
                            ]
                        }
                    }
                ],
                "patient": {
                    "reference": "Patient/dda8c6b4-bbb0-3322-aafb-f4d73ac2a605"
                },
                "occurrenceDateTime": "2015-06-24",
                "vaccineCode": {
                    "coding": [
                        {
                            "code": "49281-0215-88",
                            "display": "TENIVAC",
                            "system": "NDC"
                        }
                    ]
                },
                "lotNumber": "315841",
                "expirationDate": "2015-12-16",
                "status": "completed"
            },
            "request": {
                "method": "PUT",
                "url": "Immunization/ac5e5965-04d0-3692-8d28-cbd670bba882"
            }
        },
        {
            "fullUrl": "urn:uuid:2be16a94-fd97-3801-82ca-e33094f3e642",
            "resource": {
                "resourceType": "Observation",
                "id": "2be16a94-fd97-3801-82ca-e33094f3e642",
                "code": {
                    "coding": [
                        {
                            "code": "30963-3",
                            "display": "Vaccine Funding Source",
                            "system": "LN"
                        }
                    ]
                },
                "valueCodeableConcept": {
                    "coding": [
                        {
                            "code": "PHC70",
                            "display": "Private",
                            "system": "CDCPHINVS"
                        }
                    ]
                },
                "status": "final",
                "effectiveDateTime": "2015-06-24",
                "component": [
                    {
                        "code": {
                            "coding": [
                                {
                                    "code": "30963-3",
                                    "display": "Vaccine Funding Source",
                                    "system": "LN"
                                }
                            ]
                        }
                    }
                ],
                "partOf": [
                    {
                        "reference": "Immunization/ac5e5965-04d0-3692-8d28-cbd670bba882"
                    }
                ],
                "subject": {
                    "reference": "Patient/dda8c6b4-bbb0-3322-aafb-f4d73ac2a605"
                }
            },
            "request": {
                "method": "PUT",
                "url": "Observation/2be16a94-fd97-3801-82ca-e33094f3e642"
            }
        },
        {
            "fullUrl": "urn:uuid:085215f9-0dd2-3765-aea4-0543f4efb868",
            "resource": {
                "resourceType": "Observation",
                "id": "085215f9-0dd2-3765-aea4-0543f4efb868",
                "code": {
                    "coding": [
                        {
                            "code": "64994-7",
                            "display": "Vaccine Funding Program Eligibility",
                            "system": "LN"
                        }
                    ]
                },
                "valueCodeableConcept": {
                    "coding": [
                        {
                            "code": "V01",
                            "display": "Not VFC Eligible",
                            "system": "HL70064"
                        }
                    ]
                },
                "status": "final",
                "effectiveDateTime": "2015-06-24",
                "component": [
                    {
                        "code": {
                            "coding": [
                                {
                                    "code": "64994-7",
                                    "display": "Vaccine Funding Program Eligibility",
                                    "system": "LN"
                                }
                            ]
                        }
                    }
                ],
                "partOf": [
                    {
                        "reference": "Immunization/ac5e5965-04d0-3692-8d28-cbd670bba882"
                    }
                ],
                "subject": {
                    "reference": "Patient/dda8c6b4-bbb0-3322-aafb-f4d73ac2a605"
                }
            },
            "request": {
                "method": "PUT",
                "url": "Observation/085215f9-0dd2-3765-aea4-0543f4efb868"
            }
        },
        {
            "fullUrl": "urn:uuid:cd0fdb8b-5057-310a-8c03-9cfa8496012a",
            "resource": {
                "resourceType": "Observation",
                "id": "cd0fdb8b-5057-310a-8c03-9cfa8496012a",
                "code": {
                    "coding": [
                        {
                            "code": "69764-9",
                            "display": "Document Type",
                            "system": "LN"
                        }
                    ]
                },
                "valueCodeableConcept": {
                    "coding": [
                        {
                            "code": "253088698300028811170411",
                            "display": "Tetanus/Diphtheria (Td) Vaccine VIS",
                            "system": "cdcgs1vis"
                        }
                    ]
                },
                "status": "final",
                "effectiveDateTime": "2015-06-24",
                "component": [
                    {
                        "code": {
                            "coding": [
                                {
                                    "code": "69764-9",
                                    "display": "Document Type",
                                    "system": "LN"
                                }
                            ]
                        }
                    }
                ],
                "partOf": [
                    {
                        "reference": "Immunization/ac5e5965-04d0-3692-8d28-cbd670bba882"
                    }
                ],
                "subject": {
                    "reference": "Patient/dda8c6b4-bbb0-3322-aafb-f4d73ac2a605"
                }
            },
            "request": {
                "method": "PUT",
                "url": "Observation/cd0fdb8b-5057-310a-8c03-9cfa8496012a"
            }
        },
        {
            "fullUrl": "urn:uuid:73dfee4d-2371-3fc8-8fdb-5c8c7e4e1e72",
            "resource": {
                "resourceType": "Observation",
                "id": "73dfee4d-2371-3fc8-8fdb-5c8c7e4e1e72",
                "code": {
                    "coding": [
                        {
                            "code": "29769-7",
                            "display": "Date Vis Presented",
                            "system": "LN"
                        }
                    ]
                },
                "valueDateTime": "2015-06-24",
                "status": "final",
                "effectiveDateTime": "2015-06-24",
                "component": [
                    {
                        "code": {
                            "coding": [
                                {
                                    "code": "29769-7",
                                    "display": "Date Vis Presented",
                                    "system": "LN"
                                }
                            ]
                        },
                        "valueDateTime": "2015-06-24"
                    }
                ],
                "partOf": [
                    {
                        "reference": "Immunization/ac5e5965-04d0-3692-8d28-cbd670bba882"
                    }
                ],
                "subject": {
                    "reference": "Patient/dda8c6b4-bbb0-3322-aafb-f4d73ac2a605"
                }
            },
            "request": {
                "method": "PUT",
                "url": "Observation/73dfee4d-2371-3fc8-8fdb-5c8c7e4e1e72"
            }
        },
        {
            "fullUrl": "urn:uuid:97c92c21-d8e1-3900-90f2-3d6d4e257931",
            "resource": {
                "resourceType": "Immunization",
                "id": "97c92c21-d8e1-3900-90f2-3d6d4e257931",
                "identifier": [
                    {
                        "value": "38760",
                        "type": {
                            "coding": [
                                {
                                    "code": "FILL",
                                    "system": "http://terminology.hl7.org/CodeSystem/v2-0203"
                                }
                            ]
                        }
                    }
                ],
                "patient": {
                    "reference": "Patient/dda8c6b4-bbb0-3322-aafb-f4d73ac2a605"
                },
                "occurrenceDateTime": "2014-10-12",
                "vaccineCode": {
                    "coding": [
                        {
                            "code": "88",
                            "display": "influenza, unspecified formulation",
                            "system": "CVX"
                        }
                    ]
                },
                "status": "completed"
            },
            "request": {
                "method": "PUT",
                "url": "Immunization/97c92c21-d8e1-3900-90f2-3d6d4e257931"
            }
        },
        {
            "fullUrl": "urn:uuid:4786bb34-29bf-3f58-8ebe-5005f2849fb4",
            "resource": {
                "resourceType": "Immunization",
                "id": "4786bb34-29bf-3f58-8ebe-5005f2849fb4",
                "identifier": [
                    {
                        "value": "35508",
                        "type": {
                            "coding": [
                                {
                                    "code": "FILL",
                                    "system": "http://terminology.hl7.org/CodeSystem/v2-0203"
                                }
                            ]
                        }
                    }
                ],
                "patient": {
                    "reference": "Patient/dda8c6b4-bbb0-3322-aafb-f4d73ac2a605"
                },
                "occurrenceDateTime": "2013-11-12",
                "vaccineCode": {
                    "coding": [
                        {
                            "code": "88",
                            "display": "influenza, unspecified formulation",
                            "system": "CVX"
                        }
                    ]
                },
                "status": "completed"
            },
            "request": {
                "method": "PUT",
                "url": "Immunization/4786bb34-29bf-3f58-8ebe-5005f2849fb4"
            }
        }
    ]
}