{
  "resourceType": "Bundle",
  "type": "batch",
  "entry": [
    {
      "fullUrl": "urn:uuid:5c2fce20-72fc-16a4-a566-14da8975e24e",
      "resource": {
        "resourceType": "Composition",
        "id": "5c2fce20-72fc-16a4-a566-14da8975e24e",
        "identifier": {
          "use": "official",
          "value": "2.16.840.1.113883.19.5.99999.1"
        },
        "status": "final",
        "type": {
          "coding": [
            {
              "code": "11488-4",
              "display": "Consultation Note",
              "system": "http://loinc.org"
            }
          ]
        },
        "date": "2018-06-23T09:00:00-08:00",
        "title": "Community Health Consult Note",
        "confidentiality": "N",
        "subject": {
          "reference": "Patient/75d72dd1-7f86-8a14-d4db-94b59ddc3627"
        },
        "encounter": {
          "reference": "Encounter/10f50b3e-c967-023f-fa99-b7b1deceefae"
        },
        "custodian": {
          "reference": "Organization/d9b17f7a-c973-98ba-d798-05a68eafe519"
        },
        "author": [
          {
            "reference": "Practitioner/08161958-acd8-1ccb-1416-a6a3b9a2c973"
          }
        ]
      },
      "request": {
        "method": "PUT",
        "url": "Composition/5c2fce20-72fc-16a4-a566-14da8975e24e"
      }
    },
    {
      "fullUrl": "urn:uuid:10f50b3e-c967-023f-fa99-b7b1deceefae",
      "resource": {
        "resourceType": "Encounter",
        "id": "10f50b3e-c967-023f-fa99-b7b1deceefae",
        "status": "unknown",
        "class": {
          "code": "99213",
          "display": "Evaluation and Management",
          "system": "http://www.ama-assn.org/go/cpt"
        },
        "identifier": [
          {
            "system": "urn:oid:2.16.840.1.113883.19",
            "value": "9937012"
          }
        ],
        "location": [
          {
            "location": {
              "reference": "Location/6dfdc7c6-e225-71eb-cec1-75870e529061"
            }
          }
        ]
      },
      "request": {
        "method": "PUT",
        "url": "Encounter/10f50b3e-c967-023f-fa99-b7b1deceefae"
      }
    },
    {
      "fullUrl": "urn:uuid:6dfdc7c6-e225-71eb-cec1-75870e529061",
      "resource": {
        "resourceType": "Location",
        "id": "6dfdc7c6-e225-71eb-cec1-75870e529061"
      },
      "request": {
        "method": "PUT",
        "url": "Location/6dfdc7c6-e225-71eb-cec1-75870e529061"
      }
    },
    {
      "fullUrl": "urn:uuid:d9b17f7a-c973-98ba-d798-05a68eafe519",
      "resource": {
        "resourceType": "Organization",
        "id": "d9b17f7a-c973-98ba-d798-05a68eafe519",
        "identifier": [
          {
            "system": "http://hl7.org/fhir/sid/us-npi",
            "value": "321CX"
          }
        ],
        "name": "Good Health HIE",
        "address": [
          {
            "use": "work",
            "line": [
              "1009 Healthcare Drive "
            ],
            "city": "Portland",
            "state": "OR",
            "country": "US",
            "postalCode": "99123"
          }
        ],
        "telecom": [
          {
            "system": "phone",
            "value": "+1(555)-1009",
            "use": "work"
          }
        ]
      },
      "request": {
        "method": "PUT",
        "url": "Organization/d9b17f7a-c973-98ba-d798-05a68eafe519"
      }
    },
    {
      "fullUrl": "urn:uuid:08161958-acd8-1ccb-1416-a6a3b9a2c973",
      "resource": {
        "resourceType": "Practitioner",
        "id": "08161958-acd8-1ccb-1416-a6a3b9a2c973",
        "meta": {
          "profile": [
            "http://hl7.org/fhir/us/core/StructureDefinition/us-core-practitioner"
          ]
        },
        "identifier": [
          {
            "system": "http://hl7.org/fhir/sid/us-npi",
            "value": "555555555"
          }
        ],
        "name": [
          {
            "family": "Primary",
            "given": [
              "Patricia",
              "Patty"
            ],
            "suffix": [
              "M.D."
            ]
          }
        ],
        "address": [
          {
            "line": [
              "1004 Healthcare Drive "
            ],
            "city": "Portland",
            "state": "OR",
            "country": "US",
            "postalCode": "99123"
          }
        ],
        "telecom": [
          {
            "system": "phone",
            "value": "+1(555)-1004",
            "use": "work"
          }
        ],
        "qualification": [
          {
            "code": {
              "coding": [
                {
                  "code": "207QA0505X",
                  "display": "Adult Medicine",
                  "system": "http://nucc.org/provider-taxonomy"
                }
              ]
            }
          }
        ]
      },
      "request": {
        "method": "PUT",
        "url": "Practitioner/08161958-acd8-1ccb-1416-a6a3b9a2c973"
      }
    },
    {
      "fullUrl": "urn:uuid:75d72dd1-7f86-8a14-d4db-94b59ddc3627",
      "resource": {
        "resourceType": "Patient",
        "id": "75d72dd1-7f86-8a14-d4db-94b59ddc3627",
        "meta": {
          "profile": [
            "http://hl7.org/fhir/us/core/StructureDefinition/us-core-patient"
          ]
        },
        "identifier": [
          {
            "system": "http://hl7.org/fhir/sid/us-ssn",
            "value": "000-00-0000"
          }
        ],
        "name": [
          {
            "use": "usual",
            "family": "Betterhalf",
            "given": [
              "Eve"
            ]
          },
          {
            "family": "Everywoman",
            "given": [
              "Eve"
            ]
          }
        ],
        "birthDate": "1975-05-01",
        "gender": "female",
        "extension": [
          {
            "url": "http://hl7.org/fhir/us/core/StructureDefinition/us-core-race",
            "extension": [
              {
                "url": "ombCategory",
                "valueCoding": {
                  "code": "2106-3",
                  "display": "White"
                }
              },
              {
                "url": "ombCategory",
                "valueCoding": {
                  "code": "2076-8",
                  "display": "Hawaiian or Other Pacific Islander"
                }
              },
              {
                "url": "text",
                "valueString": "Mixed"
              }
            ]
          },
          {
            "url": "http://hl7.org/fhir/us/core/StructureDefinition/us-core-ethnicity",
            "extension": [
              {
                "url": "ombCategory",
                "valueCoding": {
                  "code": "2186-5",
                  "display": "Not Hispanic or Latino"
                }
              },
              {
                "url": "text",
                "valueString": "Not Hispanic or Latino"
              }
            ]
          }
        ],
        "address": [
          {
            "use": "home",
            "line": [
              "2222 Home Street"
            ],
            "city": "Beaverton",
            "state": "OR",
            "country": "US",
            "postalCode": "97867"
          }
        ],
        "telecom": [
          {
            "system": "phone",
            "value": "+1(555)555-2003",
            "use": "home"
          }
        ],
        "communication": [
          {
            "language": {
              "coding": [
                {
                  "system": "urn:ietf:bcp:47",
                  "code": "en",
                  "display": "English"
                }
              ]
            },
            "preferred": true
          }
        ]
      },
      "request": {
        "method": "PUT",
        "url": "Patient/75d72dd1-7f86-8a14-d4db-94b59ddc3627"
      }
    },
    {
      "fullUrl": "urn:uuid:1e516bfc-532c-65a4-45e2-e8536f0eb630",
      "resource": {
        "resourceType": "RelatedPerson",
        "id": "1e516bfc-532c-65a4-45e2-e8536f0eb630",
        "relationship": [
          {
            "coding": [
              {
                "code": "POWATT",
                "display": "Power of Attorney",
                "system": "urn:oid:2.16.840.1.113883.1.11.19830"
              }
            ]
          }
        ],
        "name": [
          {
            "family": "Betterhalf",
            "given": [
              "Boris",
              "Bo"
            ]
          }
        ],
        "telecom": [
          {
            "system": "phone",
            "value": "+1(555)555-2008",
            "use": "mobile"
          }
        ],
        "address": [
          {
            "use": "home",
            "line": [
              "2222 Home Street"
            ],
            "city": "Beaverton",
            "state": "OR",
            "country": "US",
            "postalCode": "97867"
          }
        ],
        "patient": {
          "reference": "Patient/75d72dd1-7f86-8a14-d4db-94b59ddc3627"
        }
      },
      "request": {
        "method": "PUT",
        "url": "RelatedPerson/1e516bfc-532c-65a4-45e2-e8536f0eb630"
      }
    },
    {
      "fullUrl": "urn:uuid:e0c97642-0168-79bd-a88f-928e48361894",
      "resource": {
        "resourceType": "DocumentReference",
        "id": "e0c97642-0168-79bd-a88f-928e48361894",
        "type": {
          "coding": [
            {
              "code": "11488-4",
              "display": "Consultation Note",
              "system": "http://loinc.org"
            }
          ]
        },
        "date": "2022-03-25T08:35:32.049Z",
        "status": "current",
        "content": [
          {
            "attachment": {
              "contentType": "text/plain",
              "data": "",
              "hash": "ZDA4YzdjN2UwMTlhM2I5ODAyYTVkMDE0ZTcxZDdiOWE5ZDg0ZTBhYw=="
            }
          }
        ]
      },
      "request": {
        "method": "PUT",
        "url": "DocumentReference/e0c97642-0168-79bd-a88f-928e48361894"
      }
    }
  ]
}