{
  "resourceType": "Bundle",
  "type": "batch",
  "entry": [
    {
      "fullUrl": "urn:uuid:858046dd-f87f-93e7-62ed-12dbd0d966fa",
      "resource": {
        "resourceType": "Composition",
        "id": "858046dd-f87f-93e7-62ed-12dbd0d966fa",
        "identifier": {
          "use": "official",
          "value": "2.16.840.1.113883.19.5.99999.1"
        },
        "status": "final",
        "type": {
          "coding": [
            {
              "code": "18842-5",
              "display": "Discharge summarization note",
              "system": "http://loinc.org"
            }
          ]
        },
        "date": "2014-09-17T19:04:00-05:00",
        "title": "Community Health and Hospitals: Discharge Summary",
        "confidentiality": "N",
        "attester": [
          {
            "mode": "legal",
            "time": "2014-09-17T19:04:00-05:00",
            "party": {
              "reference": "Practitioner/151bd63c-93e9-9838-dd94-f74d3b63be52"
            }
          }
        ],
        "event": [
          {
            "period": {
              "start": "2014-09-09T19:04:00-05:00",
              "end": "2014-09-16T19:04:00-05:00"
            }
          }
        ],
        "section": [
          {
            "title": "ADMISSION DIAGNOSIS",
            "text": {
              "status": "generated",
              "div": "<div xmlns=\"http://www.w3.org/1999/xhtml\">ADMISSION DIAGNOSIS</div>"
            },
            "code": {
              "coding": [
                {
                  "code": "42347-5",
                  "display": "Admission Diagnosis",
                  "system": "http://loinc.org"
                }
              ]
            },
            "mode": "snapshot"
          },
          {
            "title": "ALLERGIES, ADVERSE REACTIONS, ALERTS",
            "text": {
              "status": "generated",
              "div": "<div xmlns=\"http://www.w3.org/1999/xhtml\">ALLERGIES, ADVERSE REACTIONS, ALERTS</div>"
            },
            "code": {
              "coding": [
                {
                  "code": "48765-2",
                  "system": "http://loinc.org"
                }
              ]
            },
            "mode": "snapshot"
          },
          {
            "title": "REASON FOR VISIT/CHIEF COMPLAINT",
            "text": {
              "status": "generated",
              "div": "<div xmlns=\"http://www.w3.org/1999/xhtml\">REASON FOR VISIT/CHIEF COMPLAINT</div>"
            },
            "code": {
              "coding": [
                {
                  "code": "46239-0",
                  "display": "REASON FOR VISIT + CHIEF COMPLAINT",
                  "system": "http://loinc.org"
                }
              ]
            },
            "mode": "snapshot"
          },
          {
            "title": "DISCHARGE DIAGNOSIS",
            "text": {
              "status": "generated",
              "div": "<div xmlns=\"http://www.w3.org/1999/xhtml\">DISCHARGE DIAGNOSIS</div>"
            },
            "code": {
              "coding": [
                {
                  "code": "11535-2",
                  "display": "Hospital Discharge Diagnosis",
                  "system": "http://loinc.org"
                }
              ]
            },
            "mode": "snapshot"
          },
          {
            "title": "DISCHARGE MEDICATIONS",
            "text": {
              "status": "generated",
              "div": "<div xmlns=\"http://www.w3.org/1999/xhtml\">DISCHARGE MEDICATIONS</div>"
            },
            "code": {
              "coding": [
                {
                  "code": "75311-1",
                  "display": "Discharge Medications",
                  "system": "http://loinc.org"
                }
              ]
            },
            "mode": "snapshot"
          },
          {
            "title": "FAMILY HISTORY",
            "text": {
              "status": "generated",
              "div": "<div xmlns=\"http://www.w3.org/1999/xhtml\">FAMILY HISTORY</div>"
            },
            "code": {
              "coding": [
                {
                  "code": "10157-6",
                  "system": "http://loinc.org"
                }
              ]
            },
            "mode": "snapshot"
          },
          {
            "title": "Functional Status",
            "text": {
              "status": "generated",
              "div": "<div xmlns=\"http://www.w3.org/1999/xhtml\">Functional Status</div>"
            },
            "code": {
              "coding": [
                {
                  "code": "47420-5",
                  "system": "http://loinc.org"
                }
              ]
            },
            "mode": "snapshot"
          },
          {
            "title": "PAST MEDICAL HISTORY",
            "text": {
              "status": "generated",
              "div": "<div xmlns=\"http://www.w3.org/1999/xhtml\">PAST MEDICAL HISTORY</div>"
            },
            "code": {
              "coding": [
                {
                  "code": "11348-0",
                  "display": "HISTORY OF PAST ILLNESS",
                  "system": "http://loinc.org"
                }
              ]
            },
            "mode": "snapshot"
          },
          {
            "title": "HISTORY OF PRESENT ILLNESS",
            "text": {
              "status": "generated",
              "div": "<div xmlns=\"http://www.w3.org/1999/xhtml\">HISTORY OF PRESENT ILLNESS</div>"
            },
            "code": {
              "coding": [
                {
                  "code": "10164-2",
                  "display": "HISTORY OF PRESENT ILLNESS",
                  "system": "http://loinc.org"
                }
              ]
            },
            "mode": "snapshot"
          },
          {
            "title": "HOSPITAL CONSULTATIONS",
            "text": {
              "status": "generated",
              "div": "<div xmlns=\"http://www.w3.org/1999/xhtml\">HOSPITAL CONSULTATIONS</div>"
            },
            "code": {
              "coding": [
                {
                  "code": "18841-7",
                  "display": "Hospital Consultations Section",
                  "system": "http://loinc.org"
                }
              ]
            },
            "mode": "snapshot"
          },
          {
            "title": "HOSPITAL COURSE",
            "text": {
              "status": "generated",
              "div": "<div xmlns=\"http://www.w3.org/1999/xhtml\">HOSPITAL COURSE</div>"
            },
            "code": {
              "coding": [
                {
                  "code": "8648-8",
                  "display": "HOSPITAL COURSE",
                  "system": "http://loinc.org"
                }
              ]
            },
            "mode": "snapshot"
          },
          {
            "title": "HOSPITAL DISCHARGE INSTRUCTIONS",
            "text": {
              "status": "generated",
              "div": "<div xmlns=\"http://www.w3.org/1999/xhtml\">HOSPITAL DISCHARGE INSTRUCTIONS</div>"
            },
            "code": {
              "coding": [
                {
                  "code": "8653-8",
                  "display": "HOSPITAL DISCHARGE INSTRUCTIONS",
                  "system": "http://loinc.org"
                }
              ]
            },
            "mode": "snapshot"
          },
          {
            "title": "HOSPITAL DISCHARGE PHYSICAL",
            "text": {
              "status": "generated",
              "div": "<div xmlns=\"http://www.w3.org/1999/xhtml\">HOSPITAL DISCHARGE PHYSICAL</div>"
            },
            "code": {
              "coding": [
                {
                  "code": "10184-0",
                  "display": "HOSPITAL DISCHARGE PHYSICAL",
                  "system": "http://loinc.org"
                }
              ]
            },
            "mode": "snapshot"
          },
          {
            "title": "HOSPITAL DISCHARGE STUDIES SUMMARY",
            "text": {
              "status": "generated",
              "div": "<div xmlns=\"http://www.w3.org/1999/xhtml\">HOSPITAL DISCHARGE STUDIES SUMMARY</div>"
            },
            "code": {
              "coding": [
                {
                  "code": "11493-4",
                  "display": "HOSPITAL DISCHARGE STUDIES SUMMARY",
                  "system": "http://loinc.org"
                }
              ]
            },
            "mode": "snapshot"
          },
          {
            "title": "IMMUNIZATIONS",
            "text": {
              "status": "generated",
              "div": "<div xmlns=\"http://www.w3.org/1999/xhtml\">IMMUNIZATIONS</div>"
            },
            "code": {
              "coding": [
                {
                  "code": "11369-6",
                  "display": "History of immunizations",
                  "system": "http://loinc.org"
                }
              ]
            },
            "mode": "snapshot"
          },
          {
            "title": "PLAN OF CARE",
            "text": {
              "status": "generated",
              "div": "<div xmlns=\"http://www.w3.org/1999/xhtml\">PLAN OF CARE</div>"
            },
            "code": {
              "coding": [
                {
                  "code": "18776-5",
                  "display": "Treatment plan",
                  "system": "http://loinc.org"
                }
              ]
            },
            "mode": "snapshot"
          },
          {
            "title": "Problem List",
            "text": {
              "status": "generated",
              "div": "<div xmlns=\"http://www.w3.org/1999/xhtml\">Problem List</div>"
            },
            "code": {
              "coding": [
                {
                  "code": "11450-4",
                  "display": "Problem List",
                  "system": "http://loinc.org"
                }
              ]
            },
            "mode": "snapshot"
          },
          {
            "title": "Procedures",
            "text": {
              "status": "generated",
              "div": "<div xmlns=\"http://www.w3.org/1999/xhtml\">Procedures</div>"
            },
            "code": {
              "coding": [
                {
                  "code": "47519-4",
                  "display": "HISTORY OF PROCEDURES",
                  "system": "http://loinc.org"
                }
              ]
            },
            "mode": "snapshot"
          },
          {
            "title": "REVIEW OF SYSTEMS",
            "text": {
              "status": "generated",
              "div": "<div xmlns=\"http://www.w3.org/1999/xhtml\">REVIEW OF SYSTEMS</div>"
            },
            "code": {
              "coding": [
                {
                  "code": "10187-3",
                  "display": "REVIEW OF SYSTEMS",
                  "system": "http://loinc.org"
                }
              ]
            },
            "mode": "snapshot"
          },
          {
            "title": "Social History",
            "text": {
              "status": "generated",
              "div": "<div xmlns=\"http://www.w3.org/1999/xhtml\">Social History</div>"
            },
            "code": {
              "coding": [
                {
                  "code": "29762-2",
                  "display": "Social History",
                  "system": "http://loinc.org"
                }
              ]
            },
            "mode": "snapshot"
          },
          {
            "title": "VITAL SIGNS",
            "text": {
              "status": "generated",
              "div": "<div xmlns=\"http://www.w3.org/1999/xhtml\">VITAL SIGNS</div>"
            },
            "code": {
              "coding": [
                {
                  "code": "8716-3",
                  "display": "VITAL SIGNS",
                  "system": "http://loinc.org"
                }
              ]
            },
            "mode": "snapshot"
          }
        ],
        "subject": {
          "reference": "Patient/5510eaa6-2ad2-b82b-248b-aba749e28fa1"
        },
        "encounter": {
          "reference": "Encounter/b7410a36-7001-7e87-c604-11bd1669c440"
        },
        "custodian": {
          "reference": "Organization/434467b1-a822-ba9b-a59a-e4bdab20cae5"
        },
        "author": [
          {
            "reference": "Practitioner/b818f780-0177-affe-d9d2-2aefb7adeee2"
          },
          {
            "reference": "Device/5b6663f4-ea97-2504-6413-270cdd613021"
          }
        ]
      },
      "request": {
        "method": "PUT",
        "url": "Composition/858046dd-f87f-93e7-62ed-12dbd0d966fa"
      }
    },
    {
      "fullUrl": "urn:uuid:151bd63c-93e9-9838-dd94-f74d3b63be52",
      "resource": {
        "resourceType": "Practitioner",
        "id": "151bd63c-93e9-9838-dd94-f74d3b63be52",
        "meta": {
          "profile": [
            "http://hl7.org/fhir/us/core/StructureDefinition/us-core-practitioner"
          ]
        },
        "identifier": [
          {
            "system": "http://hl7.org/fhir/sid/us-npi",
            "value": "999999999"
          }
        ],
        "name": [
          {
            "family": "Seven",
            "given": [
              "Henry"
            ]
          }
        ],
        "address": [
          {
            "line": [
              "1001 Village Avenue"
            ],
            "city": "Portland",
            "state": "OR",
            "country": "US",
            "postalCode": "99123"
          }
        ],
        "telecom": [
          {
            "system": "phone",
            "value": "555-555-1002",
            "use": "work"
          }
        ]
      },
      "request": {
        "method": "PUT",
        "url": "Practitioner/151bd63c-93e9-9838-dd94-f74d3b63be52"
      }
    },
    {
      "fullUrl": "urn:uuid:b7410a36-7001-7e87-c604-11bd1669c440",
      "resource": {
        "resourceType": "Encounter",
        "id": "b7410a36-7001-7e87-c604-11bd1669c440",
        "status": "unknown",
        "identifier": [
          {
            "system": "urn:oid:2.16.840.1.113883.19",
            "value": "9937012"
          }
        ],
        "period": {
          "start": "2014-09-09T19:04:00-05:00",
          "end": "2014-09-16T19:04:00-05:00"
        },
        "hospitalization": {
          "dischargeDisposition": {
            "coding": [
              {
                "code": "01",
                "display": "Routine Discharge",
                "system": "urn:oid:2.16.840.1.113883.12.112"
              }
            ]
          }
        },
        "location": [
          {
            "location": {
              "reference": "Location/6dfdc7c6-e225-71eb-cec1-75870e529061"
            }
          }
        ]
      },
      "request": {
        "method": "PUT",
        "url": "Encounter/b7410a36-7001-7e87-c604-11bd1669c440"
      }
    },
    {
      "fullUrl": "urn:uuid:6dfdc7c6-e225-71eb-cec1-75870e529061",
      "resource": {
        "resourceType": "Location",
        "id": "6dfdc7c6-e225-71eb-cec1-75870e529061"
      },
      "request": {
        "method": "PUT",
        "url": "Location/6dfdc7c6-e225-71eb-cec1-75870e529061"
      }
    },
    {
      "fullUrl": "urn:uuid:434467b1-a822-ba9b-a59a-e4bdab20cae5",
      "resource": {
        "resourceType": "Organization",
        "id": "434467b1-a822-ba9b-a59a-e4bdab20cae5",
        "identifier": [
          {
            "system": "http://hl7.org/fhir/sid/us-npi",
            "value": "99999999"
          }
        ],
        "name": "Community Health and Hospitals",
        "address": [
          {
            "use": "work",
            "line": [
              "1001 Village Avenue"
            ],
            "city": "Portland",
            "state": "OR",
            "country": "US",
            "postalCode": "99123"
          }
        ],
        "telecom": [
          {
            "system": "phone",
            "value": "555-555-1002",
            "use": "work"
          }
        ]
      },
      "request": {
        "method": "PUT",
        "url": "Organization/434467b1-a822-ba9b-a59a-e4bdab20cae5"
      }
    },
    {
      "fullUrl": "urn:uuid:b818f780-0177-affe-d9d2-2aefb7adeee2",
      "resource": {
        "resourceType": "Practitioner",
        "id": "b818f780-0177-affe-d9d2-2aefb7adeee2",
        "meta": {
          "profile": [
            "http://hl7.org/fhir/us/core/StructureDefinition/us-core-practitioner"
          ]
        },
        "identifier": [
          {
            "system": "http://hl7.org/fhir/sid/us-npi",
            "value": "99999999"
          }
        ],
        "name": [
          {
            "family": "Seven",
            "given": [
              "Henry"
            ]
          }
        ],
        "address": [
          {
            "line": [
              "1002 Healthcare Drive "
            ],
            "city": "Portland",
            "state": "OR",
            "country": "US",
            "postalCode": "99123"
          }
        ],
        "telecom": [
          {
            "system": "phone",
            "value": "555-555-1002",
            "use": "work"
          }
        ],
        "qualification": [
          {
            "code": {
              "coding": [
                {
                  "code": "200000000X",
                  "display": "Allopathic & Osteopathic Physicians",
                  "system": "http://nucc.org/provider-taxonomy"
                }
              ]
            }
          }
        ]
      },
      "request": {
        "method": "PUT",
        "url": "Practitioner/b818f780-0177-affe-d9d2-2aefb7adeee2"
      }
    },
    {
      "fullUrl": "urn:uuid:5b6663f4-ea97-2504-6413-270cdd613021",
      "resource": {
        "resourceType": "Device",
        "id": "5b6663f4-ea97-2504-6413-270cdd613021",
        "type": {
          "coding": [
            {
              "display": "Generic EHR Clinical System 2.0.0.0.0.0"
            }
          ]
        },
        "manufacturer": "Generic EHR Clinical System 2.0.0.0.0.0",
        "version": [
          {
            "value": "Generic EHR C-CDA Factory 2.0.0.0.0.0 - C-CDA Transform 2.0.0.0.0"
          }
        ],
        "owner": {
          "reference": "Organization/a1e0faee-3133-28bb-96b3-ad1d0467bc5e"
        }
      },
      "request": {
        "method": "PUT",
        "url": "Device/5b6663f4-ea97-2504-6413-270cdd613021"
      }
    },
    {
      "fullUrl": "urn:uuid:a1e0faee-3133-28bb-96b3-ad1d0467bc5e",
      "resource": {
        "resourceType": "Organization",
        "id": "a1e0faee-3133-28bb-96b3-ad1d0467bc5e",
        "identifier": [
          {
            "system": "urn:ietf:rfc:3986",
            "value": "urn:uuid:2.16.840.1.113883.19.5.9999.1393"
          }
        ],
        "name": "Community Health and Hospitals",
        "address": [
          {
            "line": [
              "1001 Village Avenue"
            ],
            "city": "Portland",
            "state": "OR",
            "country": "US",
            "postalCode": "99123"
          }
        ],
        "telecom": [
          {
            "system": "phone",
            "value": "555-555-5000",
            "use": "work"
          }
        ]
      },
      "request": {
        "method": "PUT",
        "url": "Organization/a1e0faee-3133-28bb-96b3-ad1d0467bc5e"
      }
    },
    {
      "fullUrl": "urn:uuid:5510eaa6-2ad2-b82b-248b-aba749e28fa1",
      "resource": {
        "resourceType": "Patient",
        "id": "5510eaa6-2ad2-b82b-248b-aba749e28fa1",
        "meta": {
          "profile": [
            "http://hl7.org/fhir/us/core/StructureDefinition/us-core-patient"
          ]
        },
        "identifier": [
          {
            "system": "urn:oid:2.16.840.1.113883.19.5.99999.2",
            "value": "998991"
          },
          {
            "system": "http://hl7.org/fhir/sid/us-ssn",
            "value": "111-00-2330"
          }
        ],
        "name": [
          {
            "use": "usual",
            "family": "Jones",
            "given": [
              "Isabella"
            ]
          }
        ],
        "birthDate": "2005-05-01",
        "gender": "female",
        "extension": [
          {
            "url": "http://hl7.org/fhir/us/core/StructureDefinition/us-core-race",
            "extension": [
              {
                "url": "ombCategory",
                "valueCoding": {
                  "code": "2028-9",
                  "display": "Asian"
                }
              },
              {
                "url": "text",
                "valueString": "Asian"
              }
            ]
          },
          {
            "url": "http://hl7.org/fhir/us/core/StructureDefinition/us-core-ethnicity",
            "extension": [
              {
                "url": "ombCategory",
                "valueCoding": {
                  "code": "2186-5",
                  "display": "Not Hispanic or Latino"
                }
              },
              {
                "url": "text",
                "valueString": "Not Hispanic or Latino"
              }
            ]
          }
        ],
        "address": [
          {
            "use": "home",
            "line": [
              "1357 Amber Drive"
            ],
            "city": "Beaverton",
            "state": "OR",
            "country": "US",
            "postalCode": "97867"
          }
        ],
        "telecom": [
          {
            "system": "phone",
            "value": "(816)276-6909",
            "use": "home"
          }
        ],
        "communication": [
          {
            "language": {
              "coding": [
                {
                  "system": "urn:ietf:bcp:47",
                  "code": "en",
                  "display": "English"
                }
              ]
            },
            "preferred": true
          }
        ]
      },
      "request": {
        "method": "PUT",
        "url": "Patient/5510eaa6-2ad2-b82b-248b-aba749e28fa1"
      }
    },
    {
      "fullUrl": "urn:uuid:ee674bd9-634f-7bfb-de2e-510f1248a374",
      "resource": {
        "resourceType": "RelatedPerson",
        "id": "ee674bd9-634f-7bfb-de2e-510f1248a374",
        "relationship": [
          {
            "coding": [
              {
                "code": "GRPRN",
                "display": "Grandparent",
                "system": "urn:oid:2.16.840.1.113883.5.111"
              }
            ]
          }
        ],
        "name": [
          {
            "family": "Jones",
            "given": [
              "Ralph"
            ]
          }
        ],
        "telecom": [
          {
            "system": "phone",
            "value": "(816)276-6909",
            "use": "home"
          }
        ],
        "address": [
          {
            "use": "home",
            "line": [
              "1357 Amber Drive"
            ],
            "city": "Beaverton",
            "state": "OR",
            "country": "US",
            "postalCode": "97867"
          }
        ],
        "patient": {
          "reference": "Patient/5510eaa6-2ad2-b82b-248b-aba749e28fa1"
        }
      },
      "request": {
        "method": "PUT",
        "url": "RelatedPerson/ee674bd9-634f-7bfb-de2e-510f1248a374"
      }
    },
    {
      "fullUrl": "urn:uuid:91a60f2f-b690-9301-2510-0ff6e1631519",
      "resource": {
        "resourceType": "AllergyIntolerance",
        "id": "91a60f2f-b690-9301-2510-0ff6e1631519",
        "identifier": [
          {
            "system": "urn:ietf:rfc:3986",
            "value": "urn:uuid:4adc1020-7b14-11db-9fe1-0800200c9a66"
          }
        ],
        "clinicalStatus": {
          "coding": [
            {
              "system": "http://terminology.hl7.org/CodeSystem/allergyintolerance-clinical",
              "code": "active"
            }
          ]
        },
        "reaction": [
          {
            "substance": {
              "coding": [
                {
                  "code": "7980",
                  "display": "Penicillin G",
                  "system": "http://www.nlm.nih.gov/research/umls/rxnorm"
                }
              ]
            },
            "manifestation": [
              {
                "coding": [
                  {
                    "code": "73879007",
                    "display": "Nausea",
                    "system": "http://snomed.info/sct"
                  }
                ]
              }
            ],
            "onset": "2007-05-01"
          }
        ],
        "onsetDateTime": "2007-05-01",
        "patient": {
          "reference": "Patient/5510eaa6-2ad2-b82b-248b-aba749e28fa1"
        }
      },
      "request": {
        "method": "PUT",
        "url": "AllergyIntolerance/91a60f2f-b690-9301-2510-0ff6e1631519"
      }
    },
    {
      "fullUrl": "urn:uuid:eeeadaf7-35cd-0e84-445a-a9de066dc4af",
      "resource": {
        "resourceType": "AllergyIntolerance",
        "id": "eeeadaf7-35cd-0e84-445a-a9de066dc4af",
        "identifier": [
          {
            "system": "urn:ietf:rfc:3986",
            "value": "urn:uuid:4adc1020-7b14-11db-9fe1-0800200c9a66"
          }
        ],
        "clinicalStatus": {
          "coding": [
            {
              "system": "http://terminology.hl7.org/CodeSystem/allergyintolerance-clinical",
              "code": "active"
            }
          ]
        },
        "reaction": [
          {
            "substance": {
              "coding": [
                {
                  "code": "2670",
                  "display": "Codeine",
                  "system": "http://www.nlm.nih.gov/research/umls/rxnorm"
                }
              ]
            },
            "manifestation": [
              {
                "coding": [
                  {
                    "code": "56018004",
                    "display": "Wheezing",
                    "system": "http://snomed.info/sct"
                  }
                ]
              }
            ],
            "onset": "2006-05-01"
          }
        ],
        "onsetDateTime": "2006-05-01",
        "patient": {
          "reference": "Patient/5510eaa6-2ad2-b82b-248b-aba749e28fa1"
        }
      },
      "request": {
        "method": "PUT",
        "url": "AllergyIntolerance/eeeadaf7-35cd-0e84-445a-a9de066dc4af"
      }
    },
    {
      "fullUrl": "urn:uuid:960adb7b-7389-add2-73d0-34b305805818",
      "resource": {
        "resourceType": "AllergyIntolerance",
        "id": "960adb7b-7389-add2-73d0-34b305805818",
        "identifier": [
          {
            "system": "urn:ietf:rfc:3986",
            "value": "urn:uuid:0fffb34f-c1e0-47c2-92af-c414a3ff21ec"
          }
        ],
        "clinicalStatus": {
          "coding": [
            {
              "system": "http://terminology.hl7.org/CodeSystem/allergyintolerance-clinical",
              "code": "active"
            }
          ]
        },
        "reaction": [
          {
            "substance": {
              "coding": [
                {
                  "code": "291P45F896",
                  "display": "Egg",
                  "system": "urn:oid:2.16.840.1.113883.4.9"
                }
              ]
            },
            "manifestation": [
              {
                "coding": [
                  {
                    "code": "247472004",
                    "display": "Hives",
                    "system": "http://snomed.info/sct"
                  }
                ]
              }
            ],
            "onset": "1998"
          }
        ],
        "onsetDateTime": "1998",
        "patient": {
          "reference": "Patient/5510eaa6-2ad2-b82b-248b-aba749e28fa1"
        }
      },
      "request": {
        "method": "PUT",
        "url": "AllergyIntolerance/960adb7b-7389-add2-73d0-34b305805818"
      }
    },
    {
      "fullUrl": "urn:uuid:5c6208bc-ce16-ac22-f246-92240ea07380",
      "resource": {
        "resourceType": "Condition",
        "id": "5c6208bc-ce16-ac22-f246-92240ea07380",
        "identifier": [
          {
            "system": "urn:ietf:rfc:3986",
            "value": "urn:uuid:08edb7c0-2111-43f2-a784-9a5fdfaa67f0"
          }
        ],
        "code": {
          "coding": [
            {
              "code": "267036007",
              "display": "dyspnea",
              "system": "http://snomed.info/sct"
            }
          ]
        },
        "onsetDateTime": "2007-02",
        "subject": {
          "reference": "Patient/5510eaa6-2ad2-b82b-248b-aba749e28fa1"
        }
      },
      "request": {
        "method": "PUT",
        "url": "Condition/5c6208bc-ce16-ac22-f246-92240ea07380"
      }
    },
    {
      "fullUrl": "urn:uuid:b4d23dcf-d522-c625-4dca-e1aefc81fbc0",
      "resource": {
        "resourceType": "Condition",
        "id": "b4d23dcf-d522-c625-4dca-e1aefc81fbc0",
        "identifier": [
          {
            "system": "urn:oid:1.3.6.1.4.1.22812.4.111.0.4.1.2.1",
            "value": "10241104348"
          }
        ],
        "code": {
          "coding": [
            {
              "code": "35064005",
              "display": "Dark stools",
              "system": "http://snomed.info/sct"
            }
          ]
        },
        "onsetDateTime": "2014-09-06",
        "subject": {
          "reference": "Patient/5510eaa6-2ad2-b82b-248b-aba749e28fa1"
        }
      },
      "request": {
        "method": "PUT",
        "url": "Condition/b4d23dcf-d522-c625-4dca-e1aefc81fbc0"
      }
    },
    {
      "fullUrl": "urn:uuid:5f84ab48-850e-b79f-4f33-ef5fdd3ece6b",
      "resource": {
        "resourceType": "Condition",
        "id": "5f84ab48-850e-b79f-4f33-ef5fdd3ece6b",
        "identifier": [
          {
            "system": "urn:oid:1.3.6.1.4.1.22812.4.111.0.4.1.2.1",
            "value": "10241104348"
          }
        ],
        "code": {
          "coding": [
            {
              "code": "74400008",
              "display": "Appendicitis",
              "system": "http://snomed.info/sct"
            }
          ]
        },
        "onsetDateTime": "2014-09-08",
        "subject": {
          "reference": "Patient/5510eaa6-2ad2-b82b-248b-aba749e28fa1"
        }
      },
      "request": {
        "method": "PUT",
        "url": "Condition/5f84ab48-850e-b79f-4f33-ef5fdd3ece6b"
      }
    },
    {
      "fullUrl": "urn:uuid:30cbd579-af2d-37f8-72c7-2ffce67865f6",
      "resource": {
        "resourceType": "Procedure",
        "id": "30cbd579-af2d-37f8-72c7-2ffce67865f6",
        "meta": {
          "profile": [
            "http://hl7.org/fhir/us/core/StructureDefinition/us-core-procedure"
          ]
        },
        "identifier": [
          {
            "system": "urn:ietf:rfc:3986",
            "value": "urn:uuid:64af26d5-88ef-4169-ba16-c6ef16a1824f"
          }
        ],
        "status": "completed",
        "code": {
          "coding": [
            {
              "code": "6025007",
              "display": "Laparoscopic appendectomy",
              "system": "http://snomed.info/sct"
            }
          ]
        },
        "performedPeriod": {
          "start": "2014-09-10T09:22:05-05:00",
          "end": "2014-09-10T11:15:14-05:00"
        },
        "bodySite": [
          {
            "coding": [
              {
                "code": "181255000",
                "display": "Entire Appendix",
                "system": "http://snomed.info/sct"
              }
            ]
          }
        ],
        "subject": {
          "reference": "Patient/5510eaa6-2ad2-b82b-248b-aba749e28fa1"
        }
      },
      "request": {
        "method": "PUT",
        "url": "Procedure/30cbd579-af2d-37f8-72c7-2ffce67865f6"
      }
    },
    {
      "fullUrl": "urn:uuid:7b1ff6fb-cdd9-0f02-cb85-12574970dfe2",
      "resource": {
        "resourceType": "Observation",
        "id": "7b1ff6fb-cdd9-0f02-cb85-12574970dfe2",
        "meta": {
          "profile": [
            "http://hl7.org/fhir/us/core/StructureDefinition/us-core-observationresults"
          ]
        },
        "identifier": [
          {
            "system": "urn:ietf:rfc:3986",
            "value": "urn:uuid:c6f88321-67ad-11db-bd13-0800200c9a66"
          }
        ],
        "category": [
          {
            "coding": [
              {
                "system": "http://terminology.hl7.org/CodeSystem/observation-category",
                "code": "vital-signs"
              }
            ]
          }
        ],
        "status": "final",
        "code": {
          "coding": [
            {
              "code": "8302-2",
              "display": "Height",
              "system": "http://loinc.org"
            }
          ]
        },
        "effectiveDateTime": "2014-09-16T08:45:00-05:00",
        "valueQuantity": {
          "value": 177,
          "unit": "cm"
        },
        "interpretation": [
          {
            "coding": [
              {
                "code": "N",
                "system": "http://terminology.hl7.org/CodeSystem/v3-ObservationInterpretation"
              }
            ]
          }
        ],
        "subject": {
          "reference": "Patient/5510eaa6-2ad2-b82b-248b-aba749e28fa1"
        }
      },
      "request": {
        "method": "PUT",
        "url": "Observation/7b1ff6fb-cdd9-0f02-cb85-12574970dfe2"
      }
    },
    {
      "fullUrl": "urn:uuid:dc20c285-76b2-29cd-d535-d42b56efb131",
      "resource": {
        "resourceType": "Observation",
        "id": "dc20c285-76b2-29cd-d535-d42b56efb131",
        "meta": {
          "profile": [
            "http://hl7.org/fhir/us/core/StructureDefinition/us-core-observationresults"
          ]
        },
        "identifier": [
          {
            "system": "urn:ietf:rfc:3986",
            "value": "urn:uuid:c6f88321-67ad-11db-bd13-0800200c9a66"
          }
        ],
        "category": [
          {
            "coding": [
              {
                "system": "http://terminology.hl7.org/CodeSystem/observation-category",
                "code": "vital-signs"
              }
            ]
          }
        ],
        "status": "final",
        "code": {
          "coding": [
            {
              "code": "3141-9",
              "display": "Patient Body Weight - Measured",
              "system": "http://loinc.org"
            }
          ]
        },
        "effectiveDateTime": "2014-09-16T08:45:00-05:00",
        "valueQuantity": {
          "value": 86,
          "unit": "kg"
        },
        "interpretation": [
          {
            "coding": [
              {
                "code": "N",
                "system": "http://terminology.hl7.org/CodeSystem/v3-ObservationInterpretation"
              }
            ]
          }
        ],
        "subject": {
          "reference": "Patient/5510eaa6-2ad2-b82b-248b-aba749e28fa1"
        }
      },
      "request": {
        "method": "PUT",
        "url": "Observation/dc20c285-76b2-29cd-d535-d42b56efb131"
      }
    },
    {
      "fullUrl": "urn:uuid:daf8f339-eb92-cea6-1aa8-20578fffcb69",
      "resource": {
        "resourceType": "Observation",
        "id": "daf8f339-eb92-cea6-1aa8-20578fffcb69",
        "meta": {
          "profile": [
            "http://hl7.org/fhir/us/core/StructureDefinition/us-core-observationresults"
          ]
        },
        "identifier": [
          {
            "system": "urn:ietf:rfc:3986",
            "value": "urn:uuid:c6f88321-67ad-11db-bd13-0800200c9a66"
          }
        ],
        "category": [
          {
            "coding": [
              {
                "system": "http://terminology.hl7.org/CodeSystem/observation-category",
                "code": "vital-signs"
              }
            ]
          }
        ],
        "status": "final",
        "code": {
          "coding": [
            {
              "code": "8480-6",
              "display": "Intravascular Systolic",
              "system": "http://loinc.org"
            }
          ]
        },
        "effectiveDateTime": "2014-09-16T08:45:00-05:00",
        "valueQuantity": {
          "value": 80,
          "unit": "mm[Hg]"
        },
        "interpretation": [
          {
            "coding": [
              {
                "code": "L",
                "system": "http://terminology.hl7.org/CodeSystem/v3-ObservationInterpretation"
              }
            ]
          }
        ],
        "subject": {
          "reference": "Patient/5510eaa6-2ad2-b82b-248b-aba749e28fa1"
        }
      },
      "request": {
        "method": "PUT",
        "url": "Observation/daf8f339-eb92-cea6-1aa8-20578fffcb69"
      }
    },
    {
      "fullUrl": "urn:uuid:9e9ec88c-67f5-c980-79ea-54d1d2df291c",
      "resource": {
        "resourceType": "Observation",
        "id": "9e9ec88c-67f5-c980-79ea-54d1d2df291c",
        "meta": {
          "profile": [
            "http://hl7.org/fhir/us/core/StructureDefinition/us-core-observationresults"
          ]
        },
        "identifier": [
          {
            "system": "urn:ietf:rfc:3986",
            "value": "urn:uuid:c6f88321-67ad-11db-bd13-0800200c9a66"
          }
        ],
        "category": [
          {
            "coding": [
              {
                "system": "http://terminology.hl7.org/CodeSystem/observation-category",
                "code": "vital-signs"
              }
            ]
          }
        ],
        "status": "final",
        "code": {
          "coding": [
            {
              "code": "8462-4",
              "display": "Intravascular Diastolic",
              "system": "http://loinc.org"
            }
          ]
        },
        "effectiveDateTime": "2014-09-16T08:45:00-05:00",
        "valueQuantity": {
          "value": 55,
          "unit": "mm[Hg]"
        },
        "interpretation": [
          {
            "coding": [
              {
                "code": "L",
                "system": "http://terminology.hl7.org/CodeSystem/v3-ObservationInterpretation"
              }
            ]
          }
        ],
        "subject": {
          "reference": "Patient/5510eaa6-2ad2-b82b-248b-aba749e28fa1"
        }
      },
      "request": {
        "method": "PUT",
        "url": "Observation/9e9ec88c-67f5-c980-79ea-54d1d2df291c"
      }
    },
    {
      "fullUrl": "urn:uuid:49eba4ba-cac4-e6a8-dd1d-c99196a70500",
      "resource": {
        "resourceType": "Observation",
        "id": "49eba4ba-cac4-e6a8-dd1d-c99196a70500",
        "meta": {
          "profile": [
            "http://hl7.org/fhir/us/core/StructureDefinition/us-core-observationresults"
          ]
        },
        "identifier": [
          {
            "system": "urn:ietf:rfc:3986",
            "value": "urn:uuid:68eac164-c13e-498c-abe3-e87735ef5f1d"
          }
        ],
        "category": [
          {
            "coding": [
              {
                "system": "http://terminology.hl7.org/CodeSystem/observation-category",
                "code": "social-history"
              }
            ]
          }
        ],
        "status": "final",
        "code": {
          "coding": [
            {
              "code": "72166-2",
              "system": "http://loinc.org"
            }
          ]
        },
        "effectiveDateTime": "2014-09-10T12:54:00-05:00",
        "valueCodeableConcept": {
          "coding": [
            {
              "code": "266919005",
              "display": "Never Smoker",
              "system": "http://snomed.info/sct"
            }
          ]
        },
        "subject": {
          "reference": "Patient/5510eaa6-2ad2-b82b-248b-aba749e28fa1"
        }
      },
      "request": {
        "method": "PUT",
        "url": "Observation/49eba4ba-cac4-e6a8-dd1d-c99196a70500"
      }
    },
    {
      "fullUrl": "urn:uuid:cbe3051e-48c3-b6f1-6c05-1987ed9720b5",
      "resource": {
        "resourceType": "Immunization",
        "id": "cbe3051e-48c3-b6f1-6c05-1987ed9720b5",
        "identifier": [
          {
            "system": "urn:ietf:rfc:3986",
            "value": "urn:uuid:e6f1ba43-c0ed-4b9b-9f12-f435d8ad8f92"
          }
        ],
        "occurrenceDateTime": "2014-09-01",
        "vaccineCode": {
          "coding": [
            {
              "code": "141",
              "display": "Influenza, seasonal, injectable",
              "system": "urn:oid:2.16.840.1.113883.12.292"
            }
          ]
        },
        "status": "completed",
        "route": {
          "coding": [
            {
              "code": "C28161",
              "display": "Intramuscular injection",
              "system": "urn:oid:2.16.840.1.113883.3.26.1.1"
            }
          ]
        },
        "patient": {
          "reference": "Patient/5510eaa6-2ad2-b82b-248b-aba749e28fa1"
        }
      },
      "request": {
        "method": "PUT",
        "url": "Immunization/cbe3051e-48c3-b6f1-6c05-1987ed9720b5"
      }
    },
    {
      "fullUrl": "urn:uuid:d76b593f-1b9e-663e-65f8-d1a2fd386f28",
      "resource": {
        "resourceType": "Immunization",
        "id": "d76b593f-1b9e-663e-65f8-d1a2fd386f28",
        "identifier": [
          {
            "system": "urn:ietf:rfc:3986",
            "value": "urn:uuid:e6f1ba43-c0ed-4b9b-9f12-f435d8ad8f92"
          }
        ],
        "statusReason": {
          "coding": [
            {
              "code": "PATOBJ",
              "display": "Patient Objection",
              "system": "urn:oid:2.16.840.1.113883.5.8"
            }
          ]
        },
        "occurrenceDateTime": "2014-09-01",
        "vaccineCode": {
          "coding": [
            {
              "code": "103",
              "display": "Tetanus and diphtheria toxoids - preservative free",
              "system": "urn:oid:2.16.840.1.113883.12.292"
            }
          ]
        },
        "status": "not-done",
        "route": {
          "coding": [
            {
              "code": "C28161",
              "display": "Intramuscular injection",
              "system": "urn:oid:2.16.840.1.113883.3.26.1.1"
            }
          ]
        },
        "patient": {
          "reference": "Patient/5510eaa6-2ad2-b82b-248b-aba749e28fa1"
        }
      },
      "request": {
        "method": "PUT",
        "url": "Immunization/d76b593f-1b9e-663e-65f8-d1a2fd386f28"
      }
    },
    {
      "fullUrl": "urn:uuid:b20232e7-4426-7cb8-356e-53b1b6345d15",
      "resource": {
        "resourceType": "FamilyMemberHistory",
        "id": "b20232e7-4426-7cb8-356e-53b1b6345d15",
        "identifier": [
          {
            "system": "urn:ietf:rfc:3986",
            "value": "urn:uuid:eb8da8aa-fc07-46a6-95b6-05f275cd8028"
          }
        ],
        "status": "completed",
        "relationship": {
          "coding": [
            {
              "code": "9947008",
              "display": "Biological father",
              "system": "http://snomed.info/sct"
            }
          ]
        },
        "sex": {
          "coding": [
            {
              "code": "M",
              "display": "Male",
              "system": "urn:oid:2.16.840.1.113883.5.1"
            }
          ]
        },
        "bornString": "1910",
        "condition": [
          {
            "code": {
              "coding": [
                {
                  "code": "22298006",
                  "display": "Myocardial infarction",
                  "system": "http://snomed.info/sct"
                }
              ]
            },
            "contributedToDeath": true,
            "onsetAge": {
              "value": 57,
              "system": "http://unitsofmeasure.org",
              "code": "a"
            }
          },
          {
            "code": {
              "coding": [
                {
                  "code": "46635009",
                  "display": "Diabetes mellitus type 1",
                  "system": "http://snomed.info/sct"
                }
              ]
            },
            "onsetAge": {
              "value": 6,
              "system": "http://unitsofmeasure.org",
              "code": "a"
            }
          }
        ],
        "patient": {
          "reference": "Patient/5510eaa6-2ad2-b82b-248b-aba749e28fa1"
        }
      },
      "request": {
        "method": "PUT",
        "url": "FamilyMemberHistory/b20232e7-4426-7cb8-356e-53b1b6345d15"
      }
    },
    {
      "fullUrl": "urn:uuid:c01ede1c-c3e9-c35d-f8e1-715da1c07076",
      "resource": {
        "resourceType": "MedicationAdministration",
        "id": "c01ede1c-c3e9-c35d-f8e1-715da1c07076",
        "identifier": [
          {
            "system": "urn:ietf:rfc:3986",
            "value": "urn:uuid:47d3e719-f688-459d-bcdc-47c6de0767a9"
          }
        ],
        "status": "in-progress",
        "effectivePeriod": {
          "start": "2014-09-16T13:00:00-05:00"
        },
        "dosage": {
          "route": {
            "coding": [
              {
                "code": "C38288",
                "display": "Oral",
                "system": "urn:oid:2.16.840.1.113883.3.26.1.1"
              }
            ]
          },
          "dose": {
            "value": 1
          }
        },
        "subject": {
          "reference": "Patient/5510eaa6-2ad2-b82b-248b-aba749e28fa1"
        },
        "medicationReference": {
          "reference": "Medication/99d98140-733b-c7fd-4ba1-42bd429cf2c9"
        }
      },
      "request": {
        "method": "PUT",
        "url": "MedicationAdministration/c01ede1c-c3e9-c35d-f8e1-715da1c07076"
      }
    },
    {
      "fullUrl": "urn:uuid:99d98140-733b-c7fd-4ba1-42bd429cf2c9",
      "resource": {
        "resourceType": "Medication",
        "id": "99d98140-733b-c7fd-4ba1-42bd429cf2c9",
        "code": {
          "coding": [
            {
              "code": "197806",
              "display": "Ibuprofen 600mg Oral Tablet",
              "system": "http://www.nlm.nih.gov/research/umls/rxnorm"
            }
          ]
        }
      },
      "request": {
        "method": "PUT",
        "url": "Medication/99d98140-733b-c7fd-4ba1-42bd429cf2c9"
      }
    },
    {
      "fullUrl": "urn:uuid:5db2c269-e23f-a3ea-f26a-f529ebb192f7",
      "resource": {
        "resourceType": "DocumentReference",
        "id": "5db2c269-e23f-a3ea-f26a-f529ebb192f7",
        "type": {
          "coding": [
            {
              "code": "18842-5",
              "display": "Discharge summarization note",
              "system": "http://loinc.org"
            }
          ]
        },
        "date": "2024-10-31T15:05:06.906Z",
        "status": "current",
        "content": [
          {
            "attachment": {
              "contentType": "text/plain",
              "data": "",
              "hash": "NDljNWU2ODM0Mzk1MWY4MjQxNDVlYzdhZmVkMTE3ZTZhMzM3ZWU4Yw=="
            }
          }
        ]
      },
      "request": {
        "method": "PUT",
        "url": "DocumentReference/5db2c269-e23f-a3ea-f26a-f529ebb192f7"
      }
    }
  ]
}