{
  "resourceType": "Bundle",
  "type": "batch",
  "entry": [
    {
      "fullUrl": "urn:uuid:9a52997b-f276-4a9a-4b5b-8a224a1ceb4f",
      "resource": {
        "resourceType": "Composition",
        "id": "9a52997b-f276-4a9a-4b5b-8a224a1ceb4f",
        "identifier": {
          "use": "official",
          "value": "04fc2b90-10e0-11e2-892e-0800200c9a66"
        },
        "status": "final",
        "type": {
          "coding": [
            {
              "code": "18761-7",
              "display": "Provider Unspecified Transfer Summary",
              "system": "http://loinc.org"
            }
          ]
        },
        "date": "2013-09-21T05:00:00-08:00",
        "title": "Transfer Summary",
        "confidentiality": "N",
        "attester": [
          {
            "mode": "legal",
            "time": "2013-09-15T22:36:15-08:00",
            "party": {
              "reference": "Practitioner/b0ac12ce-9e58-22b8-f79a-aba2409dac02"
            }
          }
        ],
        "event": [
          {
            "period": {
              "start": "2013-06-01",
              "end": "2013-08-15"
            }
          }
        ],
        "section": [
          {
            "title": "ALLERGIES AND ADVERSE REACTIONS",
            "text": {
              "status": "generated",
              "div": "<div xmlns=\"http://www.w3.org/1999/xhtml\">ALLERGIES AND ADVERSE REACTIONS</div>"
            },
            "code": {
              "coding": [
                {
                  "code": "48765-2",
                  "system": "http://loinc.org"
                }
              ]
            },
            "mode": "snapshot"
          },
          {
            "title": "ADVANCE DIRECTIVES",
            "text": {
              "status": "generated",
              "div": "<div xmlns=\"http://www.w3.org/1999/xhtml\">ADVANCE DIRECTIVES</div>"
            },
            "code": {
              "coding": [
                {
                  "code": "42348-3",
                  "system": "http://loinc.org"
                }
              ]
            },
            "mode": "snapshot"
          },
          {
            "title": "ASSESSMENT",
            "text": {
              "status": "generated",
              "div": "<div xmlns=\"http://www.w3.org/1999/xhtml\">ASSESSMENT</div>"
            },
            "code": {
              "coding": [
                {
                  "code": "51848-0",
                  "display": "ASSESSMENT",
                  "system": "http://loinc.org"
                }
              ]
            },
            "mode": "snapshot"
          },
          {
            "title": "ENCOUNTERS",
            "text": {
              "status": "generated",
              "div": "<div xmlns=\"http://www.w3.org/1999/xhtml\">ENCOUNTERS</div>"
            },
            "code": {
              "coding": [
                {
                  "code": "46240-8",
                  "display": "History of encounters",
                  "system": "http://loinc.org"
                }
              ]
            },
            "mode": "snapshot"
          },
          {
            "title": "FAMILY HISTORY",
            "text": {
              "status": "generated",
              "div": "<div xmlns=\"http://www.w3.org/1999/xhtml\">FAMILY HISTORY</div>"
            },
            "code": {
              "coding": [
                {
                  "code": "10157-6",
                  "system": "http://loinc.org"
                }
              ]
            },
            "mode": "snapshot"
          },
          {
            "title": "FUNCTIONAL STATUS",
            "text": {
              "status": "generated",
              "div": "<div xmlns=\"http://www.w3.org/1999/xhtml\">FUNCTIONAL STATUS</div>"
            },
            "code": {
              "coding": [
                {
                  "code": "47420-5",
                  "display": "Functional Status",
                  "system": "http://loinc.org"
                }
              ]
            },
            "mode": "snapshot"
          },
          {
            "title": "GENERAL STATUS",
            "text": {
              "status": "generated",
              "div": "<div xmlns=\"http://www.w3.org/1999/xhtml\">GENERAL STATUS</div>"
            },
            "code": {
              "coding": [
                {
                  "code": "10210-3",
                  "display": "GENERAL STATUS",
                  "system": "http://loinc.org"
                }
              ]
            },
            "mode": "snapshot"
          },
          {
            "title": "HISTORY OF PAST MEDICAL/SURGICAL ILLNESS",
            "text": {
              "status": "generated",
              "div": "<div xmlns=\"http://www.w3.org/1999/xhtml\">HISTORY OF PAST MEDICAL/SURGICAL ILLNESS</div>"
            },
            "code": {
              "coding": [
                {
                  "code": "11348-0",
                  "display": "HISTORY OF PAST ILLNESS",
                  "system": "http://loinc.org"
                }
              ]
            },
            "mode": "snapshot"
          },
          {
            "title": "HISTORY OF PRESENT ILLNESS",
            "text": {
              "status": "generated",
              "div": "<div xmlns=\"http://www.w3.org/1999/xhtml\">HISTORY OF PRESENT ILLNESS</div>"
            },
            "code": {
              "coding": [
                {
                  "code": "10164-2",
                  "display": "HISTORY OF PRESENT ILLNESS",
                  "system": "http://loinc.org"
                }
              ]
            },
            "mode": "snapshot"
          },
          {
            "title": "Hospital Course of Care",
            "text": {
              "status": "generated",
              "div": "<div xmlns=\"http://www.w3.org/1999/xhtml\">Hospital Course of Care</div>"
            },
            "code": {
              "coding": [
                {
                  "code": "8648-8",
                  "display": "Hospital Course Narrative",
                  "system": "http://loinc.org"
                }
              ]
            },
            "mode": "snapshot"
          },
          {
            "title": "Hospital Discharge Diagnosis",
            "text": {
              "status": "generated",
              "div": "<div xmlns=\"http://www.w3.org/1999/xhtml\">Hospital Discharge Diagnosis</div>"
            },
            "code": {
              "coding": [
                {
                  "code": "11535-2",
                  "display": "Discharge diagnosis narritive",
                  "system": "http://loinc.org"
                }
              ]
            },
            "mode": "snapshot"
          },
          {
            "title": "IMMUNIZATIONS",
            "text": {
              "status": "generated",
              "div": "<div xmlns=\"http://www.w3.org/1999/xhtml\">IMMUNIZATIONS</div>"
            },
            "code": {
              "coding": [
                {
                  "code": "11369-6",
                  "display": "History of immunizations",
                  "system": "http://loinc.org"
                }
              ]
            },
            "mode": "snapshot"
          },
          {
            "title": "MEDICAL EQUIPMENT",
            "text": {
              "status": "generated",
              "div": "<div xmlns=\"http://www.w3.org/1999/xhtml\">MEDICAL EQUIPMENT</div>"
            },
            "code": {
              "coding": [
                {
                  "code": "46264-8",
                  "system": "http://loinc.org"
                }
              ]
            },
            "mode": "snapshot"
          },
          {
            "title": "MENTAL STATUS",
            "text": {
              "status": "generated",
              "div": "<div xmlns=\"http://www.w3.org/1999/xhtml\">MENTAL STATUS</div>"
            },
            "code": {
              "coding": [
                {
                  "code": "10190-7",
                  "display": "MENTAL STATUS",
                  "system": "http://loinc.org"
                }
              ]
            },
            "mode": "snapshot"
          },
          {
            "title": "NUTRITION SECTION",
            "text": {
              "status": "generated",
              "div": "<div xmlns=\"http://www.w3.org/1999/xhtml\">NUTRITION SECTION</div>"
            },
            "code": {
              "coding": [
                {
                  "code": "61144-2",
                  "display": "Diet and Nutrition",
                  "system": "http://loinc.org"
                }
              ]
            },
            "mode": "snapshot"
          },
          {
            "title": "MEDICATIONS",
            "text": {
              "status": "generated",
              "div": "<div xmlns=\"http://www.w3.org/1999/xhtml\">MEDICATIONS</div>"
            },
            "code": {
              "coding": [
                {
                  "code": "10160-0",
                  "display": "HISTORY OF MEDICATION USE",
                  "system": "http://loinc.org"
                }
              ]
            },
            "mode": "snapshot"
          },
          {
            "title": "Insurance Providers",
            "text": {
              "status": "generated",
              "div": "<div xmlns=\"http://www.w3.org/1999/xhtml\">Insurance Providers</div>"
            },
            "code": {
              "coding": [
                {
                  "code": "48768-6",
                  "display": "Payments",
                  "system": "http://loinc.org"
                }
              ]
            },
            "mode": "snapshot"
          },
          {
            "title": "Physical Examination",
            "text": {
              "status": "generated",
              "div": "<div xmlns=\"http://www.w3.org/1999/xhtml\">Physical Examination</div>"
            },
            "code": {
              "coding": [
                {
                  "code": "29545-1",
                  "display": "Physical Findings",
                  "system": "http://loinc.org"
                }
              ]
            },
            "mode": "snapshot"
          },
          {
            "title": "TREATMENT PLAN",
            "text": {
              "status": "generated",
              "div": "<div xmlns=\"http://www.w3.org/1999/xhtml\">TREATMENT PLAN</div>"
            },
            "code": {
              "coding": [
                {
                  "code": "18776-5",
                  "display": "Treatment plan",
                  "system": "http://loinc.org"
                }
              ]
            },
            "mode": "snapshot"
          },
          {
            "title": "PROBLEMS",
            "text": {
              "status": "generated",
              "div": "<div xmlns=\"http://www.w3.org/1999/xhtml\">PROBLEMS</div>"
            },
            "code": {
              "coding": [
                {
                  "code": "11450-4",
                  "display": "PROBLEM LIST",
                  "system": "http://loinc.org"
                }
              ]
            },
            "mode": "snapshot"
          },
          {
            "title": "Procedures",
            "text": {
              "status": "generated",
              "div": "<div xmlns=\"http://www.w3.org/1999/xhtml\">Procedures</div>"
            },
            "code": {
              "coding": [
                {
                  "code": "47519-4",
                  "display": "History of Procedures",
                  "system": "http://loinc.org"
                }
              ]
            },
            "mode": "snapshot"
          },
          {
            "title": "REASON FOR REFERRAL",
            "text": {
              "status": "generated",
              "div": "<div xmlns=\"http://www.w3.org/1999/xhtml\">REASON FOR REFERRAL</div>"
            },
            "code": {
              "coding": [
                {
                  "code": "42349-1",
                  "display": "Reason for Referral ",
                  "system": "http://loinc.org"
                }
              ]
            },
            "mode": "snapshot"
          },
          {
            "title": "RESULTS",
            "text": {
              "status": "generated",
              "div": "<div xmlns=\"http://www.w3.org/1999/xhtml\">RESULTS</div>"
            },
            "code": {
              "coding": [
                {
                  "code": "30954-2",
                  "display": "RESULTS",
                  "system": "http://loinc.org"
                }
              ]
            },
            "mode": "snapshot"
          },
          {
            "title": "REVIEW OF SYSTEMS",
            "text": {
              "status": "generated",
              "div": "<div xmlns=\"http://www.w3.org/1999/xhtml\">REVIEW OF SYSTEMS</div>"
            },
            "code": {
              "coding": [
                {
                  "code": "10187-3",
                  "display": "REVIEW OF SYSTEMS",
                  "system": "http://loinc.org"
                }
              ]
            },
            "mode": "snapshot"
          },
          {
            "title": "SOCIAL HISTORY",
            "text": {
              "status": "generated",
              "div": "<div xmlns=\"http://www.w3.org/1999/xhtml\">SOCIAL HISTORY</div>"
            },
            "code": {
              "coding": [
                {
                  "code": "29762-2",
                  "display": "Social History",
                  "system": "http://loinc.org"
                }
              ]
            },
            "mode": "snapshot"
          },
          {
            "title": "VITAL SIGNS",
            "text": {
              "status": "generated",
              "div": "<div xmlns=\"http://www.w3.org/1999/xhtml\">VITAL SIGNS</div>"
            },
            "code": {
              "coding": [
                {
                  "code": "8716-3",
                  "display": "VITAL SIGNS",
                  "system": "http://loinc.org"
                }
              ]
            },
            "mode": "snapshot"
          }
        ],
        "subject": {
          "reference": "Patient/aca97b95-3c1c-ce73-ac65-f520242997a9"
        },
        "custodian": {
          "reference": "Organization/63407f17-1d85-02ee-516d-1fc729e6eae9"
        },
        "author": [
          {
            "reference": "Practitioner/b0ac12ce-9e58-22b8-f79a-aba2409dac02"
          }
        ]
      },
      "request": {
        "method": "PUT",
        "url": "Composition/9a52997b-f276-4a9a-4b5b-8a224a1ceb4f"
      }
    },
    {
      "fullUrl": "urn:uuid:b0ac12ce-9e58-22b8-f79a-aba2409dac02",
      "resource": {
        "resourceType": "Practitioner",
        "id": "b0ac12ce-9e58-22b8-f79a-aba2409dac02",
        "meta": {
          "profile": [
            "http://hl7.org/fhir/us/core/StructureDefinition/us-core-practitioner"
          ]
        },
        "identifier": [
          {
            "system": "http://hl7.org/fhir/sid/us-npi",
            "value": "5555555555"
          }
        ],
        "name": [
          {
            "family": "Primary",
            "given": [
              "Patricia",
              "Patty"
            ],
            "suffix": [
              "M.D."
            ]
          }
        ],
        "address": [
          {
            "line": [
              "1004 Healthcare Drive "
            ],
            "city": "Portland",
            "state": "OR",
            "country": "US",
            "postalCode": "99123"
          }
        ],
        "telecom": [
          {
            "system": "phone",
            "value": "+1(555)555-1004",
            "use": "work"
          }
        ],
        "qualification": [
          {
            "code": {
              "coding": [
                {
                  "code": "207QA0505X",
                  "display": "Adult Medicine",
                  "system": "http://nucc.org/provider-taxonomy"
                }
              ]
            }
          }
        ]
      },
      "request": {
        "method": "PUT",
        "url": "Practitioner/b0ac12ce-9e58-22b8-f79a-aba2409dac02"
      }
    },
    {
      "fullUrl": "urn:uuid:63407f17-1d85-02ee-516d-1fc729e6eae9",
      "resource": {
        "resourceType": "Organization",
        "id": "63407f17-1d85-02ee-516d-1fc729e6eae9",
        "identifier": [
          {
            "system": "http://hl7.org/fhir/sid/us-npi",
            "value": "321CX"
          }
        ],
        "name": "Good Health HIE",
        "address": [
          {
            "use": "work",
            "line": [
              "1009 Healthcare Drive "
            ],
            "city": "Portland",
            "state": "OR",
            "country": "US",
            "postalCode": "99123"
          }
        ],
        "telecom": [
          {
            "system": "phone",
            "value": "+1(555)555-1009",
            "use": "work"
          }
        ]
      },
      "request": {
        "method": "PUT",
        "url": "Organization/63407f17-1d85-02ee-516d-1fc729e6eae9"
      }
    },
    {
      "fullUrl": "urn:uuid:aca97b95-3c1c-ce73-ac65-f520242997a9",
      "resource": {
        "resourceType": "Patient",
        "id": "aca97b95-3c1c-ce73-ac65-f520242997a9",
        "meta": {
          "profile": [
            "http://hl7.org/fhir/us/core/StructureDefinition/us-core-patient"
          ]
        },
        "identifier": [
          {
            "system": "http://hl7.org/fhir/sid/us-ssn",
            "value": "444222222"
          }
        ],
        "name": [
          {
            "use": "usual",
            "family": "Betterhalf",
            "given": [
              "Eve"
            ]
          },
          {
            "family": "Everywoman",
            "given": [
              "Eve"
            ]
          }
        ],
        "birthDate": "1945-05-01",
        "gender": "female",
        "extension": [
          {
            "url": "http://hl7.org/fhir/us/core/StructureDefinition/us-core-race",
            "extension": [
              {
                "url": "ombCategory",
                "valueCoding": {
                  "code": "2106-3",
                  "display": "White"
                }
              },
              {
                "url": "ombCategory",
                "valueCoding": {
                  "code": "2076-8",
                  "display": "Hawaiian or Other Pacific Islander"
                }
              },
              {
                "url": "text",
                "valueString": "Mixed"
              }
            ]
          },
          {
            "url": "http://hl7.org/fhir/us/core/StructureDefinition/us-core-ethnicity",
            "extension": [
              {
                "url": "ombCategory",
                "valueCoding": {
                  "code": "2186-5",
                  "display": "Not Hispanic or Latino"
                }
              },
              {
                "url": "text",
                "valueString": "Not Hispanic or Latino"
              }
            ]
          }
        ],
        "address": [
          {
            "use": "home",
            "line": [
              "2222 Home Street"
            ],
            "city": "Beaverton",
            "state": "OR",
            "country": "US",
            "postalCode": "97867"
          }
        ],
        "telecom": [
          {
            "system": "phone",
            "value": "+1(555)555-2003",
            "use": "home"
          }
        ],
        "communication": [
          {
            "language": {
              "coding": [
                {
                  "system": "urn:ietf:bcp:47",
                  "code": "en",
                  "display": "English"
                }
              ]
            },
            "preferred": true
          }
        ]
      },
      "request": {
        "method": "PUT",
        "url": "Patient/aca97b95-3c1c-ce73-ac65-f520242997a9"
      }
    },
    {
      "fullUrl": "urn:uuid:1e516bfc-532c-65a4-45e2-e8536f0eb630",
      "resource": {
        "resourceType": "RelatedPerson",
        "id": "1e516bfc-532c-65a4-45e2-e8536f0eb630",
        "relationship": [
          {
            "coding": [
              {
                "code": "POWATT",
                "display": "Power of Attorney",
                "system": "urn:oid:2.16.840.1.113883.1.11.19830"
              }
            ]
          }
        ],
        "name": [
          {
            "family": "Betterhalf",
            "given": [
              "Boris",
              "Bo"
            ]
          }
        ],
        "telecom": [
          {
            "system": "phone",
            "value": "+1(555)555-2008",
            "use": "mobile"
          }
        ],
        "address": [
          {
            "use": "home",
            "line": [
              "2222 Home Street"
            ],
            "city": "Beaverton",
            "state": "OR",
            "country": "US",
            "postalCode": "97867"
          }
        ],
        "patient": {
          "reference": "Patient/aca97b95-3c1c-ce73-ac65-f520242997a9"
        }
      },
      "request": {
        "method": "PUT",
        "url": "RelatedPerson/1e516bfc-532c-65a4-45e2-e8536f0eb630"
      }
    },
    {
      "fullUrl": "urn:uuid:4e7f6d8c-3bac-b757-e40e-199a9f766e39",
      "resource": {
        "resourceType": "Condition",
        "id": "4e7f6d8c-3bac-b757-e40e-199a9f766e39",
        "identifier": [
          {
            "system": "urn:ietf:rfc:3986",
            "value": "urn:uuid:ab1791b0-5c71-11db-b0de-0800200c9a66"
          }
        ],
        "code": {
          "coding": [
            {
              "code": "93870000",
              "display": "malignant neoplasm of liver (disorder)",
              "system": "http://snomed.info/sct"
            }
          ]
        },
        "onsetDateTime": "2013-07-03",
        "subject": {
          "reference": "Patient/aca97b95-3c1c-ce73-ac65-f520242997a9"
        }
      },
      "request": {
        "method": "PUT",
        "url": "Condition/4e7f6d8c-3bac-b757-e40e-199a9f766e39"
      }
    },
    {
      "fullUrl": "urn:uuid:229e7b46-2002-0e47-6f56-5754b518c928",
      "resource": {
        "resourceType": "Condition",
        "id": "229e7b46-2002-0e47-6f56-5754b518c928",
        "identifier": [
          {
            "system": "urn:ietf:rfc:3986",
            "value": "urn:uuid:11d088a8-b957-401c-8ee0-3bd20a772fc0"
          }
        ],
        "code": {
          "coding": [
            {
              "code": "29857009",
              "display": "Chest pain",
              "system": "http://snomed.info/sct"
            }
          ]
        },
        "onsetDateTime": "2007-04-14",
        "subject": {
          "reference": "Patient/aca97b95-3c1c-ce73-ac65-f520242997a9"
        }
      },
      "request": {
        "method": "PUT",
        "url": "Condition/229e7b46-2002-0e47-6f56-5754b518c928"
      }
    },
    {
      "fullUrl": "urn:uuid:9e782a1c-ebbe-2c23-80bd-186fd09a849b",
      "resource": {
        "resourceType": "Condition",
        "id": "9e782a1c-ebbe-2c23-80bd-186fd09a849b",
        "identifier": [
          {
            "system": "urn:ietf:rfc:3986",
            "value": "urn:uuid:4991db40-4c4f-41e8-9146-50c12d716424"
          }
        ],
        "code": {
          "coding": [
            {
              "code": "194828000",
              "display": "Angina",
              "system": "http://snomed.info/sct"
            }
          ]
        },
        "onsetDateTime": "2007-04-17",
        "subject": {
          "reference": "Patient/aca97b95-3c1c-ce73-ac65-f520242997a9"
        }
      },
      "request": {
        "method": "PUT",
        "url": "Condition/9e782a1c-ebbe-2c23-80bd-186fd09a849b"
      }
    },
    {
      "fullUrl": "urn:uuid:6c3e320a-2e43-9a1b-cab0-07f8ec5d4339",
      "resource": {
        "resourceType": "Condition",
        "id": "6c3e320a-2e43-9a1b-cab0-07f8ec5d4339",
        "identifier": [
          {
            "system": "urn:ietf:rfc:3986",
            "value": "urn:uuid:10506b4d-c30a-4220-8bec-97bff9568fd1"
          }
        ],
        "code": {
          "coding": [
            {
              "code": "233604007",
              "display": "Pneumonia",
              "system": "http://snomed.info/sct"
            }
          ]
        },
        "onsetDateTime": "1998-03-10",
        "subject": {
          "reference": "Patient/aca97b95-3c1c-ce73-ac65-f520242997a9"
        }
      },
      "request": {
        "method": "PUT",
        "url": "Condition/6c3e320a-2e43-9a1b-cab0-07f8ec5d4339"
      }
    },
    {
      "fullUrl": "urn:uuid:0a7e7f9a-29b3-234c-15b8-0772a71bcaa5",
      "resource": {
        "resourceType": "AllergyIntolerance",
        "id": "0a7e7f9a-29b3-234c-15b8-0772a71bcaa5",
        "identifier": [
          {
            "system": "urn:ietf:rfc:3986",
            "value": "urn:uuid:4adc1020-7b14-11db-9fe1-0800200c9a66"
          }
        ],
        "clinicalStatus": {
          "coding": [
            {
              "system": "http://terminology.hl7.org/CodeSystem/allergyintolerance-clinical",
              "code": "active"
            }
          ]
        },
        "reaction": [
          {
            "substance": {
              "coding": [
                {
                  "code": "7980",
                  "display": "Penicillin",
                  "system": "http://www.nlm.nih.gov/research/umls/rxnorm"
                }
              ]
            },
            "manifestation": [
              {
                "coding": [
                  {
                    "code": "422587007",
                    "display": "Nausea",
                    "system": "http://snomed.info/sct"
                  }
                ]
              }
            ],
            "onset": "2008-02-26T08:05:00-08:00"
          }
        ],
        "onsetDateTime": "1998-05-01",
        "patient": {
          "reference": "Patient/aca97b95-3c1c-ce73-ac65-f520242997a9"
        }
      },
      "request": {
        "method": "PUT",
        "url": "AllergyIntolerance/0a7e7f9a-29b3-234c-15b8-0772a71bcaa5"
      }
    },
    {
      "fullUrl": "urn:uuid:edca9bf1-8554-a87d-27e5-d8b85c4b9ae7",
      "resource": {
        "resourceType": "AllergyIntolerance",
        "id": "edca9bf1-8554-a87d-27e5-d8b85c4b9ae7",
        "identifier": [
          {
            "system": "urn:ietf:rfc:3986",
            "value": "urn:uuid:901db0f8-9355-4794-81cd-fd951ef07917"
          }
        ],
        "clinicalStatus": {
          "coding": [
            {
              "system": "http://terminology.hl7.org/CodeSystem/allergyintolerance-clinical",
              "code": "active"
            }
          ]
        },
        "reaction": [
          {
            "substance": {
              "coding": [
                {
                  "code": "2670",
                  "display": "Codeine",
                  "system": "http://www.nlm.nih.gov/research/umls/rxnorm"
                }
              ]
            },
            "manifestation": [
              {
                "coding": [
                  {
                    "code": "56018004",
                    "display": "Wheezing",
                    "system": "http://snomed.info/sct"
                  }
                ]
              }
            ]
          },
          {
            "substance": {
              "coding": [
                {
                  "code": "2670",
                  "display": "Codeine",
                  "system": "http://www.nlm.nih.gov/research/umls/rxnorm"
                }
              ]
            },
            "severity": "mild"
          }
        ],
        "patient": {
          "reference": "Patient/aca97b95-3c1c-ce73-ac65-f520242997a9"
        }
      },
      "request": {
        "method": "PUT",
        "url": "AllergyIntolerance/edca9bf1-8554-a87d-27e5-d8b85c4b9ae7"
      }
    },
    {
      "fullUrl": "urn:uuid:e07a1fe6-012a-4992-257d-e88e15504ff1",
      "resource": {
        "resourceType": "MedicationStatement",
        "id": "e07a1fe6-012a-4992-257d-e88e15504ff1",
        "identifier": [
          {
            "system": "urn:ietf:rfc:3986",
            "value": "urn:uuid:cdbd33f0-6cde-11db-9fe1-0800200c9a66"
          }
        ],
        "dosage": [
          {
            "doseAndRate": [
              {
                "doseQuantity": {
                  "value": 2
                }
              }
            ]
          }
        ],
        "subject": {
          "reference": "Patient/aca97b95-3c1c-ce73-ac65-f520242997a9"
        },
        "medicationReference": {
          "reference": "Medication/b5636b87-c508-37d0-1f21-e11906922433"
        }
      },
      "request": {
        "method": "PUT",
        "url": "MedicationStatement/e07a1fe6-012a-4992-257d-e88e15504ff1"
      }
    },
    {
      "fullUrl": "urn:uuid:b5636b87-c508-37d0-1f21-e11906922433",
      "resource": {
        "resourceType": "Medication",
        "id": "b5636b87-c508-37d0-1f21-e11906922433",
        "code": {
          "coding": [
            {
              "code": "573621",
              "display": "Proventil 0.09 MG/ACTUAT inhalant solution",
              "system": "http://www.nlm.nih.gov/research/umls/rxnorm"
            }
          ]
        }
      },
      "request": {
        "method": "PUT",
        "url": "Medication/b5636b87-c508-37d0-1f21-e11906922433"
      }
    },
    {
      "fullUrl": "urn:uuid:f7e80eb3-0d83-b88e-b16c-c98ee705bb6f",
      "resource": {
        "resourceType": "MedicationStatement",
        "id": "f7e80eb3-0d83-b88e-b16c-c98ee705bb6f",
        "identifier": [
          {
            "system": "urn:ietf:rfc:3986",
            "value": "urn:uuid:6c844c75-aa34-411c-b7bd-5e4a9f206e29"
          }
        ],
        "dosage": [
          {
            "doseAndRate": [
              {
                "doseQuantity": {
                  "value": 1
                }
              }
            ]
          }
        ],
        "subject": {
          "reference": "Patient/aca97b95-3c1c-ce73-ac65-f520242997a9"
        },
        "medicationReference": {
          "reference": "Medication/b9a3c41d-8623-d966-e245-8a5aa61ad806"
        }
      },
      "request": {
        "method": "PUT",
        "url": "MedicationStatement/f7e80eb3-0d83-b88e-b16c-c98ee705bb6f"
      }
    },
    {
      "fullUrl": "urn:uuid:b9a3c41d-8623-d966-e245-8a5aa61ad806",
      "resource": {
        "resourceType": "Medication",
        "id": "b9a3c41d-8623-d966-e245-8a5aa61ad806",
        "code": {
          "coding": [
            {
              "code": "197380",
              "display": "Atenolol 25 MG Oral Tablet",
              "system": "http://www.nlm.nih.gov/research/umls/rxnorm"
            }
          ]
        }
      },
      "request": {
        "method": "PUT",
        "url": "Medication/b9a3c41d-8623-d966-e245-8a5aa61ad806"
      }
    },
    {
      "fullUrl": "urn:uuid:69c4a783-a147-b960-10a8-7102b100ddb7",
      "resource": {
        "resourceType": "DiagnosticReport",
        "id": "69c4a783-a147-b960-10a8-7102b100ddb7",
        "identifier": [
          {
            "system": "urn:ietf:rfc:3986",
            "value": "urn:uuid:7d5a02b0-67a4-11db-bd13-0800200c9a66"
          }
        ],
        "status": "final",
        "code": {
          "coding": [
            {
              "code": "57021-8",
              "display": "CBC W Auto Differential panel in Blood",
              "system": "http://loinc.org"
            }
          ]
        },
        "effectivePeriod": {
          "start": "2013-03-11T08:30:00-08:00",
          "end": "2013-03-11T08:30:00-08:00"
        },
        "subject": {
          "reference": "Patient/aca97b95-3c1c-ce73-ac65-f520242997a9"
        },
        "result": [
          {
            "reference": "Observation/d79b76a6-21dc-0ed6-4c03-6873b8bd3b63"
          },
          {
            "reference": "Observation/a2f4b922-1477-a6c3-abf2-f4ca2b280e47"
          },
          {
            "reference": "Observation/c762a139-27be-8aca-6aef-b5b10b268f31"
          },
          {
            "reference": "Observation/65f9ea11-d6a1-eb16-0788-983a9a8d0cc8"
          },
          {
            "reference": "Observation/24878041-79e3-d47a-632d-6dfac7a1bceb"
          }
        ]
      },
      "request": {
        "method": "PUT",
        "url": "DiagnosticReport/69c4a783-a147-b960-10a8-7102b100ddb7"
      }
    },
    {
      "fullUrl": "urn:uuid:d79b76a6-21dc-0ed6-4c03-6873b8bd3b63",
      "resource": {
        "resourceType": "Observation",
        "id": "d79b76a6-21dc-0ed6-4c03-6873b8bd3b63",
        "meta": {
          "profile": [
            "http://hl7.org/fhir/us/core/StructureDefinition/us-core-observationresults"
          ]
        },
        "identifier": [
          {
            "system": "urn:ietf:rfc:3986",
            "value": "urn:uuid:107c2dc0-67a5-11db-bd13-0800200c9a66"
          }
        ],
        "category": [
          {
            "coding": [
              {
                "system": "http://terminology.hl7.org/CodeSystem/observation-category",
                "code": "laboratory"
              }
            ]
          }
        ],
        "status": "final",
        "code": {
          "coding": [
            {
              "code": "718-7",
              "display": "Hemoglobin",
              "system": "http://loinc.org"
            }
          ]
        },
        "effectiveDateTime": "2013-03-11T08:30:00-08:00",
        "valueQuantity": {
          "value": 13.2,
          "unit": "g/dL"
        },
        "referenceRange": [
          {
            "low": {
              "value": 12.0,
              "unit": "g/dL"
            },
            "high": {
              "value": 15.5,
              "unit": "g/dL"
            }
          }
        ],
        "interpretation": [
          {
            "coding": [
              {
                "code": "N",
                "system": "http://terminology.hl7.org/CodeSystem/v3-ObservationInterpretation"
              }
            ]
          }
        ],
        "subject": {
          "reference": "Patient/aca97b95-3c1c-ce73-ac65-f520242997a9"
        },
        "performer": [
          {
            "reference": "Practitioner/f02faa7a-9472-70c5-2aa4-ecad5340bc01"
          }
        ]
      },
      "request": {
        "method": "PUT",
        "url": "Observation/d79b76a6-21dc-0ed6-4c03-6873b8bd3b63"
      }
    },
    {
      "fullUrl": "urn:uuid:f02faa7a-9472-70c5-2aa4-ecad5340bc01",
      "resource": {
        "resourceType": "Practitioner",
        "id": "f02faa7a-9472-70c5-2aa4-ecad5340bc01",
        "meta": {
          "profile": [
            "http://hl7.org/fhir/us/core/StructureDefinition/us-core-practitioner"
          ]
        },
        "identifier": [
          {
            "system": "http://hl7.org/fhir/sid/us-npi",
            "value": "333444444"
          }
        ],
        "qualification": [
          {
            "code": {
              "coding": [
                {
                  "code": "246Q00000X",
                  "display": "Technician, Pathology",
                  "system": "http://nucc.org/provider-taxonomy"
                }
              ]
            }
          }
        ]
      },
      "request": {
        "method": "PUT",
        "url": "Practitioner/f02faa7a-9472-70c5-2aa4-ecad5340bc01"
      }
    },
    {
      "fullUrl": "urn:uuid:a2f4b922-1477-a6c3-abf2-f4ca2b280e47",
      "resource": {
        "resourceType": "Observation",
        "id": "a2f4b922-1477-a6c3-abf2-f4ca2b280e47",
        "meta": {
          "profile": [
            "http://hl7.org/fhir/us/core/StructureDefinition/us-core-observationresults"
          ]
        },
        "identifier": [
          {
            "system": "urn:ietf:rfc:3986",
            "value": "urn:uuid:a69b3d60-2ffd-4440-958b-72b3335ff35f"
          }
        ],
        "category": [
          {
            "coding": [
              {
                "system": "http://terminology.hl7.org/CodeSystem/observation-category",
                "code": "laboratory"
              }
            ]
          }
        ],
        "status": "final",
        "code": {
          "coding": [
            {
              "code": "6690-2",
              "display": "Leukocytes",
              "system": "http://loinc.org"
            }
          ]
        },
        "effectiveDateTime": "2013-03-11T08:30:00-08:00",
        "valueQuantity": {
          "value": 6.7,
          "unit": "10*9/L"
        },
        "referenceRange": [
          {
            "low": {
              "value": 4.3,
              "unit": "10*9/L"
            },
            "high": {
              "value": 10.8,
              "unit": "10*9/L"
            }
          }
        ],
        "interpretation": [
          {
            "coding": [
              {
                "code": "N",
                "system": "http://terminology.hl7.org/CodeSystem/v3-ObservationInterpretation"
              }
            ]
          }
        ],
        "subject": {
          "reference": "Patient/aca97b95-3c1c-ce73-ac65-f520242997a9"
        },
        "performer": [
          {
            "reference": "Practitioner/f02faa7a-9472-70c5-2aa4-ecad5340bc01"
          }
        ]
      },
      "request": {
        "method": "PUT",
        "url": "Observation/a2f4b922-1477-a6c3-abf2-f4ca2b280e47"
      }
    },
    {
      "fullUrl": "urn:uuid:c762a139-27be-8aca-6aef-b5b10b268f31",
      "resource": {
        "resourceType": "Observation",
        "id": "c762a139-27be-8aca-6aef-b5b10b268f31",
        "meta": {
          "profile": [
            "http://hl7.org/fhir/us/core/StructureDefinition/us-core-observationresults"
          ]
        },
        "identifier": [
          {
            "system": "urn:ietf:rfc:3986",
            "value": "urn:uuid:ef5c1c58-4665-4556-a8e8-6e720d82f572"
          }
        ],
        "category": [
          {
            "coding": [
              {
                "system": "http://terminology.hl7.org/CodeSystem/observation-category",
                "code": "laboratory"
              }
            ]
          }
        ],
        "status": "final",
        "code": {
          "coding": [
            {
              "code": "777-3",
              "display": "Platelets",
              "system": "http://loinc.org"
            }
          ]
        },
        "effectiveDateTime": "2013-03-11T08:30:00-08:00",
        "valueQuantity": {
          "value": 123,
          "unit": "10*9/L"
        },
        "referenceRange": [
          {
            "low": {
              "value": 150,
              "unit": "10*9/L"
            },
            "high": {
              "value": 350,
              "unit": "10*9/L"
            }
          }
        ],
        "interpretation": [
          {
            "coding": [
              {
                "code": "LX",
                "system": "http://terminology.hl7.org/CodeSystem/v3-ObservationInterpretation"
              }
            ]
          }
        ],
        "subject": {
          "reference": "Patient/aca97b95-3c1c-ce73-ac65-f520242997a9"
        },
        "performer": [
          {
            "reference": "Practitioner/f02faa7a-9472-70c5-2aa4-ecad5340bc01"
          }
        ]
      },
      "request": {
        "method": "PUT",
        "url": "Observation/c762a139-27be-8aca-6aef-b5b10b268f31"
      }
    },
    {
      "fullUrl": "urn:uuid:65f9ea11-d6a1-eb16-0788-983a9a8d0cc8",
      "resource": {
        "resourceType": "Observation",
        "id": "65f9ea11-d6a1-eb16-0788-983a9a8d0cc8",
        "meta": {
          "profile": [
            "http://hl7.org/fhir/us/core/StructureDefinition/us-core-observationresults"
          ]
        },
        "identifier": [
          {
            "system": "urn:ietf:rfc:3986",
            "value": "urn:uuid:7c0704bb-9c40-41b5-9c7d-26b2d59e234f"
          }
        ],
        "category": [
          {
            "coding": [
              {
                "system": "http://terminology.hl7.org/CodeSystem/observation-category",
                "code": "laboratory"
              }
            ]
          }
        ],
        "status": "final",
        "code": {
          "coding": [
            {
              "code": "4544-3",
              "display": "Hematocrit",
              "system": "http://loinc.org"
            }
          ]
        },
        "effectiveDateTime": "2013-03-11T08:30:00-08:00",
        "valueQuantity": {
          "value": 35.3,
          "unit": "%"
        },
        "referenceRange": [
          {
            "low": {
              "value": 34.9,
              "unit": "%"
            },
            "high": {
              "value": 44.5,
              "unit": "%"
            }
          }
        ],
        "interpretation": [
          {
            "coding": [
              {
                "code": "LX",
                "display": "below low threshold",
                "system": "http://terminology.hl7.org/CodeSystem/v3-ObservationInterpretation"
              }
            ]
          }
        ],
        "subject": {
          "reference": "Patient/aca97b95-3c1c-ce73-ac65-f520242997a9"
        },
        "performer": [
          {
            "reference": "Practitioner/f02faa7a-9472-70c5-2aa4-ecad5340bc01"
          }
        ]
      },
      "request": {
        "method": "PUT",
        "url": "Observation/65f9ea11-d6a1-eb16-0788-983a9a8d0cc8"
      }
    },
    {
      "fullUrl": "urn:uuid:24878041-79e3-d47a-632d-6dfac7a1bceb",
      "resource": {
        "resourceType": "Observation",
        "id": "24878041-79e3-d47a-632d-6dfac7a1bceb",
        "meta": {
          "profile": [
            "http://hl7.org/fhir/us/core/StructureDefinition/us-core-observationresults"
          ]
        },
        "identifier": [
          {
            "system": "urn:ietf:rfc:3986",
            "value": "urn:uuid:bccd6fc9-0c7f-455e-8616-923ed0d04d09"
          }
        ],
        "category": [
          {
            "coding": [
              {
                "system": "http://terminology.hl7.org/CodeSystem/observation-category",
                "code": "laboratory"
              }
            ]
          }
        ],
        "status": "final",
        "code": {
          "coding": [
            {
              "code": "789-8",
              "display": "Erythrocytes",
              "system": "http://loinc.org"
            }
          ]
        },
        "effectiveDateTime": "2013-03-11T08:30:00-08:00",
        "valueQuantity": {
          "value": 4.21,
          "unit": "10*12/L"
        },
        "referenceRange": [
          {
            "low": {
              "value": 3.9,
              "unit": "10*12/L"
            },
            "high": {
              "value": 5.03,
              "unit": "10*12/L"
            }
          }
        ],
        "interpretation": [
          {
            "coding": [
              {
                "code": "N",
                "system": "http://terminology.hl7.org/CodeSystem/v3-ObservationInterpretation"
              }
            ]
          }
        ],
        "subject": {
          "reference": "Patient/aca97b95-3c1c-ce73-ac65-f520242997a9"
        },
        "performer": [
          {
            "reference": "Practitioner/f02faa7a-9472-70c5-2aa4-ecad5340bc01"
          }
        ]
      },
      "request": {
        "method": "PUT",
        "url": "Observation/24878041-79e3-d47a-632d-6dfac7a1bceb"
      }
    },
    {
      "fullUrl": "urn:uuid:68ac7584-d690-b5e6-505b-54220371b692",
      "resource": {
        "resourceType": "DiagnosticReport",
        "id": "68ac7584-d690-b5e6-505b-54220371b692",
        "identifier": [
          {
            "system": "urn:ietf:rfc:3986",
            "value": "urn:uuid:122ed3ae-6d9e-43d0-bfa2-434ea34b1426"
          }
        ],
        "code": {
          "coding": [
            {
              "code": "166312007",
              "display": "Blood chemistry test",
              "system": "http://snomed.info/sct"
            }
          ]
        },
        "effectivePeriod": {
          "start": "2008-03-20T09:30:00-08:00",
          "end": "2008-03-20T09:30:00-08:00"
        },
        "subject": {
          "reference": "Patient/aca97b95-3c1c-ce73-ac65-f520242997a9"
        },
        "result": [
          {
            "reference": "Observation/ed87efbb-fbb6-7496-9b41-66b2ad1c0c9f"
          }
        ]
      },
      "request": {
        "method": "PUT",
        "url": "DiagnosticReport/68ac7584-d690-b5e6-505b-54220371b692"
      }
    },
    {
      "fullUrl": "urn:uuid:ed87efbb-fbb6-7496-9b41-66b2ad1c0c9f",
      "resource": {
        "resourceType": "Observation",
        "id": "ed87efbb-fbb6-7496-9b41-66b2ad1c0c9f",
        "meta": {
          "profile": [
            "http://hl7.org/fhir/us/core/StructureDefinition/us-core-observationresults"
          ]
        },
        "identifier": [
          {
            "system": "urn:ietf:rfc:3986",
            "value": "urn:uuid:aed821af-3330-4138-97f0-e84dfe5f3c35"
          }
        ],
        "category": [
          {
            "coding": [
              {
                "system": "http://terminology.hl7.org/CodeSystem/observation-category",
                "code": "laboratory"
              }
            ]
          }
        ],
        "code": {
          "coding": [
            {
              "code": "3094-0",
              "display": "Urea nitrogen, Serum",
              "system": "http://loinc.org"
            }
          ]
        },
        "effectiveDateTime": "2008-03-20T09:30:00-08:00",
        "interpretation": [
          {
            "coding": [
              {
                "code": "N",
                "display": "normal",
                "system": "http://terminology.hl7.org/CodeSystem/v3-ObservationInterpretation"
              }
            ]
          }
        ],
        "subject": {
          "reference": "Patient/aca97b95-3c1c-ce73-ac65-f520242997a9"
        }
      },
      "request": {
        "method": "PUT",
        "url": "Observation/ed87efbb-fbb6-7496-9b41-66b2ad1c0c9f"
      }
    },
    {
      "fullUrl": "urn:uuid:61933f95-c79c-736b-00ff-24b259a37af1",
      "resource": {
        "resourceType": "Observation",
        "id": "61933f95-c79c-736b-00ff-24b259a37af1",
        "meta": {
          "profile": [
            "http://hl7.org/fhir/us/core/StructureDefinition/us-core-observationresults"
          ]
        },
        "identifier": [
          {
            "system": "urn:ietf:rfc:3986",
            "value": "urn:uuid:ed9589fd-fda0-41f7-a3d0-dc537554f5c2"
          }
        ],
        "category": [
          {
            "coding": [
              {
                "system": "http://terminology.hl7.org/CodeSystem/observation-category",
                "code": "vital-signs"
              }
            ]
          }
        ],
        "status": "final",
        "code": {
          "coding": [
            {
              "code": "8302-2",
              "display": "Height",
              "system": "http://loinc.org"
            }
          ]
        },
        "effectiveDateTime": "2012-09-10",
        "valueQuantity": {
          "value": 177,
          "unit": "cm"
        },
        "interpretation": [
          {
            "coding": [
              {
                "code": "N",
                "system": "http://terminology.hl7.org/CodeSystem/v3-ObservationInterpretation"
              }
            ]
          }
        ],
        "subject": {
          "reference": "Patient/aca97b95-3c1c-ce73-ac65-f520242997a9"
        }
      },
      "request": {
        "method": "PUT",
        "url": "Observation/61933f95-c79c-736b-00ff-24b259a37af1"
      }
    },
    {
      "fullUrl": "urn:uuid:1f878df0-e673-a211-f846-cb392c1432f5",
      "resource": {
        "resourceType": "Observation",
        "id": "1f878df0-e673-a211-f846-cb392c1432f5",
        "meta": {
          "profile": [
            "http://hl7.org/fhir/us/core/StructureDefinition/us-core-observationresults"
          ]
        },
        "identifier": [
          {
            "system": "urn:ietf:rfc:3986",
            "value": "urn:uuid:f4e729e2-a97f-4a7e-8e23-c92f9b6b55cf"
          }
        ],
        "category": [
          {
            "coding": [
              {
                "system": "http://terminology.hl7.org/CodeSystem/observation-category",
                "code": "vital-signs"
              }
            ]
          }
        ],
        "status": "final",
        "code": {
          "coding": [
            {
              "code": "3141-9",
              "display": "Patient Body Weight - Measured",
              "system": "http://loinc.org"
            }
          ]
        },
        "effectiveDateTime": "2013-02-12",
        "valueQuantity": {
          "value": 86,
          "unit": "kg"
        },
        "interpretation": [
          {
            "coding": [
              {
                "code": "N",
                "system": "http://terminology.hl7.org/CodeSystem/v3-ObservationInterpretation"
              }
            ]
          }
        ],
        "subject": {
          "reference": "Patient/aca97b95-3c1c-ce73-ac65-f520242997a9"
        }
      },
      "request": {
        "method": "PUT",
        "url": "Observation/1f878df0-e673-a211-f846-cb392c1432f5"
      }
    },
    {
      "fullUrl": "urn:uuid:d7542b5f-64ed-f83e-e842-5aa953906cd8",
      "resource": {
        "resourceType": "Observation",
        "id": "d7542b5f-64ed-f83e-e842-5aa953906cd8",
        "meta": {
          "profile": [
            "http://hl7.org/fhir/us/core/StructureDefinition/us-core-observationresults"
          ]
        },
        "identifier": [
          {
            "system": "urn:ietf:rfc:3986",
            "value": "urn:uuid:a0e39c70-9674-4b2a-9837-cdf74200d8d5"
          }
        ],
        "category": [
          {
            "coding": [
              {
                "system": "http://terminology.hl7.org/CodeSystem/observation-category",
                "code": "vital-signs"
              }
            ]
          }
        ],
        "status": "final",
        "code": {
          "coding": [
            {
              "code": "8480-6",
              "display": "Intravascular Systolic",
              "system": "http://loinc.org"
            }
          ]
        },
        "effectiveDateTime": "2013-08-01",
        "valueQuantity": {
          "value": 132,
          "unit": "mm[Hg]"
        },
        "interpretation": [
          {
            "coding": [
              {
                "code": "N",
                "system": "http://terminology.hl7.org/CodeSystem/v3-ObservationInterpretation"
              }
            ]
          }
        ],
        "subject": {
          "reference": "Patient/aca97b95-3c1c-ce73-ac65-f520242997a9"
        }
      },
      "request": {
        "method": "PUT",
        "url": "Observation/d7542b5f-64ed-f83e-e842-5aa953906cd8"
      }
    },
    {
      "fullUrl": "urn:uuid:506d2f72-db82-872c-8b91-a40c1a363872",
      "resource": {
        "resourceType": "Observation",
        "id": "506d2f72-db82-872c-8b91-a40c1a363872",
        "meta": {
          "profile": [
            "http://hl7.org/fhir/us/core/StructureDefinition/us-core-observationresults"
          ]
        },
        "identifier": [
          {
            "system": "urn:ietf:rfc:3986",
            "value": "urn:uuid:1c2748b7-e440-41ba-bc01-dde97d84a036"
          }
        ],
        "category": [
          {
            "coding": [
              {
                "system": "http://terminology.hl7.org/CodeSystem/observation-category",
                "code": "vital-signs"
              }
            ]
          }
        ],
        "status": "final",
        "code": {
          "coding": [
            {
              "code": "8462-4",
              "display": "BP Diastolic",
              "system": "http://loinc.org"
            }
          ]
        },
        "effectiveDateTime": "2012-09-10",
        "valueQuantity": {
          "value": 88,
          "unit": "mm[Hg]"
        },
        "interpretation": [
          {
            "coding": [
              {
                "code": "N",
                "system": "http://terminology.hl7.org/CodeSystem/v3-ObservationInterpretation"
              }
            ]
          }
        ],
        "subject": {
          "reference": "Patient/aca97b95-3c1c-ce73-ac65-f520242997a9"
        }
      },
      "request": {
        "method": "PUT",
        "url": "Observation/506d2f72-db82-872c-8b91-a40c1a363872"
      }
    },
    {
      "fullUrl": "urn:uuid:407a7061-82fc-600d-6f45-2205f9522ea2",
      "resource": {
        "resourceType": "Observation",
        "id": "407a7061-82fc-600d-6f45-2205f9522ea2",
        "meta": {
          "profile": [
            "http://hl7.org/fhir/us/core/StructureDefinition/us-core-observationresults"
          ]
        },
        "identifier": [
          {
            "system": "urn:ietf:rfc:3986",
            "value": "urn:uuid:05c047cd-28c3-41cd-be6c-56f8cc0c3f2f"
          }
        ],
        "category": [
          {
            "coding": [
              {
                "system": "http://terminology.hl7.org/CodeSystem/observation-category",
                "code": "vital-signs"
              }
            ]
          }
        ],
        "status": "final",
        "code": {
          "coding": [
            {
              "code": "8302-2",
              "display": "Height",
              "system": "http://loinc.org"
            }
          ]
        },
        "effectiveDateTime": "2011-09-01",
        "valueQuantity": {
          "value": 177,
          "unit": "cm"
        },
        "interpretation": [
          {
            "coding": [
              {
                "code": "N",
                "system": "http://terminology.hl7.org/CodeSystem/v3-ObservationInterpretation"
              }
            ]
          }
        ],
        "subject": {
          "reference": "Patient/aca97b95-3c1c-ce73-ac65-f520242997a9"
        }
      },
      "request": {
        "method": "PUT",
        "url": "Observation/407a7061-82fc-600d-6f45-2205f9522ea2"
      }
    },
    {
      "fullUrl": "urn:uuid:96080140-0fae-36da-0871-45ec73153011",
      "resource": {
        "resourceType": "Observation",
        "id": "96080140-0fae-36da-0871-45ec73153011",
        "meta": {
          "profile": [
            "http://hl7.org/fhir/us/core/StructureDefinition/us-core-observationresults"
          ]
        },
        "identifier": [
          {
            "system": "urn:ietf:rfc:3986",
            "value": "urn:uuid:21b0f3d5-7d07-4f4f-ad7e-c33dc2ca3835"
          }
        ],
        "category": [
          {
            "coding": [
              {
                "system": "http://terminology.hl7.org/CodeSystem/observation-category",
                "code": "vital-signs"
              }
            ]
          }
        ],
        "status": "final",
        "code": {
          "coding": [
            {
              "code": "3141-9",
              "display": "Patient Body Weight - Measured",
              "system": "http://loinc.org"
            }
          ]
        },
        "effectiveDateTime": "2011-09-01",
        "valueQuantity": {
          "value": 88,
          "unit": "kg"
        },
        "interpretation": [
          {
            "coding": [
              {
                "code": "N",
                "system": "http://terminology.hl7.org/CodeSystem/v3-ObservationInterpretation"
              }
            ]
          }
        ],
        "subject": {
          "reference": "Patient/aca97b95-3c1c-ce73-ac65-f520242997a9"
        }
      },
      "request": {
        "method": "PUT",
        "url": "Observation/96080140-0fae-36da-0871-45ec73153011"
      }
    },
    {
      "fullUrl": "urn:uuid:5ce2a08b-3624-1170-29ca-bab85d1cbaa2",
      "resource": {
        "resourceType": "Observation",
        "id": "5ce2a08b-3624-1170-29ca-bab85d1cbaa2",
        "meta": {
          "profile": [
            "http://hl7.org/fhir/us/core/StructureDefinition/us-core-observationresults"
          ]
        },
        "identifier": [
          {
            "system": "urn:ietf:rfc:3986",
            "value": "urn:uuid:b046c35a-59c7-4215-ae09-9a8409a30b21"
          }
        ],
        "category": [
          {
            "coding": [
              {
                "system": "http://terminology.hl7.org/CodeSystem/observation-category",
                "code": "vital-signs"
              }
            ]
          }
        ],
        "status": "final",
        "code": {
          "coding": [
            {
              "code": "8480-6",
              "display": "BP Systolic",
              "system": "http://loinc.org"
            }
          ]
        },
        "effectiveDateTime": "2011-09-01",
        "valueQuantity": {
          "value": 128,
          "unit": "mm[Hg]"
        },
        "interpretation": [
          {
            "coding": [
              {
                "code": "N",
                "system": "http://terminology.hl7.org/CodeSystem/v3-ObservationInterpretation"
              }
            ]
          }
        ],
        "subject": {
          "reference": "Patient/aca97b95-3c1c-ce73-ac65-f520242997a9"
        }
      },
      "request": {
        "method": "PUT",
        "url": "Observation/5ce2a08b-3624-1170-29ca-bab85d1cbaa2"
      }
    },
    {
      "fullUrl": "urn:uuid:15c07793-6df7-10af-91a0-6eea1d95d8bc",
      "resource": {
        "resourceType": "Observation",
        "id": "15c07793-6df7-10af-91a0-6eea1d95d8bc",
        "meta": {
          "profile": [
            "http://hl7.org/fhir/us/core/StructureDefinition/us-core-observationresults"
          ]
        },
        "identifier": [
          {
            "system": "urn:ietf:rfc:3986",
            "value": "urn:uuid:44f54e66-fb4b-4ee5-9ced-9574ef307a23"
          }
        ],
        "category": [
          {
            "coding": [
              {
                "system": "http://terminology.hl7.org/CodeSystem/observation-category",
                "code": "vital-signs"
              }
            ]
          }
        ],
        "status": "final",
        "code": {
          "coding": [
            {
              "code": "8462-4",
              "display": "BP Diastolic",
              "system": "http://loinc.org"
            }
          ]
        },
        "effectiveDateTime": "2011-09-01",
        "valueQuantity": {
          "value": 80,
          "unit": "mm[Hg]"
        },
        "interpretation": [
          {
            "coding": [
              {
                "code": "N",
                "system": "http://terminology.hl7.org/CodeSystem/v3-ObservationInterpretation"
              }
            ]
          }
        ],
        "subject": {
          "reference": "Patient/aca97b95-3c1c-ce73-ac65-f520242997a9"
        }
      },
      "request": {
        "method": "PUT",
        "url": "Observation/15c07793-6df7-10af-91a0-6eea1d95d8bc"
      }
    },
    {
      "fullUrl": "urn:uuid:f6504c04-adc3-ab78-f809-5a23c0f30e59",
      "resource": {
        "resourceType": "ServiceRequest",
        "id": "f6504c04-adc3-ab78-f809-5a23c0f30e59",
        "identifier": [
          {
            "system": "urn:ietf:rfc:3986",
            "value": "urn:uuid:70bdd7db-e02d-4eff-9829-35e3b7d9e154"
          }
        ],
        "status": "active",
        "code": {
          "coding": [
            {
              "code": "44383000",
              "display": "Patient referral for consultation",
              "system": "http://snomed.info/sct"
            }
          ]
        },
        "priority": "asap",
        "occurrenceDateTime": "2013-03-11",
        "requester": {
          "reference": "Practitioner/93bfea24-9f88-b634-edf5-9620349d8c55"
        }
      },
      "request": {
        "method": "PUT",
        "url": "ServiceRequest/f6504c04-adc3-ab78-f809-5a23c0f30e59"
      }
    },
    {
      "fullUrl": "urn:uuid:93bfea24-9f88-b634-edf5-9620349d8c55",
      "resource": {
        "resourceType": "Practitioner",
        "id": "93bfea24-9f88-b634-edf5-9620349d8c55",
        "meta": {
          "profile": [
            "http://hl7.org/fhir/us/core/StructureDefinition/us-core-practitioner"
          ]
        },
        "identifier": [
          {
            "system": "urn:ietf:rfc:3986",
            "value": "urn:uuid:d839038b-7171-4165-a760-467925b43857"
          }
        ],
        "name": [
          {
            "family": "Florence",
            "given": [
              "Nurse"
            ],
            "suffix": [
              "RN"
            ]
          }
        ],
        "qualification": [
          {
            "code": {
              "coding": [
                {
                  "code": "163W00000X",
                  "display": "Registered nurse",
                  "system": "http://nucc.org/provider-taxonomy"
                }
              ]
            }
          }
        ]
      },
      "request": {
        "method": "PUT",
        "url": "Practitioner/93bfea24-9f88-b634-edf5-9620349d8c55"
      }
    },
    {
      "fullUrl": "urn:uuid:aa1fbbbc-6da8-e5c5-d84c-e5db9ba5b297",
      "resource": {
        "resourceType": "Encounter",
        "id": "aa1fbbbc-6da8-e5c5-d84c-e5db9ba5b297",
        "status": "unknown",
        "class": {
          "code": "AMB",
          "display": "Ambulatory",
          "system": "urn:oid:2.16.840.1.113883.5.4"
        },
        "identifier": [
          {
            "system": "urn:ietf:rfc:3986",
            "value": "urn:uuid:2a620155-9d11-439e-92b3-5d9815ff4de8"
          }
        ],
        "subject": {
          "reference": "Patient/aca97b95-3c1c-ce73-ac65-f520242997a9"
        },
        "participant": [
          {
            "individual": {
              "reference": "Practitioner/3d89cc0a-1180-e6bd-2847-01183192be97"
            }
          }
        ],
        "location": [
          {
            "location": {
              "reference": "Location/2ef63098-806b-97ca-0444-7a16f07eaaa6"
            }
          }
        ]
      },
      "request": {
        "method": "PUT",
        "url": "Encounter/aa1fbbbc-6da8-e5c5-d84c-e5db9ba5b297"
      }
    },
    {
      "fullUrl": "urn:uuid:3d89cc0a-1180-e6bd-2847-01183192be97",
      "resource": {
        "resourceType": "Practitioner",
        "id": "3d89cc0a-1180-e6bd-2847-01183192be97",
        "meta": {
          "profile": [
            "http://hl7.org/fhir/us/core/StructureDefinition/us-core-practitioner"
          ]
        },
        "name": [
          {
            "family": "Assigned",
            "given": [
              "Amanda"
            ]
          }
        ],
        "address": [
          {
            "line": [
              "102 Health Drive"
            ],
            "city": "Ann Arbor",
            "state": "MI",
            "country": "US",
            "postalCode": "99099"
          }
        ],
        "qualification": [
          {
            "code": {
              "coding": [
                {
                  "code": "59058001",
                  "display": "General Physician",
                  "system": "http://snomed.info/sct"
                }
              ]
            }
          }
        ]
      },
      "request": {
        "method": "PUT",
        "url": "Practitioner/3d89cc0a-1180-e6bd-2847-01183192be97"
      }
    },
    {
      "fullUrl": "urn:uuid:2ef63098-806b-97ca-0444-7a16f07eaaa6",
      "resource": {
        "resourceType": "Location",
        "id": "2ef63098-806b-97ca-0444-7a16f07eaaa6",
        "name": "Good Health Clinic",
        "address": {
          "line": [
            "17 Daws Rd."
          ],
          "city": "Blue Bell",
          "state": "MA",
          "country": "US",
          "postalCode": "02368"
        },
        "type": [
          {
            "coding": [
              {
                "code": "1060-3",
                "display": "Inpatient medical ward",
                "system": "urn:oid:2.16.840.1.113883.6.259"
              }
            ]
          }
        ]
      },
      "request": {
        "method": "PUT",
        "url": "Location/2ef63098-806b-97ca-0444-7a16f07eaaa6"
      }
    },
    {
      "fullUrl": "urn:uuid:c88a8f4c-7fe0-1d81-2708-6c0f474d430a",
      "resource": {
        "resourceType": "FamilyMemberHistory",
        "id": "c88a8f4c-7fe0-1d81-2708-6c0f474d430a",
        "identifier": [
          {
            "system": "urn:ietf:rfc:3986",
            "value": "urn:uuid:d42ebf70-5c89-11db-b0de-0855200c9a66"
          }
        ],
        "status": "completed",
        "relationship": {
          "coding": [
            {
              "code": "9947008",
              "display": "Biological father",
              "system": "http://snomed.info/sct"
            }
          ]
        },
        "sex": {
          "coding": [
            {
              "code": "M",
              "display": "Male",
              "system": "urn:oid:2.16.840.1.113883.1.11.1"
            }
          ]
        },
        "bornString": "1910",
        "condition": [
          {
            "code": {
              "coding": [
                {
                  "code": "22298006",
                  "display": "Myocardial infarction",
                  "system": "http://snomed.info/sct"
                }
              ]
            },
            "contributedToDeath": true,
            "onsetAge": {
              "value": 57,
              "system": "http://unitsofmeasure.org",
              "code": "a"
            }
          },
          {
            "code": {
              "coding": [
                {
                  "code": "44054006",
                  "display": "Diabetes mellitus type 2",
                  "system": "http://snomed.info/sct"
                }
              ]
            },
            "onsetAge": {
              "value": 40,
              "system": "http://unitsofmeasure.org",
              "code": "a"
            }
          }
        ],
        "patient": {
          "reference": "Patient/aca97b95-3c1c-ce73-ac65-f520242997a9"
        }
      },
      "request": {
        "method": "PUT",
        "url": "FamilyMemberHistory/c88a8f4c-7fe0-1d81-2708-6c0f474d430a"
      }
    },
    {
      "fullUrl": "urn:uuid:7337ab58-e8c1-09cb-920a-f8bc99ec6014",
      "resource": {
        "resourceType": "Immunization",
        "id": "7337ab58-e8c1-09cb-920a-f8bc99ec6014",
        "identifier": [
          {
            "system": "urn:ietf:rfc:3986",
            "value": "urn:uuid:e6f1ba43-c0ed-4b9b-9f12-f435d8ad8f92"
          }
        ],
        "occurrenceDateTime": "1999-11",
        "vaccineCode": {
          "coding": [
            {
              "code": "141",
              "display": "Influenza, seasonal, injectable",
              "system": "http://hl7.org/fhir/sid/cvx"
            }
          ]
        },
        "status": "completed",
        "route": {
          "coding": [
            {
              "code": "C28161",
              "display": "Intramuscular injection",
              "system": "urn:oid:2.16.840.1.113883.3.26.1.1"
            }
          ]
        },
        "patient": {
          "reference": "Patient/aca97b95-3c1c-ce73-ac65-f520242997a9"
        }
      },
      "request": {
        "method": "PUT",
        "url": "Immunization/7337ab58-e8c1-09cb-920a-f8bc99ec6014"
      }
    },
    {
      "fullUrl": "urn:uuid:a0c23f6f-5b54-e97b-b82e-ad76abd1f498",
      "resource": {
        "resourceType": "Immunization",
        "id": "a0c23f6f-5b54-e97b-b82e-ad76abd1f498",
        "identifier": [
          {
            "system": "urn:ietf:rfc:3986",
            "value": "urn:uuid:e6f1ba43-c0ed-4b9b-9f12-f435d8ad8f92"
          }
        ],
        "occurrenceDateTime": "1998-12-15",
        "vaccineCode": {
          "coding": [
            {
              "code": "141",
              "display": "Influenza, seasonal, injectable",
              "system": "http://hl7.org/fhir/sid/cvx"
            }
          ]
        },
        "status": "completed",
        "route": {
          "coding": [
            {
              "code": "C28161",
              "display": "Intramuscular injection",
              "system": "urn:oid:2.16.840.1.113883.3.26.1.1"
            }
          ]
        },
        "patient": {
          "reference": "Patient/aca97b95-3c1c-ce73-ac65-f520242997a9"
        }
      },
      "request": {
        "method": "PUT",
        "url": "Immunization/a0c23f6f-5b54-e97b-b82e-ad76abd1f498"
      }
    },
    {
      "fullUrl": "urn:uuid:2e0a8332-7d91-9d99-ff8d-6ed4612a1b22",
      "resource": {
        "resourceType": "Immunization",
        "id": "2e0a8332-7d91-9d99-ff8d-6ed4612a1b22",
        "identifier": [
          {
            "system": "urn:ietf:rfc:3986",
            "value": "urn:uuid:e6f1ba43-c0ed-4b9b-9f12-f435d8ad8f92"
          }
        ],
        "occurrenceDateTime": "1998-12-15",
        "vaccineCode": {
          "coding": [
            {
              "code": "109",
              "display": "Pneumococcal NOS",
              "system": "http://hl7.org/fhir/sid/cvx"
            }
          ]
        },
        "status": "completed",
        "route": {
          "coding": [
            {
              "code": "C28161",
              "display": "Intramuscular injection",
              "system": "urn:oid:2.16.840.1.113883.3.26.1.1"
            }
          ]
        },
        "patient": {
          "reference": "Patient/aca97b95-3c1c-ce73-ac65-f520242997a9"
        }
      },
      "request": {
        "method": "PUT",
        "url": "Immunization/2e0a8332-7d91-9d99-ff8d-6ed4612a1b22"
      }
    },
    {
      "fullUrl": "urn:uuid:92350ade-bb75-ad30-767a-fa631e5e2f4f",
      "resource": {
        "resourceType": "Immunization",
        "id": "92350ade-bb75-ad30-767a-fa631e5e2f4f",
        "identifier": [
          {
            "system": "urn:ietf:rfc:3986",
            "value": "urn:uuid:e6f1ba43-c0ed-4b9b-9f12-f435d8ad8f92"
          }
        ],
        "statusReason": {
          "coding": [
            {
              "code": "PATOBJ",
              "display": "Patient Objection",
              "system": "urn:oid:2.16.840.1.113883.5.8"
            }
          ]
        },
        "occurrenceDateTime": "1998-12-15",
        "vaccineCode": {
          "coding": [
            {
              "code": "09",
              "display": "Tetanus and diphtheria toxoids - preservative free",
              "system": "http://hl7.org/fhir/sid/cvx"
            }
          ]
        },
        "status": "completed",
        "route": {
          "coding": [
            {
              "code": "C28161",
              "display": "Intramuscular injection",
              "system": "urn:oid:2.16.840.1.113883.3.26.1.1"
            }
          ]
        },
        "patient": {
          "reference": "Patient/aca97b95-3c1c-ce73-ac65-f520242997a9"
        }
      },
      "request": {
        "method": "PUT",
        "url": "Immunization/92350ade-bb75-ad30-767a-fa631e5e2f4f"
      }
    },
    {
      "fullUrl": "urn:uuid:e95883f7-60d2-c3b2-b1c7-a34c2bb580f5",
      "resource": {
        "resourceType": "Immunization",
        "id": "e95883f7-60d2-c3b2-b1c7-a34c2bb580f5",
        "identifier": [
          {
            "system": "urn:ietf:rfc:3986",
            "value": "urn:uuid:de10790f-1496-4719-8fe6-f1b87b6219f7"
          }
        ],
        "occurrenceDateTime": "2013-08-01",
        "vaccineCode": {
          "coding": [
            {
              "code": "45",
              "display": "Hepatitis B vaccine",
              "system": "http://hl7.org/fhir/sid/cvx"
            }
          ]
        },
        "status": "completed",
        "route": {
          "coding": [
            {
              "code": "C28161",
              "display": "Intramuscular injection",
              "system": "urn:oid:2.16.840.1.113883.3.26.1.1"
            }
          ]
        },
        "patient": {
          "reference": "Patient/aca97b95-3c1c-ce73-ac65-f520242997a9"
        }
      },
      "request": {
        "method": "PUT",
        "url": "Immunization/e95883f7-60d2-c3b2-b1c7-a34c2bb580f5"
      }
    },
    {
      "fullUrl": "urn:uuid:89b84661-4c89-e94c-0bf9-9011c783491f",
      "resource": {
        "resourceType": "Procedure",
        "id": "89b84661-4c89-e94c-0bf9-9011c783491f",
        "meta": {
          "profile": [
            "http://hl7.org/fhir/us/core/StructureDefinition/us-core-procedure"
          ]
        },
        "identifier": [
          {
            "system": "urn:ietf:rfc:3986",
            "value": "urn:uuid:d68b7e32-7810-4f5b-9cc2-acd54b0fd85d"
          }
        ],
        "status": "completed",
        "code": {
          "coding": [
            {
              "code": "274025005",
              "display": "Colonic polypectomy",
              "system": "http://snomed.info/sct"
            }
          ]
        },
        "performedDateTime": "2011-02-15",
        "subject": {
          "reference": "Patient/aca97b95-3c1c-ce73-ac65-f520242997a9"
        },
        "performer": [
          {
            "actor": {
              "reference": "Organization/2838090e-c1b5-3132-ca0c-490eec868f31"
            }
          }
        ]
      },
      "request": {
        "method": "PUT",
        "url": "Procedure/89b84661-4c89-e94c-0bf9-9011c783491f"
      }
    },
    {
      "fullUrl": "urn:uuid:2838090e-c1b5-3132-ca0c-490eec868f31",
      "resource": {
        "resourceType": "Organization",
        "id": "2838090e-c1b5-3132-ca0c-490eec868f31",
        "identifier": [
          {
            "system": "urn:ietf:rfc:3986",
            "value": "urn:uuid:c2ee9ee9-ae31-4628-a919-fec1cbb58686"
          }
        ],
        "name": "Good Health Clinic",
        "address": [
          {
            "line": [
              "17 Daws Rd."
            ],
            "city": "Blue Bell",
            "state": "MA",
            "country": "US",
            "postalCode": "02368"
          }
        ]
      },
      "request": {
        "method": "PUT",
        "url": "Organization/2838090e-c1b5-3132-ca0c-490eec868f31"
      }
    },
    {
      "fullUrl": "urn:uuid:3ea15056-d623-9fa1-aead-d90335ecd54c",
      "resource": {
        "resourceType": "Observation",
        "id": "3ea15056-d623-9fa1-aead-d90335ecd54c",
        "meta": {
          "profile": [
            "http://hl7.org/fhir/us/core/StructureDefinition/us-core-observationresults"
          ]
        },
        "identifier": [
          {
            "system": "urn:oid:2.16.840.1.113883.19",
            "value": "123456789"
          }
        ],
        "category": [
          {
            "coding": [
              {
                "system": "http://terminology.hl7.org/CodeSystem/observation-category",
                "code": "procedure"
              }
            ]
          }
        ],
        "code": {
          "coding": [
            {
              "code": "274025005",
              "display": "Colonic polypectomy",
              "system": "http://snomed.info/sct"
            }
          ]
        },
        "effectiveDateTime": "2011-02-03",
        "bodySite": {
          "coding": [
            {
              "code": "416949008",
              "display": "Abdomen and pelvis",
              "system": "http://snomed.info/sct"
            }
          ]
        },
        "subject": {
          "reference": "Patient/aca97b95-3c1c-ce73-ac65-f520242997a9"
        }
      },
      "request": {
        "method": "PUT",
        "url": "Observation/3ea15056-d623-9fa1-aead-d90335ecd54c"
      }
    },
    {
      "fullUrl": "urn:uuid:b653ef4d-9877-5d2e-af45-5988ebb71733",
      "resource": {
        "resourceType": "Observation",
        "id": "b653ef4d-9877-5d2e-af45-5988ebb71733",
        "meta": {
          "profile": [
            "http://hl7.org/fhir/us/core/StructureDefinition/us-core-observationresults"
          ]
        },
        "identifier": [
          {
            "system": "urn:ietf:rfc:3986",
            "value": "urn:uuid:9b56c25d-9104-45ee-9fa4-e0f3afaa01c1"
          }
        ],
        "category": [
          {
            "coding": [
              {
                "system": "http://terminology.hl7.org/CodeSystem/observation-category",
                "code": "social-history"
              }
            ]
          }
        ],
        "status": "final",
        "code": {
          "coding": [
            {
              "code": "74013-4",
              "display": "Alcoholic drinks per day",
              "system": "http://loinc.org"
            }
          ]
        },
        "effectiveDateTime": "2013-03-12",
        "valueQuantity": {
          "value": 1
        },
        "subject": {
          "reference": "Patient/aca97b95-3c1c-ce73-ac65-f520242997a9"
        }
      },
      "request": {
        "method": "PUT",
        "url": "Observation/b653ef4d-9877-5d2e-af45-5988ebb71733"
      }
    },
    {
      "fullUrl": "urn:uuid:4fff2271-a5c9-8eea-fd95-c86d30726e7b",
      "resource": {
        "resourceType": "Observation",
        "id": "4fff2271-a5c9-8eea-fd95-c86d30726e7b",
        "meta": {
          "profile": [
            "http://hl7.org/fhir/us/core/StructureDefinition/us-core-observationresults"
          ]
        },
        "identifier": [
          {
            "system": "urn:oid:2.16.840.1.113883.19",
            "value": "123456789"
          }
        ],
        "category": [
          {
            "coding": [
              {
                "system": "http://terminology.hl7.org/CodeSystem/observation-category",
                "code": "social-history"
              }
            ]
          }
        ],
        "status": "final",
        "code": {
          "coding": [
            {
              "code": "72166-2",
              "display": "Tobacco smoking status NHIS",
              "system": "http://loinc.org"
            }
          ]
        },
        "effectiveDateTime": "2013-06-21",
        "valueCodeableConcept": {
          "coding": [
            {
              "code": "8517006",
              "display": "Former smoker",
              "system": "http://snomed.info/sct"
            }
          ]
        },
        "subject": {
          "reference": "Patient/aca97b95-3c1c-ce73-ac65-f520242997a9"
        }
      },
      "request": {
        "method": "PUT",
        "url": "Observation/4fff2271-a5c9-8eea-fd95-c86d30726e7b"
      }
    },
    {
      "fullUrl": "urn:uuid:1662bab4-2276-1a14-96d3-0e61953a1fe5",
      "resource": {
        "resourceType": "Observation",
        "id": "1662bab4-2276-1a14-96d3-0e61953a1fe5",
        "meta": {
          "profile": [
            "http://hl7.org/fhir/us/core/StructureDefinition/us-core-observationresults"
          ]
        },
        "category": [
          {
            "coding": [
              {
                "system": "http://terminology.hl7.org/CodeSystem/observation-category",
                "code": "social-history"
              }
            ]
          }
        ],
        "status": "final",
        "code": {
          "coding": [
            {
              "code": "ASSERTION",
              "system": "urn:oid:2.16.840.1.113883.5.4"
            }
          ]
        },
        "effectiveDateTime": "2013-03-12",
        "valueCodeableConcept": {
          "coding": [
            {
              "code": "422615001",
              "display": "caregiver difficulty providing physical care",
              "system": "http://snomed.info/sct"
            }
          ]
        },
        "subject": {
          "reference": "Patient/aca97b95-3c1c-ce73-ac65-f520242997a9"
        }
      },
      "request": {
        "method": "PUT",
        "url": "Observation/1662bab4-2276-1a14-96d3-0e61953a1fe5"
      }
    },
    {
      "fullUrl": "urn:uuid:8bee9c30-2f62-d354-da6e-5530de201e04",
      "resource": {
        "resourceType": "Observation",
        "id": "8bee9c30-2f62-d354-da6e-5530de201e04",
        "meta": {
          "profile": [
            "http://hl7.org/fhir/us/core/StructureDefinition/us-core-observationresults"
          ]
        },
        "identifier": [
          {
            "system": "urn:ietf:rfc:3986",
            "value": "urn:uuid:37f76c51-6411-4e1d-8a37-957fd49d2cef"
          }
        ],
        "category": [
          {
            "coding": [
              {
                "system": "http://terminology.hl7.org/CodeSystem/observation-category",
                "code": "social-history"
              }
            ]
          }
        ],
        "status": "final",
        "code": {
          "coding": [
            {
              "code": "75281-6",
              "display": "Personal belief",
              "system": "http://loinc.org"
            }
          ]
        },
        "effectiveDateTime": "2013-03-12",
        "valueString": "Does not accept blood transfusions, or donates, or stores blood for                transfusion.",
        "subject": {
          "reference": "Patient/aca97b95-3c1c-ce73-ac65-f520242997a9"
        }
      },
      "request": {
        "method": "PUT",
        "url": "Observation/8bee9c30-2f62-d354-da6e-5530de201e04"
      }
    },
    {
      "fullUrl": "urn:uuid:4afd5def-a52f-6f79-5b40-86238d888b70",
      "resource": {
        "resourceType": "Observation",
        "id": "4afd5def-a52f-6f79-5b40-86238d888b70",
        "meta": {
          "profile": [
            "http://hl7.org/fhir/us/core/StructureDefinition/us-core-observationresults"
          ]
        },
        "identifier": [
          {
            "system": "urn:ietf:rfc:3986",
            "value": "urn:uuid:37f76c51-6411-4e1d-8a37-957fd49d2ceg"
          }
        ],
        "category": [
          {
            "coding": [
              {
                "system": "http://terminology.hl7.org/CodeSystem/observation-category",
                "code": "social-history"
              }
            ]
          }
        ],
        "status": "final",
        "code": {
          "coding": [
            {
              "code": "75274-1",
              "display": "Characteristics of residence",
              "system": "http://loinc.org"
            }
          ]
        },
        "effectiveDateTime": "2013-03-12",
        "valueCodeableConcept": {
          "coding": [
            {
              "code": "308899009",
              "display": "unsatisfactory living conditions (finding)",
              "system": "http://snomed.info/sct"
            }
          ]
        },
        "subject": {
          "reference": "Patient/aca97b95-3c1c-ce73-ac65-f520242997a9"
        }
      },
      "request": {
        "method": "PUT",
        "url": "Observation/4afd5def-a52f-6f79-5b40-86238d888b70"
      }
    },
    {
      "fullUrl": "urn:uuid:214e0c81-b6e6-00df-ef85-50994450465e",
      "resource": {
        "resourceType": "Device",
        "id": "214e0c81-b6e6-00df-ef85-50994450465e",
        "identifier": [
          {
            "system": "urn:ietf:rfc:3986",
            "value": "urn:uuid:3e414708-0e61-4d48-8863-484a2d473a02"
          }
        ],
        "type": {
          "coding": [
            {
              "code": "40388003",
              "display": "Implant",
              "system": "http://snomed.info/sct"
            }
          ]
        }
      },
      "request": {
        "method": "PUT",
        "url": "Device/214e0c81-b6e6-00df-ef85-50994450465e"
      }
    },
    {
      "fullUrl": "urn:uuid:2f0e33e7-605a-ed05-97ca-4c83e2c38d64",
      "resource": {
        "resourceType": "Device",
        "id": "2f0e33e7-605a-ed05-97ca-4c83e2c38d64",
        "identifier": [
          {
            "system": "urn:ietf:rfc:3986",
            "value": "urn:uuid:39b5f1b4-a8e1-4ad7-8849-0deab10c97b1"
          }
        ],
        "type": {
          "coding": [
            {
              "code": "14106009",
              "display": "cardiac pacemaker, device (physical object)",
              "system": "http://snomed.info/sct"
            }
          ]
        },
        "manufacturer": "Good Health Durable Medical Equipment"
      },
      "request": {
        "method": "PUT",
        "url": "Device/2f0e33e7-605a-ed05-97ca-4c83e2c38d64"
      }
    },
    {
      "fullUrl": "urn:uuid:3eca0851-e53b-5008-6fcf-b262d0c950c2",
      "resource": {
        "resourceType": "Device",
        "id": "3eca0851-e53b-5008-6fcf-b262d0c950c2",
        "identifier": [
          {
            "system": "urn:ietf:rfc:3986",
            "value": "urn:uuid:39b5f1b4-a8e1-4ad7-8849-0deab10c97b1"
          }
        ],
        "type": {
          "coding": [
            {
              "code": "303406003",
              "display": "upper gastrointestinal prosthesis (physical object)",
              "system": "http://snomed.info/sct"
            }
          ]
        },
        "manufacturer": "Good Health Durable Medical Equipment"
      },
      "request": {
        "method": "PUT",
        "url": "Device/3eca0851-e53b-5008-6fcf-b262d0c950c2"
      }
    },
    {
      "fullUrl": "urn:uuid:2a349963-12e3-05ff-5085-a020b30e7f97",
      "resource": {
        "resourceType": "Device",
        "id": "2a349963-12e3-05ff-5085-a020b30e7f97",
        "identifier": [
          {
            "system": "urn:ietf:rfc:3986",
            "value": "urn:uuid:cf75f5be-1da0-4256-8276-94b7fc73f9f9"
          }
        ],
        "type": {
          "coding": [
            {
              "code": "87405001",
              "display": "cane",
              "system": "http://snomed.info/sct"
            }
          ]
        },
        "manufacturer": "Good Health Durable Medical Equipment"
      },
      "request": {
        "method": "PUT",
        "url": "Device/2a349963-12e3-05ff-5085-a020b30e7f97"
      }
    },
    {
      "fullUrl": "urn:uuid:840f605f-7cee-29eb-2060-313b7a0b74c6",
      "resource": {
        "resourceType": "Procedure",
        "id": "840f605f-7cee-29eb-2060-313b7a0b74c6",
        "meta": {
          "profile": [
            "http://hl7.org/fhir/us/core/StructureDefinition/us-core-procedure"
          ]
        },
        "identifier": [
          {
            "system": "urn:ietf:rfc:3986",
            "value": "urn:uuid:d5b614bd-01ce-410d-8726-e1fd01dcc72a"
          }
        ],
        "status": "completed",
        "code": {
          "coding": [
            {
              "code": "103716009",
              "display": "Stent Placement",
              "system": "http://snomed.info/sct"
            }
          ]
        },
        "performedDateTime": "2013-05-12",
        "bodySite": [
          {
            "coding": [
              {
                "code": "28273000",
                "display": "bile duct",
                "system": "http://snomed.info/sct"
              }
            ]
          }
        ],
        "subject": {
          "reference": "Patient/aca97b95-3c1c-ce73-ac65-f520242997a9"
        },
        "performer": [
          {
            "actor": {
              "reference": "Organization/306c4c51-3243-1d4d-fb8e-717b94d56e23"
            }
          }
        ]
      },
      "request": {
        "method": "PUT",
        "url": "Procedure/840f605f-7cee-29eb-2060-313b7a0b74c6"
      }
    },
    {
      "fullUrl": "urn:uuid:306c4c51-3243-1d4d-fb8e-717b94d56e23",
      "resource": {
        "resourceType": "Organization",
        "id": "306c4c51-3243-1d4d-fb8e-717b94d56e23",
        "identifier": [
          {
            "system": "urn:ietf:rfc:3986",
            "value": "urn:uuid:2.16.840.1.113883.19.5"
          }
        ],
        "name": "Community Health and Hospitals",
        "address": [
          {
            "line": [
              "1003 Health Care Drive"
            ],
            "city": "Ann Arbor",
            "state": "MI",
            "country": "US",
            "postalCode": "02368"
          }
        ],
        "telecom": [
          {
            "system": "phone",
            "value": "+1(555)-555-5005",
            "use": "work"
          }
        ]
      },
      "request": {
        "method": "PUT",
        "url": "Organization/306c4c51-3243-1d4d-fb8e-717b94d56e23"
      }
    },
    {
      "fullUrl": "urn:uuid:0bdc495f-6b95-88ee-ad4b-902401a56859",
      "resource": {
        "resourceType": "Consent",
        "id": "0bdc495f-6b95-88ee-ad4b-902401a56859",
        "identifier": [
          {
            "system": "urn:ietf:rfc:3986",
            "value": "urn:uuid:af6ebdf2-d996-11e2-a5b8-f23c91aec05e"
          }
        ],
        "status": "active",
        "scope": {
          "coding": [
            {
              "system": "http://terminology.hl7.org/CodeSystem/consentscope",
              "code": "adr"
            }
          ]
        },
        "category": [
          {
            "coding": [
              {
                "code": "45473-6",
                "system": "http://loinc.org"
              }
            ]
          }
        ],
        "dateTime": "2011-02-19",
        "provision": {
          "code": [
            {
              "coding": [
                {
                  "code": "304253006",
                  "display": "Do not resuscitate",
                  "system": "http://snomed.info/sct"
                }
              ]
            }
          ]
        },
        "patient": {
          "reference": "Patient/aca97b95-3c1c-ce73-ac65-f520242997a9"
        },
        "sourceReference": {
          "reference": "DocumentReference/f5efdf8c-651c-5b3a-c9f2-26677ad90da0"
        },
        "performer": [
          {
            "reference": "Practitioner/2cc9a3a8-789c-1981-1868-ed0f20d85191"
          }
        ]
      },
      "request": {
        "method": "PUT",
        "url": "Consent/0bdc495f-6b95-88ee-ad4b-902401a56859"
      }
    },
    {
      "fullUrl": "urn:uuid:f5efdf8c-651c-5b3a-c9f2-26677ad90da0",
      "resource": {
        "resourceType": "DocumentReference",
        "id": "f5efdf8c-651c-5b3a-c9f2-26677ad90da0",
        "status": "current",
        "content": [
          {
            "attachment": {
              "contentType": "application/pdf",
              "url": "AdvanceDirective.b50b7910.pdf"
            }
          }
        ]
      },
      "request": {
        "method": "PUT",
        "url": "DocumentReference/f5efdf8c-651c-5b3a-c9f2-26677ad90da0"
      }
    },
    {
      "fullUrl": "urn:uuid:2cc9a3a8-789c-1981-1868-ed0f20d85191",
      "resource": {
        "resourceType": "Practitioner",
        "id": "2cc9a3a8-789c-1981-1868-ed0f20d85191",
        "meta": {
          "profile": [
            "http://hl7.org/fhir/us/core/StructureDefinition/us-core-practitioner"
          ]
        },
        "identifier": [
          {
            "system": "urn:ietf:rfc:3986",
            "value": "urn:uuid:20cf14fb-b65c-4c8c-a54d-b0cca834c18c"
          }
        ],
        "name": [
          {
            "family": "Nightingale",
            "given": [
              "Nurse"
            ],
            "suffix": [
              "RN"
            ]
          }
        ],
        "qualification": [
          {
            "code": {
              "coding": [
                {
                  "code": "163W00000X",
                  "display": "Registered nurse",
                  "system": "http://nucc.org/provider-taxonomy"
                }
              ]
            }
          }
        ]
      },
      "request": {
        "method": "PUT",
        "url": "Practitioner/2cc9a3a8-789c-1981-1868-ed0f20d85191"
      }
    },
    {
      "fullUrl": "urn:uuid:abef5921-f08a-354f-b6a5-96e702c93963",
      "resource": {
        "resourceType": "Observation",
        "id": "abef5921-f08a-354f-b6a5-96e702c93963",
        "meta": {
          "profile": [
            "http://hl7.org/fhir/us/core/StructureDefinition/us-core-observationresults"
          ]
        },
        "identifier": [
          {
            "system": "urn:ietf:rfc:3986",
            "value": "urn:uuid:c12ecaaf-53f8-4593-8f79-359aeaa3948b"
          }
        ],
        "status": "final",
        "code": {
          "coding": [
            {
              "code": "75275-8",
              "display": "Cognitive function",
              "system": "http://loinc.org"
            }
          ]
        },
        "effectiveDateTime": "2013-03-11",
        "valueCodeableConcept": {
          "coding": [
            {
              "code": "11163003",
              "display": "Intact",
              "system": "http://snomed.info/sct"
            }
          ]
        },
        "subject": {
          "reference": "Patient/aca97b95-3c1c-ce73-ac65-f520242997a9"
        },
        "performer": [
          {
            "reference": "Practitioner/e1ba9b33-b82e-7558-1732-131914e8e2cc"
          }
        ]
      },
      "request": {
        "method": "PUT",
        "url": "Observation/abef5921-f08a-354f-b6a5-96e702c93963"
      }
    },
    {
      "fullUrl": "urn:uuid:e1ba9b33-b82e-7558-1732-131914e8e2cc",
      "resource": {
        "resourceType": "Practitioner",
        "id": "e1ba9b33-b82e-7558-1732-131914e8e2cc",
        "meta": {
          "profile": [
            "http://hl7.org/fhir/us/core/StructureDefinition/us-core-practitioner"
          ]
        },
        "identifier": [
          {
            "system": "urn:oid:2.16.840.1.113883.19.5",
            "value": "KP00017"
          }
        ],
        "name": [
          {
            "family": "Amanda",
            "given": [
              "Assigned"
            ]
          }
        ],
        "address": [
          {
            "line": [
              "1003 Health Care Drive"
            ],
            "city": "Ann Arbor",
            "state": "MI",
            "country": "US",
            "postalCode": "02368"
          }
        ],
        "telecom": [
          {
            "system": "phone",
            "value": "+1(555)555-1003",
            "use": "work"
          }
        ]
      },
      "request": {
        "method": "PUT",
        "url": "Practitioner/e1ba9b33-b82e-7558-1732-131914e8e2cc"
      }
    },
    {
      "fullUrl": "urn:uuid:f367f1cf-b6ed-8836-d27b-ed8e9c9dd33a",
      "resource": {
        "resourceType": "Observation",
        "id": "f367f1cf-b6ed-8836-d27b-ed8e9c9dd33a",
        "meta": {
          "profile": [
            "http://hl7.org/fhir/us/core/StructureDefinition/us-core-observationresults"
          ]
        },
        "identifier": [
          {
            "system": "urn:ietf:rfc:3986",
            "value": "urn:uuid:c6b5a04b-2bf4-49d1-8336-636a3813df0a"
          }
        ],
        "status": "final",
        "code": {
          "coding": [
            {
              "code": "75275-8",
              "display": "Cognitive function",
              "system": "http://loinc.org"
            }
          ]
        },
        "effectiveDateTime": "2013-03-11",
        "valueCodeableConcept": {
          "coding": [
            {
              "code": "61372001",
              "display": "Aggressive behavior",
              "system": "http://snomed.info/sct"
            }
          ]
        },
        "subject": {
          "reference": "Patient/aca97b95-3c1c-ce73-ac65-f520242997a9"
        },
        "performer": [
          {
            "reference": "Practitioner/e1ba9b33-b82e-7558-1732-131914e8e2cc"
          }
        ]
      },
      "request": {
        "method": "PUT",
        "url": "Observation/f367f1cf-b6ed-8836-d27b-ed8e9c9dd33a"
      }
    },
    {
      "fullUrl": "urn:uuid:9a16e3ff-149e-ce6b-325f-e25843cf412b",
      "resource": {
        "resourceType": "Observation",
        "id": "9a16e3ff-149e-ce6b-325f-e25843cf412b",
        "meta": {
          "profile": [
            "http://hl7.org/fhir/us/core/StructureDefinition/us-core-observationresults"
          ]
        },
        "identifier": [
          {
            "system": "urn:ietf:rfc:3986",
            "value": "urn:uuid:c6b5a04b-2bf4-49d1-8336-636a3813df0a"
          }
        ],
        "status": "final",
        "code": {
          "coding": [
            {
              "code": "75275-8",
              "display": "Cognitive function",
              "system": "http://loinc.org"
            }
          ]
        },
        "effectiveDateTime": "2013-03-11",
        "valueCodeableConcept": {
          "coding": [
            {
              "code": "286569004",
              "display": "difficulty understanding own emotions",
              "system": "http://snomed.info/sct"
            }
          ]
        },
        "subject": {
          "reference": "Patient/aca97b95-3c1c-ce73-ac65-f520242997a9"
        },
        "performer": [
          {
            "reference": "Practitioner/e1ba9b33-b82e-7558-1732-131914e8e2cc"
          }
        ]
      },
      "request": {
        "method": "PUT",
        "url": "Observation/9a16e3ff-149e-ce6b-325f-e25843cf412b"
      }
    },
    {
      "fullUrl": "urn:uuid:ffb9cc83-9cb0-80ce-c29c-1a28bd94c2b3",
      "resource": {
        "resourceType": "Observation",
        "id": "ffb9cc83-9cb0-80ce-c29c-1a28bd94c2b3",
        "meta": {
          "profile": [
            "http://hl7.org/fhir/us/core/StructureDefinition/us-core-observationresults"
          ]
        },
        "identifier": [
          {
            "system": "urn:ietf:rfc:3986",
            "value": "urn:uuid:c6b5a04b-2bf4-49d1-8336-636a3813df0a"
          }
        ],
        "status": "final",
        "code": {
          "coding": [
            {
              "code": "75275-8",
              "display": "Cognitive function",
              "system": "http://loinc.org"
            }
          ]
        },
        "effectiveDateTime": "2013-03-11",
        "valueCodeableConcept": {
          "coding": [
            {
              "code": "288760009",
              "display": "difficulty communicating thoughts",
              "system": "http://snomed.info/sct"
            }
          ]
        },
        "subject": {
          "reference": "Patient/aca97b95-3c1c-ce73-ac65-f520242997a9"
        },
        "performer": [
          {
            "reference": "Practitioner/e1ba9b33-b82e-7558-1732-131914e8e2cc"
          }
        ]
      },
      "request": {
        "method": "PUT",
        "url": "Observation/ffb9cc83-9cb0-80ce-c29c-1a28bd94c2b3"
      }
    },
    {
      "fullUrl": "urn:uuid:c8a96c6b-18d9-073a-92f2-6a3288790e28",
      "resource": {
        "resourceType": "Observation",
        "id": "c8a96c6b-18d9-073a-92f2-6a3288790e28",
        "meta": {
          "profile": [
            "http://hl7.org/fhir/us/core/StructureDefinition/us-core-observationresults"
          ]
        },
        "identifier": [
          {
            "system": "urn:ietf:rfc:3986",
            "value": "urn:uuid:c12ecaaf-53f8-4593-8f79-359aeaa3948b"
          }
        ],
        "status": "final",
        "code": {
          "coding": [
            {
              "code": "75305-3",
              "display": "Nutritional status",
              "system": "http://loinc.org"
            }
          ]
        },
        "effectiveDateTime": "2013-05-12",
        "valueCodeableConcept": {
          "coding": [
            {
              "code": "248324001",
              "display": "well nourished",
              "system": "http://snomed.info/sct"
            }
          ]
        },
        "subject": {
          "reference": "Patient/aca97b95-3c1c-ce73-ac65-f520242997a9"
        }
      },
      "request": {
        "method": "PUT",
        "url": "Observation/c8a96c6b-18d9-073a-92f2-6a3288790e28"
      }
    },
    {
      "fullUrl": "urn:uuid:769f5e53-2d40-b26b-354b-7b049fa3a345",
      "resource": {
        "resourceType": "Observation",
        "id": "769f5e53-2d40-b26b-354b-7b049fa3a345",
        "meta": {
          "profile": [
            "http://hl7.org/fhir/us/core/StructureDefinition/us-core-observationresults"
          ]
        },
        "identifier": [
          {
            "system": "urn:ietf:rfc:3986",
            "value": "urn:uuid:ab1791b0-5c71-11db-b0de-0800200c9a66"
          }
        ],
        "status": "final",
        "code": {
          "coding": [
            {
              "code": "75303-8",
              "display": "Nutrition assessment",
              "system": "http://loinc.org"
            }
          ]
        },
        "effectiveDateTime": "2013-05-12",
        "valueCodeableConcept": {
          "coding": [
            {
              "code": "386619000",
              "display": "low sodium diet (finding)",
              "system": "http://snomed.info/sct"
            }
          ]
        },
        "subject": {
          "reference": "Patient/aca97b95-3c1c-ce73-ac65-f520242997a9"
        },
        "performer": [
          {
            "reference": "Practitioner/b0ac12ce-9e58-22b8-f79a-aba2409dac02"
          }
        ]
      },
      "request": {
        "method": "PUT",
        "url": "Observation/769f5e53-2d40-b26b-354b-7b049fa3a345"
      }
    },
    {
      "fullUrl": "urn:uuid:41d535f8-ce4b-402e-0a61-876e4e7d6b36",
      "resource": {
        "resourceType": "Observation",
        "id": "41d535f8-ce4b-402e-0a61-876e4e7d6b36",
        "meta": {
          "profile": [
            "http://hl7.org/fhir/us/core/StructureDefinition/us-core-observationresults"
          ]
        },
        "identifier": [
          {
            "system": "urn:ietf:rfc:3986",
            "value": "urn:uuid:ab1791b0-5c71-11db-b0de-0800200c9a66"
          }
        ],
        "status": "final",
        "code": {
          "coding": [
            {
              "code": "75303-8",
              "display": "Nutrition assessment",
              "system": "http://loinc.org"
            }
          ]
        },
        "effectiveDateTime": "2013-05-12",
        "valueCodeableConcept": {
          "coding": [
            {
              "code": "430186007",
              "display": "excessive dietary carbohydrate intake(finding)",
              "system": "http://snomed.info/sct"
            }
          ]
        },
        "subject": {
          "reference": "Patient/aca97b95-3c1c-ce73-ac65-f520242997a9"
        },
        "performer": [
          {
            "reference": "Practitioner/b0ac12ce-9e58-22b8-f79a-aba2409dac02"
          }
        ]
      },
      "request": {
        "method": "PUT",
        "url": "Observation/41d535f8-ce4b-402e-0a61-876e4e7d6b36"
      }
    },
    {
      "fullUrl": "urn:uuid:53829363-9275-0e52-eb82-ba555ad70895",
      "resource": {
        "resourceType": "Coverage",
        "id": "53829363-9275-0e52-eb82-ba555ad70895",
        "identifier": [
          {
            "system": "urn:ietf:rfc:3986",
            "value": "urn:uuid:3e676a50-7aac-11db-9fe1-0800200c9a66"
          }
        ],
        "relationship": {
          "coding": [
            {
              "code": "SELF",
              "system": "urn:oid:2.16.840.1.113883.5.110"
            }
          ]
        }
      },
      "request": {
        "method": "PUT",
        "url": "Coverage/53829363-9275-0e52-eb82-ba555ad70895"
      }
    },
    {
      "fullUrl": "urn:uuid:64079ee3-305d-c22a-da6a-d26d48177d6c",
      "resource": {
        "resourceType": "Organization",
        "id": "64079ee3-305d-c22a-da6a-d26d48177d6c",
        "name": "Good Health Insurance"
      },
      "request": {
        "method": "PUT",
        "url": "Organization/64079ee3-305d-c22a-da6a-d26d48177d6c"
      }
    },
    {
      "fullUrl": "urn:uuid:6769bcd5-b689-ec87-f8a0-714f2eee3183",
      "resource": {
        "resourceType": "DocumentReference",
        "id": "6769bcd5-b689-ec87-f8a0-714f2eee3183",
        "type": {
          "coding": [
            {
              "code": "18761-7",
              "display": "Provider Unspecified Transfer Summary",
              "system": "http://loinc.org"
            }
          ]
        },
        "date": "2024-10-31T15:05:05.285Z",
        "status": "current",
        "content": [
          {
            "attachment": {
              "contentType": "text/plain",
              "data": "",
              "hash": "MjcyZmU0Mzk0ZGE1NTRlNzEyMGVjMWEzMDU3ZGQxZGIxZjg3MTVhZA=="
            }
          }
        ]
      },
      "request": {
        "method": "PUT",
        "url": "DocumentReference/6769bcd5-b689-ec87-f8a0-714f2eee3183"
      }
    }
  ]
}