{
    "resourceType": "Bundle",
    "type": "transaction",
    "entry": [
        {
            "fullUrl": "urn:uuid:7af3814d-7b7b-3caa-a589-682a83308448",
            "resource": {
                "resourceType": "Patient",
                "id": "7af3814d-7b7b-3caa-a589-682a83308448",
                "identifier": [
                    {
                        "value": "MRNTC09SA-Part A"
                    }
                ],
                "name": [
                    {
                        "family": "Shine",
                        "given": [
                            "Baby Girl"
                        ],
                        "use": "official"
                    }
                ],
                "birthDate": "2016-03-08",
                "gender": "female"
            },
            "request": {
                "method": "PUT",
                "url": "Patient/7af3814d-7b7b-3caa-a589-682a83308448"
            }
        },
        {
            "fullUrl": "urn:uuid:788186b0-a2b6-37c7-8583-5ea74462f36a",
            "resource": {
                "resourceType": "RelatedPerson",
                "id": "788186b0-a2b6-37c7-8583-5ea74462f36a",
                "relationship": [
                    {
                        "coding": [
                            {
                                "code": "MTH",
                                "display": "mother",
                                "system": "http://terminology.hl7.org/CodeSystem/v3-RoleCode"
                            }
                        ]
                    }
                ],
                "address": [
                    {
                        "line": [
                            "123 Main Street",
                            "Apartment 3-"
                        ]
                    }
                ],
                "name": [
                    {
                        "family": "Shine",
                        "given": [
                            "Sarah"
                        ]
                    }
                ],
                "patient": {
                    "reference": "Patient/7af3814d-7b7b-3caa-a589-682a83308448"
                }
            },
            "request": {
                "method": "PUT",
                "url": "RelatedPerson/788186b0-a2b6-37c7-8583-5ea74462f36a"
            }
        },
        {
            "fullUrl": "urn:uuid:51dc7db6-62d6-3f42-ae02-2501f70021d3",
            "resource": {
                "resourceType": "ServiceRequest",
                "id": "51dc7db6-62d6-3f42-ae02-2501f70021d3",
                "intent": "order",
                "identifier": [
                    {
                        "value": "ORD723222",
                        "type": {
                            "coding": [
                                {
                                    "code": "PLAC",
                                    "system": "http://terminology.hl7.org/CodeSystem/v2-0203"
                                }
                            ]
                        }
                    },
                    {
                        "value": "R783274",
                        "type": {
                            "coding": [
                                {
                                    "code": "FILL",
                                    "system": "http://terminology.hl7.org/CodeSystem/v2-0203"
                                }
                            ]
                        }
                    },
                    {
                        "value": "GORD874211",
                        "type": {
                            "coding": [
                                {
                                    "code": "PGN",
                                    "system": "http://terminology.hl7.org/CodeSystem/v2-0203"
                                }
                            ]
                        }
                    },
                    {
                        "type": {
                            "coding": [
                                {
                                    "code": "FILL",
                                    "system": "http://terminology.hl7.org/CodeSystem/v2-0203"
                                }
                            ]
                        }
                    },
                    {
                        "value": "ORD723222"
                    },
                    {
                        "value": "R-783274"
                    }
                ],
                "authoredOn": "2016-03-08T18:04:05.000Z",
                "subject": {
                    "reference": "Patient/7af3814d-7b7b-3caa-a589-682a83308448"
                },
                "code": {
                    "coding": [
                        {
                            "code": "6532-"
                        }
                    ]
                },
                "supportingInfo": [
                    {
                        "reference": "Observation/1e27f826-3ee6-3bde-91fa-496ff994717a"
                    }
                ],
                "reasonReference": [
                    {
                        "reference": "Condition/d595ae70-e91c-3258-af67-2011a9d2097a"
                    }
                ],
                "specimen": [
                    {
                        "reference": "Specimen/0d8a1698-ca28-363c-9f98-d36faaef372e"
                    }
                ]
            },
            "request": {
                "method": "PUT",
                "url": "ServiceRequest/51dc7db6-62d6-3f42-ae02-2501f70021d3"
            }
        },
        {
            "fullUrl": "urn:uuid:f6093219-1983-3a87-ba66-eebfa11726b0",
            "resource": {
                "resourceType": "Provenance",
                "id": "f6093219-1983-3a87-ba66-eebfa11726b0",
                "agent": [
                    {
                        "type": {
                            "coding": [
                                {
                                    "code": "author",
                                    "system": "http://terminology.hl7.org/CodeSystem/provenance-participant-type"
                                }
                            ]
                        }
                    }
                ],
                "recorded": "2016-03-08T18:04:05.000Z",
                "activity": {
                    "coding": [
                        {
                            "code": "CREATE",
                            "system": "http://terminology.hl7.org/CodeSystem/v3-DataOperation"
                        }
                    ]
                },
                "occurredDateTime": "2016-03-08T18:04:05.000Z",
                "target": [
                    {
                        "reference": "ServiceRequest/51dc7db6-62d6-3f42-ae02-2501f70021d3"
                    }
                ]
            },
            "request": {
                "method": "PUT",
                "url": "Provenance/f6093219-1983-3a87-ba66-eebfa11726b0"
            }
        },
        {
            "fullUrl": "urn:uuid:1e27f826-3ee6-3bde-91fa-496ff994717a",
            "resource": {
                "resourceType": "Observation",
                "id": "1e27f826-3ee6-3bde-91fa-496ff994717a",
                "code": {
                    "coding": [
                        {
                            "code": "AOE15",
                            "display": "Date of Last Rabies Vaccination",
                            "system": "BOL_0002"
                        }
                    ]
                },
                "component": [
                    {
                        "code": {
                            "coding": [
                                {
                                    "code": "AOE15",
                                    "display": "Date of Last Rabies Vaccination",
                                    "system": "BOL_0002"
                                }
                            ]
                        }
                    }
                ],
                "subject": {
                    "reference": "Patient/7af3814d-7b7b-3caa-a589-682a83308448"
                }
            },
            "request": {
                "method": "PUT",
                "url": "Observation/1e27f826-3ee6-3bde-91fa-496ff994717a"
            }
        },
        {
            "fullUrl": "urn:uuid:d595ae70-e91c-3258-af67-2011a9d2097a",
            "resource": {
                "resourceType": "Condition",
                "id": "d595ae70-e91c-3258-af67-2011a9d2097a",
                "code": {
                    "coding": [
                        {
                            "code": "V04.5",
                            "display": "Vaccine for Rabbies",
                            "system": "I9"
                        }
                    ]
                },
                "subject": {
                    "reference": "Patient/7af3814d-7b7b-3caa-a589-682a83308448"
                }
            },
            "request": {
                "method": "PUT",
                "url": "Condition/d595ae70-e91c-3258-af67-2011a9d2097a"
            }
        },
        {
            "fullUrl": "urn:uuid:0d8a1698-ca28-363c-9f98-d36faaef372e",
            "resource": {
                "resourceType": "Specimen",
                "id": "0d8a1698-ca28-363c-9f98-d36faaef372e",
                "identifier": [
                    {
                        "value": "4222",
                        "type": {
                            "coding": [
                                {
                                    "code": "PLAC",
                                    "system": "http://terminology.hl7.org/CodeSystem/v2-0203"
                                }
                            ]
                        }
                    }
                ],
                "type": {
                    "coding": [
                        {
                            "code": "67922002",
                            "display": "Serum",
                            "system": "SCT"
                        }
                    ]
                },
                "container": [
                    {
                        "additiveCodeableConcept": {
                            "coding": [
                                {
                                    "code": "NONE"
                                }
                            ]
                        }
                    }
                ],
                "collection": {
                    "method": {
                        "coding": [
                            {
                                "code": "SWA"
                            }
                        ]
                    },
                    "collectedDateTime": "2016-03-08T22:05:51.000Z"
                }
            },
            "request": {
                "method": "PUT",
                "url": "Specimen/0d8a1698-ca28-363c-9f98-d36faaef372e"
            }
        }
    ]
}