{
  "resourceType": "Bundle",
  "type": "batch",
  "timestamp": "2008-01-31T19:15:00+05:30",
  "identifier": {
      "value": "PS1-20080131160038"
  },
  "id": "c1cfc1cf-5772-3713-5eb2-0ffdca6df60b",
  "entry": [
      {
          "fullUrl": "urn:uuid:f6276090-3778-3e87-dab9-2c9dae838d1a",
          "resource": {
              "resourceType": "MessageHeader",
              "id": "f6276090-3778-3e87-dab9-2c9dae838d1a",
              "source": {
                  "name": "PROSOLV",
                  "_endpoint": {
                      "extension": [
                          {
                              "url": "http://hl7.org/fhir/StructureDefinition/data-absent-reason",
                              "valueCode": "unknown"
                          }
                      ]
                  },
                  "version": "2.4.3.52854",
                  "software": "Rhapsody"
              },
              "destination": [
                  {
                      "name": "SYSTEM",
                      "_endpoint": {
                          "extension": [
                              {
                                  "url": "http://hl7.org/fhir/StructureDefinition/data-absent-reason",
                                  "valueCode": "unknown"
                              }
                          ]
                      },
                      "receiver": {
                          "reference": "Organization/a546f42b-2f91-c12a-4596-67ce49a595d9"
                      }
                  }
              ],
              "meta": {
                  "tag": [
                      {
                          "code": "P",
                          "system": "http://terminology.hl7.org/CodeSystem/v2-0103"
                      }
                  ]
              },
              "eventCoding": {
                  "code": "T06",
                  "system": "http://terminology.hl7.org/CodeSystem/v2-0003",
                  "display": "MDM^T06^MDM_T06"
              },
              "sender": {
                  "reference": "Organization/a546f42b-2f91-c12a-4596-67ce49a595d9"
              }
          },
          "request": {
              "method": "PUT",
              "url": "MessageHeader/f6276090-3778-3e87-dab9-2c9dae838d1a"
          }
      },
      {
          "fullUrl": "urn:uuid:62e243a9-2299-8d17-3755-2ea9dcea5246",
          "resource": {
              "resourceType": "Provenance",
              "id": "62e243a9-2299-8d17-3755-2ea9dcea5246",
              "text": {
                  "status": "generated",
                  "div": "<div xmlns=\"http://www.w3.org/1999/xhtml\"><p><span>Resource bundle generated on 2022-03-28T08:32:20.423Z using Microsoft FHIR Converter.</span><span>Template Version: TEMPLATE_VERSION_PLACEHOLDER.</span><span>Template URL: https://github.com/microsoft/FHIR-Converter/releases/download/vTEMPLATE_VERSION_PLACEHOLDER/Hl7v2DefaultTemplates.tar.gz.</span><span>Root template: MDM_T06.</span></p></div>"
              },
              "occurredDateTime": "2008-01-31T19:15:00+05:30",
              "recorded": "2008-01-31T19:15:00+05:30",
              "agent": [
                  {
                      "type": {
                          "coding": [
                              {
                                  "code": "author",
                                  "system": "http://terminology.hl7.org/CodeSystem/provenance-participant-type"
                              }
                          ]
                      },
                      "who": {
                          "reference": "Organization/a546f42b-2f91-c12a-4596-67ce49a595d9"
                      }
                  }
              ],
              "activity": {
                  "coding": [
                      {
                          "display": "MDM^T06^MDM_T06"
                      }
                  ]
              },
              "target": [
                  {
                      "reference": "Bundle/c1cfc1cf-5772-3713-5eb2-0ffdca6df60b"
                  }
              ]
          },
          "request": {
              "method": "PUT",
              "url": "Provenance/62e243a9-2299-8d17-3755-2ea9dcea5246"
          }
      },
      {
          "fullUrl": "urn:uuid:a546f42b-2f91-c12a-4596-67ce49a595d9",
          "resource": {
              "resourceType": "Organization",
              "id": "a546f42b-2f91-c12a-4596-67ce49a595d9",
              "identifier": [
                  {
                      "value": "XYZHOSPITAL",
                      "system": "http://example.com/v2-to-fhir-converter/Identifier/XYZHOSPITAL"
                  }
              ]
          },
          "request": {
              "method": "PUT",
              "url": "Organization/a546f42b-2f91-c12a-4596-67ce49a595d9"
          }
      },
      {
          "fullUrl": "urn:uuid:4b549918-a84d-cdaf-e150-c773a5d306e5",
          "resource": {
              "resourceType": "Device",
              "id": "4b549918-a84d-cdaf-e150-c773a5d306e5",
              "manufacturer": "Orion",
              "deviceName": [
                  {
                      "name": "Rhapsody",
                      "type": "manufacturer-name"
                  }
              ],
              "version": [
                  {
                      "value": "2.4.3.52854"
                  }
              ],
              "modelNumber": "2.4.3",
              "note": [
                  {
                      "text": "Testactivity"
                  }
              ]
          },
          "request": {
              "method": "PUT",
              "url": "Device/4b549918-a84d-cdaf-e150-c773a5d306e5"
          }
      },
      {
          "fullUrl": "urn:uuid:63520aa7-562e-9367-0c96-f8f720c3a418",
          "resource": {
              "resourceType": "Provenance",
              "id": "63520aa7-562e-9367-0c96-f8f720c3a418",
              "recorded": "2008-01-31T19:15:00+05:30",
              "agent": [
                  {
                      "who": {
                          "reference": "Practitioner/983f747a-cf80-25e8-0431-719272f56adf"
                      }
                  }
              ],
              "activity": {
                  "text": "MDM^T06^MDM_T06"
              },
              "target": [
                  {
                      "reference": "Bundle/c1cfc1cf-5772-3713-5eb2-0ffdca6df60b"
                  }
              ]
          },
          "request": {
              "method": "PUT",
              "url": "Provenance/63520aa7-562e-9367-0c96-f8f720c3a418"
          }
      },
      {
          "fullUrl": "urn:uuid:983f747a-cf80-25e8-0431-719272f56adf",
          "resource": {
              "resourceType": "Practitioner",
              "id": "983f747a-cf80-25e8-0431-719272f56adf",
              "identifier": [
                  {
                      "value": "C08"
                  }
              ],
              "name": [
                  {
                      "family": "Woolfson",
                      "given": [
                          "Kathleen"
                      ]
                  }
              ]
          },
          "request": {
              "method": "PUT",
              "url": "Practitioner/983f747a-cf80-25e8-0431-719272f56adf"
          }
      },
      {
          "fullUrl": "urn:uuid:073b77fa-7722-30cf-cd8f-218a179da613",
          "resource": {
              "resourceType": "Patient",
              "id": "073b77fa-7722-30cf-cd8f-218a179da613",
              "identifier": [
                  {
                      "value": "987654321"
                  },
                  {
                      "value": "987654321"
                  },
                  {
                      "value": "111-22-3333",
                      "type": {
                          "coding": [
                              {
                                  "code": "SB",
                                  "system": "http://terminology.hl7.org/CodeSystem/v2-0203"
                              }
                          ]
                      },
                      "system": "http://hl7.org/fhir/sid/us-ssn"
                  }
              ],
              "name": [
                  {
                      "family": "PROSOLV",
                      "given": [
                          "SAMPLE"
                      ]
                  }
              ],
              "birthDate": "1972-12-01",
              "gender": "male"
          },
          "request": {
              "method": "PUT",
              "url": "Patient/073b77fa-7722-30cf-cd8f-218a179da613"
          }
      },
      {
          "fullUrl": "urn:uuid:3abc02b1-c901-fe43-7d5b-01759e09083b",
          "resource": {
              "resourceType": "Account",
              "id": "3abc02b1-c901-fe43-7d5b-01759e09083b",
              "identifier": [
                  {
                      "value": "10000001"
                  }
              ],
              "status": "active",
              "subject": [
                  {
                      "reference": "Patient/073b77fa-7722-30cf-cd8f-218a179da613"
                  }
              ]
          },
          "request": {
              "method": "PUT",
              "url": "Account/3abc02b1-c901-fe43-7d5b-01759e09083b"
          }
      },
      {
          "fullUrl": "urn:uuid:f91b9450-5b30-513c-e992-770d60ebccca",
          "resource": {
              "resourceType": "Practitioner",
              "id": "f91b9450-5b30-513c-e992-770d60ebccca",
              "identifier": [
                  {
                      "value": "1234"
                  }
              ],
              "name": [
                  {
                      "family": "HIPPOCRATES",
                      "given": [
                          "KOS"
                      ]
                  }
              ]
          },
          "request": {
              "method": "PUT",
              "url": "Practitioner/f91b9450-5b30-513c-e992-770d60ebccca"
          }
      },
      {
          "fullUrl": "urn:uuid:3ff52588-4f70-e5f9-bd2e-3ff770b6bc16",
          "resource": {
              "resourceType": "Practitioner",
              "id": "3ff52588-4f70-e5f9-bd2e-3ff770b6bc16",
              "identifier": [
                  {
                      "value": "9099"
                  }
              ],
              "name": [
                  {
                      "family": "KEVORKIAN",
                      "given": [
                          "JACK"
                      ]
                  }
              ]
          },
          "request": {
              "method": "PUT",
              "url": "Practitioner/3ff52588-4f70-e5f9-bd2e-3ff770b6bc16"
          }
      },
      {
          "fullUrl": "urn:uuid:39dfc508-b0aa-36f2-de51-5ff7aee0bc62",
          "resource": {
              "resourceType": "Practitioner",
              "id": "39dfc508-b0aa-36f2-de51-5ff7aee0bc62",
              "identifier": [
                  {
                      "value": "8888"
                  }
              ],
              "name": [
                  {
                      "family": "HOUSE",
                      "given": [
                          "GREGORY"
                      ]
                  }
              ]
          },
          "request": {
              "method": "PUT",
              "url": "Practitioner/39dfc508-b0aa-36f2-de51-5ff7aee0bc62"
          }
      },
      {
          "fullUrl": "urn:uuid:4507c0f9-4c86-399e-40d7-12c8f4d6443f",
          "resource": {
              "resourceType": "Location",
              "id": "4507c0f9-4c86-399e-40d7-12c8f4d6443f",
              "name": "CCU",
              "mode": "instance",
              "description": "CCU--2000--1",
              "physicalType": {
                  "coding": [
                      {
                          "system": "http://terminology.hl7.org/CodeSystem/location-physical-type",
                          "code": "lvl"
                      }
                  ]
              }
          },
          "request": {
              "method": "PUT",
              "url": "Location/4507c0f9-4c86-399e-40d7-12c8f4d6443f"
          }
      },
      {
          "fullUrl": "urn:uuid:40db9d51-986d-9b0d-52bc-abe440370627",
          "resource": {
              "resourceType": "Location",
              "id": "40db9d51-986d-9b0d-52bc-abe440370627",
              "partOf": {
                  "reference": "Location/4507c0f9-4c86-399e-40d7-12c8f4d6443f"
              },
              "name": "2000",
              "mode": "instance",
              "description": "CCU--2000--1",
              "physicalType": {
                  "coding": [
                      {
                          "system": "http://terminology.hl7.org/CodeSystem/location-physical-type",
                          "code": "ro"
                      }
                  ]
              }
          },
          "request": {
              "method": "PUT",
              "url": "Location/40db9d51-986d-9b0d-52bc-abe440370627"
          }
      },
      {
          "fullUrl": "urn:uuid:6a61736d-4483-b458-c780-a0d2ce5753e1",
          "resource": {
              "resourceType": "Location",
              "id": "6a61736d-4483-b458-c780-a0d2ce5753e1",
              "partOf": {
                  "reference": "Location/40db9d51-986d-9b0d-52bc-abe440370627"
              },
              "name": "1",
              "mode": "instance",
              "description": "CCU--2000--1",
              "physicalType": {
                  "coding": [
                      {
                          "system": "http://terminology.hl7.org/CodeSystem/location-physical-type",
                          "code": "bd"
                      }
                  ]
              }
          },
          "request": {
              "method": "PUT",
              "url": "Location/6a61736d-4483-b458-c780-a0d2ce5753e1"
          }
      },
      {
          "fullUrl": "urn:uuid:d3b45888-01fe-96f5-3ec2-b40a707ad4d3",
          "resource": {
              "resourceType": "Location",
              "id": "d3b45888-01fe-96f5-3ec2-b40a707ad4d3",
              "name": "CCU",
              "mode": "instance",
              "description": "CCU--2003--1",
              "physicalType": {
                  "coding": [
                      {
                          "system": "http://terminology.hl7.org/CodeSystem/location-physical-type",
                          "code": "lvl"
                      }
                  ]
              }
          },
          "request": {
              "method": "PUT",
              "url": "Location/d3b45888-01fe-96f5-3ec2-b40a707ad4d3"
          }
      },
      {
          "fullUrl": "urn:uuid:6b17118e-cb1a-8e12-c7d0-86f90db5f151",
          "resource": {
              "resourceType": "Location",
              "id": "6b17118e-cb1a-8e12-c7d0-86f90db5f151",
              "partOf": {
                  "reference": "Location/d3b45888-01fe-96f5-3ec2-b40a707ad4d3"
              },
              "name": "2003",
              "mode": "instance",
              "description": "CCU--2003--1",
              "physicalType": {
                  "coding": [
                      {
                          "system": "http://terminology.hl7.org/CodeSystem/location-physical-type",
                          "code": "ro"
                      }
                  ]
              }
          },
          "request": {
              "method": "PUT",
              "url": "Location/6b17118e-cb1a-8e12-c7d0-86f90db5f151"
          }
      },
      {
          "fullUrl": "urn:uuid:6591dc44-ea0d-c947-2a6c-2ad123face9c",
          "resource": {
              "resourceType": "Location",
              "id": "6591dc44-ea0d-c947-2a6c-2ad123face9c",
              "partOf": {
                  "reference": "Location/6b17118e-cb1a-8e12-c7d0-86f90db5f151"
              },
              "name": "1",
              "mode": "instance",
              "description": "CCU--2003--1",
              "physicalType": {
                  "coding": [
                      {
                          "system": "http://terminology.hl7.org/CodeSystem/location-physical-type",
                          "code": "bd"
                      }
                  ]
              }
          },
          "request": {
              "method": "PUT",
              "url": "Location/6591dc44-ea0d-c947-2a6c-2ad123face9c"
          }
      },
      {
          "fullUrl": "urn:uuid:8bc99636-4bdf-d4be-5661-f77f4f3a7ff6",
          "resource": {
              "resourceType": "Encounter",
              "id": "8bc99636-4bdf-d4be-5661-f77f4f3a7ff6",
              "class": {
                  "code": "IMP",
                  "display": "inpatient encounter",
                  "system": "http://terminology.hl7.org/CodeSystem/v3-ActCode"
              },
              "status": "in-progress",
              "location": [
                  {
                      "status": "active",
                      "location": {
                          "reference": "Location/4507c0f9-4c86-399e-40d7-12c8f4d6443f"
                      }
                  },
                  {
                      "status": "completed",
                      "location": {
                          "reference": "Location/d3b45888-01fe-96f5-3ec2-b40a707ad4d3"
                      }
                  }
              ],
              "participant": [
                  {
                      "type": [
                          {
                              "coding": [
                                  {
                                      "code": "ATND",
                                      "system": "http://terminology.hl7.org/CodeSystem/v3-ParticipationType",
                                      "display": "attender"
                                  }
                              ]
                          }
                      ],
                      "individual": {
                          "reference": "Practitioner/f91b9450-5b30-513c-e992-770d60ebccca"
                      }
                  },
                  {
                      "type": [
                          {
                              "coding": [
                                  {
                                      "code": "REF",
                                      "system": "http://terminology.hl7.org/CodeSystem/v3-ParticipationType"
                                  }
                              ],
                              "text": "referrer"
                          }
                      ],
                      "individual": {
                          "reference": "Practitioner/3ff52588-4f70-e5f9-bd2e-3ff770b6bc16"
                      }
                  },
                  {
                      "type": [
                          {
                              "coding": [
                                  {
                                      "code": "CON",
                                      "system": "http://terminology.hl7.org/CodeSystem/v3-ParticipationType"
                                  }
                              ],
                              "text": "consultant"
                          }
                      ],
                      "individual": {
                          "reference": "Practitioner/39dfc508-b0aa-36f2-de51-5ff7aee0bc62"
                      }
                  }
              ],
              "identifier": [
                  {
                      "value": "10000001",
                      "type": {
                          "coding": [
                              {
                                  "code": "VN",
                                  "system": "http://terminology.hl7.org/CodeSystem/v2-0203"
                              }
                          ],
                          "text": "visit number"
                      }
                  }
              ],
              "text": {
                  "status": "generated",
                  "div": "<div xmlns=\"http://www.w3.org/1999/xhtml\"><p><span>Visit Description: </span></p></div>"
              },
              "account": [
                  {
                      "reference": "Account/3abc02b1-c901-fe43-7d5b-01759e09083b"
                  }
              ],
              "subject": {
                  "reference": "Patient/073b77fa-7722-30cf-cd8f-218a179da613"
              }
          },
          "request": {
              "method": "PUT",
              "url": "Encounter/8bc99636-4bdf-d4be-5661-f77f4f3a7ff6"
          }
      },
      {
          "fullUrl": "urn:uuid:0bd32673-66cf-0e3e-61df-803590588758",
          "resource": {
              "resourceType": "DocumentReference",
              "id": "0bd32673-66cf-0e3e-61df-803590588758",
              "type": {
                  "coding": [
                      {
                          "code": "DI"
                      }
                  ]
              },
              "context": {
                  "period": {
                      "start": "2008-01-31T19:10:00+05:30"
                  }
              },
              "content": [
                  {
                      "attachment": {
                          "creation": "2008-01-31T19:15:00+05:30"
                      }
                  }
              ],
              "author": [
                  {
                      "reference": "PractitionerRole/5b91be6c-bce1-d67a-0ac5-3b0d36640a38"
                  }
              ],
              "masterIdentifier": {
                  "value": "1.2.840.317.5947431.51.20080131160038"
              },
              "relatesTo": [
                  {
                      "code": "appends",
                      "target": {
                          "type": "DocumentReference",
                          "identifier": {
                              "value": "1.2.840.317.5947431.51.20080131155715"
                          }
                      }
                  }
              ],
              "docStatus": "preliminary",
              "status": "current"
          },
          "request": {
              "method": "PUT",
              "url": "DocumentReference/0bd32673-66cf-0e3e-61df-803590588758"
          }
      },
      {
          "fullUrl": "urn:uuid:4b1a16a4-4caa-c86f-791b-56cd3dcd5489",
          "resource": {
              "resourceType": "Practitioner",
              "id": "4b1a16a4-4caa-c86f-791b-56cd3dcd5489",
              "identifier": [
                  {
                      "value": "IvanDoctorovich"
                  }
              ]
          },
          "request": {
              "method": "PUT",
              "url": "Practitioner/4b1a16a4-4caa-c86f-791b-56cd3dcd5489"
          }
      },
      {
          "fullUrl": "urn:uuid:5b91be6c-bce1-d67a-0ac5-3b0d36640a38",
          "resource": {
              "resourceType": "PractitionerRole",
              "id": "5b91be6c-bce1-d67a-0ac5-3b0d36640a38",
              "practitioner": {
                  "reference": "Practitioner/4b1a16a4-4caa-c86f-791b-56cd3dcd5489"
              }
          },
          "request": {
              "method": "PUT",
              "url": "PractitionerRole/5b91be6c-bce1-d67a-0ac5-3b0d36640a38"
          }
      },
      {
          "fullUrl": "urn:uuid:ef3ae95d-d9b8-5abb-0018-a626275a71a0",
          "resource": {
              "resourceType": "ServiceRequest",
              "id": "ef3ae95d-d9b8-5abb-0018-a626275a71a0",
              "status": "unknown",
              "intent": "order",
              "identifier": [
                  {
                      "value": "00012345",
                      "type": {
                          "coding": [
                              {
                                  "code": "PLAC",
                                  "system": "http://terminology.hl7.org/CodeSystem/v2-0203"
                              }
                          ]
                      }
                  },
                  {
                      "value": "1-1",
                      "type": {
                          "coding": [
                              {
                                  "code": "FILL",
                                  "system": "http://terminology.hl7.org/CodeSystem/v2-0203"
                              }
                          ]
                      }
                  }
              ],
              "code": {
                  "coding": [
                      {
                          "code": "02585",
                          "display": "TransthoracicEcho",
                          "system": "http://example.com/v2-to-fhir-converter/CodeSystem/PCV4"
                      }
                  ]
              },
              "reasonCode": [
                  {
                      "coding": [
                          {
                              "code": "796.4",
                              "system": "http://example.com/v2-to-fhir-converter/CodeSystem/I9M"
                          }
                      ]
                  },
                  {
                      "coding": [
                          {
                              "code": "786.09",
                              "system": "http://example.com/v2-to-fhir-converter/CodeSystem/I9M"
                          }
                      ]
                  },
                  {
                      "coding": [
                          {
                              "code": "414.8",
                              "system": "http://example.com/v2-to-fhir-converter/CodeSystem/I9M"
                          }
                      ]
                  }
              ],
              "subject": {
                  "reference": "Patient/073b77fa-7722-30cf-cd8f-218a179da613"
              },
              "reasonReference": [
                  {
                      "reference": "DocumentReference/0bd32673-66cf-0e3e-61df-803590588758"
                  }
              ],
              "specimen": [
                  {
                      "reference": "Specimen/c4e417ca-4a99-cb34-3d98-3f3ab1ae7363"
                  }
              ],
              "note": [
                  {
                      "text": "No Antibodies Detected",
                      "time": "2020-10-10T18:15:00+05:30",
                      "authorReference": {
                          "reference": "Practitioner/ca6d10cc-e8a7-9d21-bd61-ec6d1db557c2"
                      }
                  },
                  {
                      "text": "Please follow the text instructions"
                  }
              ],
              "asNeededCodeableConcept": {
                  "text": "This is condition text"
              },
              "quantityQuantity": {
                  "value": 54,
                  "unit": "lbs"
              },
              "occurrenceTiming": {
                  "code": {
                      "coding": [
                          {
                              "code": "P",
                              "display": "Post (after)",
                              "system": "http://terminology.hl7.org/CodeSystem/v2-0335"
                          }
                      ]
                  },
                  "repeat": {
                      "period": 12,
                      "periodUnit": "min",
                      "when": [
                          "PC"
                      ],
                      "offset": 2,
                      "boundsPeriod": {
                          "start": "2021-10-10T05:30:00+05:30",
                          "end": "2021-11-10T05:30:00+05:30"
                      },
                      "duration": 2,
                      "durationUnit": "h",
                      "count": 5
                  }
              },
              "priority": "asap"
          },
          "request": {
              "method": "PUT",
              "url": "ServiceRequest/ef3ae95d-d9b8-5abb-0018-a626275a71a0"
          }
      },
      {
          "fullUrl": "urn:uuid:ca6d10cc-e8a7-9d21-bd61-ec6d1db557c2",
          "resource": {
              "resourceType": "Practitioner",
              "id": "ca6d10cc-e8a7-9d21-bd61-ec6d1db557c2",
              "identifier": [
                  {
                      "value": "MLEE"
                  }
              ],
              "name": [
                  {
                      "family": "ATTEND",
                      "given": [
                          "AARON",
                          "A"
                      ],
                      "suffix": [
                          "MD"
                      ]
                  }
              ]
          },
          "request": {
              "method": "PUT",
              "url": "Practitioner/ca6d10cc-e8a7-9d21-bd61-ec6d1db557c2"
          }
      },
      {
          "fullUrl": "urn:uuid:c4e417ca-4a99-cb34-3d98-3f3ab1ae7363",
          "resource": {
              "resourceType": "Specimen",
              "id": "c4e417ca-4a99-cb34-3d98-3f3ab1ae7363",
              "identifier": [
                  {
                      "value": "00012345",
                      "type": {
                          "coding": [
                              {
                                  "code": "PLAC",
                                  "system": "http://terminology.hl7.org/CodeSystem/v2-0203"
                              }
                          ]
                      }
                  },
                  {
                      "value": "1-1",
                      "type": {
                          "coding": [
                              {
                                  "code": "FILL",
                                  "system": "http://terminology.hl7.org/CodeSystem/v2-0203"
                              }
                          ]
                      }
                  }
              ],
              "collection": {
                  "collectedDateTime": "2008-01-31T19:10:00+05:30"
              }
          },
          "request": {
              "method": "PUT",
              "url": "Specimen/c4e417ca-4a99-cb34-3d98-3f3ab1ae7363"
          }
      },
      {
          "fullUrl": "urn:uuid:affc614c-f1e3-c5c4-22f2-e9023fd178f6",
          "resource": {
              "resourceType": "ServiceRequest",
              "id": "affc614c-f1e3-c5c4-22f2-e9023fd178f6",
              "status": "unknown",
              "intent": "order",
              "identifier": [
                  {
                      "value": "00012367",
                      "type": {
                          "coding": [
                              {
                                  "code": "PLAC",
                                  "system": "http://terminology.hl7.org/CodeSystem/v2-0203"
                              }
                          ]
                      }
                  },
                  {
                      "value": "1-1",
                      "type": {
                          "coding": [
                              {
                                  "code": "FILL",
                                  "system": "http://terminology.hl7.org/CodeSystem/v2-0203"
                              }
                          ]
                      }
                  }
              ],
              "code": {
                  "coding": [
                      {
                          "code": "02588",
                          "display": "3D echo cardigram",
                          "system": "http://example.com/v2-to-fhir-converter/CodeSystem/PCV4"
                      }
                  ]
              },
              "reasonCode": [
                  {
                      "coding": [
                          {
                              "code": "796.4",
                              "system": "http://example.com/v2-to-fhir-converter/CodeSystem/I9M"
                          }
                      ]
                  },
                  {
                      "coding": [
                          {
                              "code": "786.09",
                              "system": "http://example.com/v2-to-fhir-converter/CodeSystem/I9M"
                          }
                      ]
                  },
                  {
                      "coding": [
                          {
                              "code": "414.8",
                              "system": "http://example.com/v2-to-fhir-converter/CodeSystem/I9M"
                          }
                      ]
                  }
              ],
              "subject": {
                  "reference": "Patient/073b77fa-7722-30cf-cd8f-218a179da613"
              },
              "reasonReference": [
                  {
                      "reference": "DocumentReference/0bd32673-66cf-0e3e-61df-803590588758"
                  }
              ],
              "specimen": [
                  {
                      "reference": "Specimen/1d8f51a2-c6cd-d6e0-de4f-c0158d668302"
                  }
              ],
              "occurrenceDateTime": "2006-01-31T20:00:00+05:30"
          },
          "request": {
              "method": "PUT",
              "url": "ServiceRequest/affc614c-f1e3-c5c4-22f2-e9023fd178f6"
          }
      },
      {
          "fullUrl": "urn:uuid:1d8f51a2-c6cd-d6e0-de4f-c0158d668302",
          "resource": {
              "resourceType": "Specimen",
              "id": "1d8f51a2-c6cd-d6e0-de4f-c0158d668302",
              "identifier": [
                  {
                      "value": "00012367",
                      "type": {
                          "coding": [
                              {
                                  "code": "PLAC",
                                  "system": "http://terminology.hl7.org/CodeSystem/v2-0203"
                              }
                          ]
                      }
                  },
                  {
                      "value": "1-1",
                      "type": {
                          "coding": [
                              {
                                  "code": "FILL",
                                  "system": "http://terminology.hl7.org/CodeSystem/v2-0203"
                              }
                          ]
                      }
                  }
              ],
              "collection": {
                  "collectedDateTime": "2008-01-31T20:00:00+05:30"
              }
          },
          "request": {
              "method": "PUT",
              "url": "Specimen/1d8f51a2-c6cd-d6e0-de4f-c0158d668302"
          }
      },
      {
          "fullUrl": "urn:uuid:6ffcb8b5-5f1d-5d1f-8c4f-26b23a7dfd69",
          "resource": {
              "resourceType": "Observation",
              "id": "6ffcb8b5-5f1d-5d1f-8c4f-26b23a7dfd69",
              "status": "final",
              "code": {
                  "coding": [
                      {
                          "code": "obs-id",
                          "display": "obs-text",
                          "system": "http://example.com/v2-to-fhir-converter/CodeSystem/coding-system"
                      }
                  ]
              },
              "valueString": "Toilet cylinder crackers model step-mother visor opening communication",
              "subject": {
                  "reference": "Patient/073b77fa-7722-30cf-cd8f-218a179da613"
              },
              "extension": [
                  {
                      "url": "http://example.com/v2-to-fhir-converter/Observation_Status",
                      "valueCodeableConcept": {
                          "coding": [
                              {
                                  "code": "F",
                                  "display": "Final",
                                  "system": "http://terminology.hl7.org/CodeSystem/v2-0085"
                              }
                          ],
                          "text": "Final"
                      }
                  }
              ]
          },
          "request": {
              "method": "PUT",
              "url": "Observation/6ffcb8b5-5f1d-5d1f-8c4f-26b23a7dfd69"
          }
      },
      {
          "fullUrl": "urn:uuid:66fb85aa-6c70-58f5-fadc-c8d270c76ead",
          "resource": {
              "resourceType": "Observation",
              "id": "66fb85aa-6c70-58f5-fadc-c8d270c76ead",
              "status": "final",
              "code": {
                  "coding": [
                      {
                          "code": "obs-id",
                          "display": "obs-text",
                          "system": "http://example.com/v2-to-fhir-converter/CodeSystem/coding-system"
                      }
                  ]
              },
              "valueString": "Columnist draft inn brown income ikebana circulation prince",
              "subject": {
                  "reference": "Patient/073b77fa-7722-30cf-cd8f-218a179da613"
              },
              "extension": [
                  {
                      "url": "http://example.com/v2-to-fhir-converter/Observation_Status",
                      "valueCodeableConcept": {
                          "coding": [
                              {
                                  "code": "F",
                                  "display": "Final",
                                  "system": "http://terminology.hl7.org/CodeSystem/v2-0085"
                              }
                          ],
                          "text": "Final"
                      }
                  }
              ]
          },
          "request": {
              "method": "PUT",
              "url": "Observation/66fb85aa-6c70-58f5-fadc-c8d270c76ead"
          }
      }
  ]
}