{
    "resourceType": "Bundle",
    "type": "batch",
    "timestamp": "1989-08-18T14:41:00+05:30",
    "identifier": {
        "value": "MSG00001"
    },
    "id": "513a3d06-5e87-6fbc-ad1b-170ab430499f",
    "entry": [
        {
            "fullUrl": "urn:uuid:b4ca189b-51ae-33df-cbe2-559b4423a321",
            "resource": {
                "resourceType": "MessageHeader",
                "id": "b4ca189b-51ae-33df-cbe2-559b4423a321",
                "source": {
                    "name": "24GHH",
                    "endpoint": "urn:oid:2.16.840.1.114884.10.20",
                    "version": "2.4.3.52854",
                    "software": "Rhapsody"
                },
                "destination": [
                    {
                        "name": "25GHH",
                        "endpoint": "urn:oid:2.16.840.1.114884.10.23",
                        "receiver": {
                            "reference": "Organization/527280c1-34d1-c639-e9ba-61986d28e266"
                        }
                    }
                ],
                "meta": {
                    "security": [
                        {
                            "display": "SECURITY",
                            "system": "http://example.com/v2-to-fhirconverter/security-label"
                        }
                    ],
                    "tag": [
                        {
                            "code": "P",
                            "system": "http://terminology.hl7.org/CodeSystem/v2-0103"
                        }
                    ]
                },
                "eventCoding": {
                    "code": "A47",
                    "system": "http://terminology.hl7.org/CodeSystem/v2-0003",
                    "display": "ADT^A47^ADT_A47"
                },
                "language": "en-US",
                "sender": {
                    "reference": "Organization/4356fb81-6ecd-2d70-57b1-47812638e785"
                },
                "responsible": {
                    "reference": "Organization/33532a82-d220-4c0d-1abe-53e48951c201"
                }
            },
            "request": {
                "method": "PUT",
                "url": "MessageHeader/b4ca189b-51ae-33df-cbe2-559b4423a321"
            }
        },
        {
            "fullUrl": "urn:uuid:0a7545d7-202f-96e5-31e9-bb7d27ade3c2",
            "resource": {
                "resourceType": "Provenance",
                "id": "0a7545d7-202f-96e5-31e9-bb7d27ade3c2",
                "text": {
                    "status": "generated",
                    "div": "<div xmlns=\"http://www.w3.org/1999/xhtml\"><p><span>Resource bundle generated on 2021-10-29T10:43:14.216Z using Microsoft FHIR Converter.</span><span>Template Version: TEMPLATE_VERSION_PLACEHOLDER.</span><span>Template URL: https://github.com/microsoft/FHIR-Converter/releases/download/vTEMPLATE_VERSION_PLACEHOLDER/Hl7v2DefaultTemplates.tar.gz.</span><span>Root template: ADT_A47.</span></p></div>"
                },
                "occurredDateTime": "1989-08-18T14:41:00+05:30",
                "recorded": "1989-08-18T14:41:00+05:30",
                "agent": [
                    {
                        "type": {
                            "coding": [
                                {
                                    "code": "author",
                                    "system": "http://terminology.hl7.org/CodeSystem/provenance-participant-type"
                                }
                            ]
                        },
                        "who": {
                            "reference": "Organization/33532a82-d220-4c0d-1abe-53e48951c201"
                        }
                    }
                ],
                "activity": {
                    "coding": [
                        {
                            "display": "ADT^A47^ADT_A47"
                        }
                    ]
                },
                "entity": [
                    {
                        "role": "source",
                        "what": {
                            "reference": "Device/503eb873-22fb-8199-ae28-3604ad59fe13"
                        }
                    }
                ],
                "target": [
                    {
                        "reference": "Bundle/513a3d06-5e87-6fbc-ad1b-170ab430499f"
                    }
                ]
            },
            "request": {
                "method": "PUT",
                "url": "Provenance/0a7545d7-202f-96e5-31e9-bb7d27ade3c2"
            }
        },
        {
            "fullUrl": "urn:uuid:4356fb81-6ecd-2d70-57b1-47812638e785",
            "resource": {
                "resourceType": "Organization",
                "id": "4356fb81-6ecd-2d70-57b1-47812638e785",
                "identifier": [
                    {
                        "value": "GHHSFacility",
                        "system": "http://example.com/v2-to-fhir-converter/assigning-authority-local-system-GHHSFacility"
                    },
                    {
                        "value": "urn:oid:2.16.840.1.122848.1.30",
                        "system": "urn:ietf:rfc:3986",
                        "type": {
                            "coding": [
                                {
                                    "code": "ISO",
                                    "display": "An International Standards Organization Object Identifier (OID), in accordance with ISO/IEC 8824. Formatted as decimal digits separated by periods; recommended limit of 64 characters",
                                    "system": "http://terminology.hl7.org/CodeSystem/v2-0301"
                                }
                            ]
                        }
                    }
                ],
                "partOf": {
                    "reference": "Organization/33532a82-d220-4c0d-1abe-53e48951c201"
                },
                "address": [
                    {
                        "country": "USA"
                    }
                ]
            },
            "request": {
                "method": "PUT",
                "url": "Organization/4356fb81-6ecd-2d70-57b1-47812638e785"
            }
        },
        {
            "fullUrl": "urn:uuid:62781ad6-3896-cb63-0178-ead0c4a432b5",
            "resource": {
                "resourceType": "Organization",
                "id": "62781ad6-3896-cb63-0178-ead0c4a432b5",
                "identifier": [
                    {
                        "value": "GHHRFacility",
                        "system": "http://example.com/v2-to-fhir-converter/assigning-authority-local-system-GHHRFacility"
                    },
                    {
                        "value": "urn:oid:2.16.840.1.1122848.1.32",
                        "system": "urn:ietf:rfc:3986",
                        "type": {
                            "coding": [
                                {
                                    "code": "ISO",
                                    "display": "An International Standards Organization Object Identifier (OID), in accordance with ISO/IEC 8824. Formatted as decimal digits separated by periods; recommended limit of 64 characters",
                                    "system": "http://terminology.hl7.org/CodeSystem/v2-0301"
                                }
                            ]
                        }
                    }
                ],
                "partOf": {
                    "reference": "Organization/527280c1-34d1-c639-e9ba-61986d28e266"
                },
                "address": [
                    {
                        "country": "USA"
                    }
                ]
            },
            "request": {
                "method": "PUT",
                "url": "Organization/62781ad6-3896-cb63-0178-ead0c4a432b5"
            }
        },
        {
            "fullUrl": "urn:uuid:33532a82-d220-4c0d-1abe-53e48951c201",
            "resource": {
                "resourceType": "Organization",
                "id": "33532a82-d220-4c0d-1abe-53e48951c201",
                "name": "22 GHH Inc."
            },
            "request": {
                "method": "PUT",
                "url": "Organization/33532a82-d220-4c0d-1abe-53e48951c201"
            }
        },
        {
            "fullUrl": "urn:uuid:527280c1-34d1-c639-e9ba-61986d28e266",
            "resource": {
                "resourceType": "Organization",
                "id": "527280c1-34d1-c639-e9ba-61986d28e266",
                "name": "23 GHH Inc."
            },
            "request": {
                "method": "PUT",
                "url": "Organization/527280c1-34d1-c639-e9ba-61986d28e266"
            }
        },
        {
            "fullUrl": "urn:uuid:503eb873-22fb-8199-ae28-3604ad59fe13",
            "resource": {
                "resourceType": "Device",
                "id": "503eb873-22fb-8199-ae28-3604ad59fe13",
                "identifier": [
                    {
                        "value": "ADTApp"
                    }
                ]
            },
            "request": {
                "method": "PUT",
                "url": "Device/503eb873-22fb-8199-ae28-3604ad59fe13"
            }
        },
        {
            "fullUrl": "urn:uuid:4b549918-a84d-cdaf-e150-c773a5d306e5",
            "resource": {
                "resourceType": "Device",
                "id": "4b549918-a84d-cdaf-e150-c773a5d306e5",
                "manufacturer": "Orion",
                "deviceName": [
                    {
                        "name": "Rhapsody",
                        "type": "manufacturer-name"
                    }
                ],
                "version": [
                    {
                        "value": "2.4.3.52854"
                    }
                ],
                "modelNumber": "2.4.3",
                "note": [
                    {
                        "text": "Testactivity"
                    }
                ]
            },
            "request": {
                "method": "PUT",
                "url": "Device/4b549918-a84d-cdaf-e150-c773a5d306e5"
            }
        },
        {
            "fullUrl": "urn:uuid:9e909e52-61a1-be50-1878-a12ef8c36346",
            "resource": {
                "resourceType": "Patient",
                "id": "9e909e52-61a1-be50-1878-a12ef8c36346",
                "identifier": [
                    {
                        "value": "1234567",
                        "type": {
                            "coding": [
                                {
                                    "code": "MR",
                                    "system": "http://terminology.hl7.org/CodeSystem/v2-0203",
                                    "display": "Medical record number"
                                }
                            ]
                        },
                        "system": "http://example.com/v2-to-fhir-converter/assigning-authority-local-system-test",
                        "period": {
                            "start": "1924-10-11",
                            "end": "1924-10-12"
                        }
                    },
                    {
                        "value": "PATID1234",
                        "type": {
                            "coding": [
                                {
                                    "code": "MR",
                                    "system": "http://terminology.hl7.org/CodeSystem/v2-0203",
                                    "display": "Medical record number"
                                }
                            ]
                        },
                        "system": "http://example.com/v2-to-fhir-converter/assigning-authority-universal-system-HCD",
                        "assigner": {
                            "reference": "Organization/b3ad3a9f-d4f6-4638-0a09-2da771733488"
                        }
                    },
                    {
                        "value": "123456789",
                        "type": {
                            "coding": [
                                {
                                    "code": "SS",
                                    "system": "http://terminology.hl7.org/CodeSystem/v2-0203",
                                    "display": "Social Security number"
                                }
                            ]
                        },
                        "system": "http://example.com/v2-to-fhir-converter/assigning-authority-local-system-USSSA"
                    },
                    {
                        "value": "PATID567",
                        "system": "http://example.com/v2-to-fhir-converter/assigning-authority-local-system-test2"
                    },
                    {
                        "value": "PSSN123121234",
                        "type": {
                            "coding": [
                                {
                                    "code": "SB",
                                    "system": "http://terminology.hl7.org/CodeSystem/v2-0203"
                                }
                            ]
                        },
                        "system": "http://hl7.org/fhir/sid/us-ssn"
                    },
                    {
                        "value": "DLN-123",
                        "type": {
                            "coding": [
                                {
                                    "code": "DL"
                                }
                            ]
                        },
                        "system": "http://example.com/v2-to-fhir-converter/CodeSystem/US",
                        "period": {
                            "end": "2001-01-23"
                        }
                    }
                ],
                "name": [
                    {
                        "family": "EVERYMAN",
                        "given": [
                            "ADAM",
                            "A",
                            "Addsm"
                        ],
                        "suffix": [
                            "III",
                            "MD",
                            "PF"
                        ],
                        "prefix": [
                            "Dr."
                        ],
                        "use": "usual",
                        "period": {
                            "start": "1924-10-12"
                        }
                    },
                    {
                        "family": "Josh",
                        "given": [
                            "stanley"
                        ],
                        "use": "official",
                        "period": {
                            "start": "1924-10-10",
                            "end": "1924-10-15"
                        }
                    },
                    {
                        "family": "elbert",
                        "given": [
                            "Son"
                        ]
                    }
                ],
                "birthDate": "1988-08-18",
                "_birthDate": {
                    "extension": [
                        {
                            "url": "http://hl7.org/fhir/StructureDefinition/patient-birthTime",
                            "valueDateTime": "1988-08-18T14:41:00+05:30"
                        }
                    ]
                },
                "gender": "male",
                "address": [
                    {
                        "line": [
                            "1000",
                            "Hospital Lane",
                            "Ste. 123",
                            "Near Highway"
                        ],
                        "city": "Ann Arbor ",
                        "state": "MI",
                        "postalCode": "99999",
                        "country": "USA",
                        "type": "postal",
                        "district": "W",
                        "period": {
                            "start": "2000-01-10",
                            "end": "2000-01-20"
                        }
                    }
                ],
                "telecom": [
                    {
                        "value": "2222",
                        "system": "phone",
                        "period": {
                            "start": "2001-01-10",
                            "end": "2002-01-10"
                        },
                        "rank": 18,
                        "use": "home"
                    },
                    {
                        "value": "12121212",
                        "system": "phone",
                        "use": "home"
                    },
                    {
                        "value": "7777",
                        "system": "phone",
                        "use": "work"
                    },
                    {
                        "value": "1111",
                        "system": "other",
                        "use": "work"
                    },
                    {
                        "value": "89898989",
                        "use": "work",
                        "system": "email"
                    }
                ],
                "communication": [
                    {
                        "language": {
                            "coding": [
                                {
                                    "code": "ar",
                                    "display": "Arabic",
                                    "system": "urn:ietf:bcp:47",
                                    "version": "v2"
                                },
                                {
                                    "code": "en",
                                    "display": "English",
                                    "system": "urn:ietf:bcp:47",
                                    "version": "v2.1"
                                }
                            ],
                            "text": "TextInEnglish"
                        },
                        "preferred": true
                    }
                ],
                "maritalStatus": {
                    "coding": [
                        {
                            "code": "M",
                            "display": "Married",
                            "system": "http://terminology.hl7.org/CodeSystem/v3-MaritalStatus"
                        }
                    ]
                },
                "multipleBirthInteger": 2,
                "deceasedDateTime": "2008-08-25T15:31:30+05:30",
                "meta": {
                    "lastUpdated": "2005-01-10T04:05:14+05:30"
                },
                "generalPractitioner": [
                    {
                        "reference": "Organization/4d8d5b11-b84d-f4a3-f55a-cedc2ab2bc11"
                    },
                    {
                        "reference": "Practitioner/76aaad38-1077-6a5c-0c5c-102ec160a60d"
                    }
                ],
                "extension": [
                    {
                        "url": "http://hl7.org/fhir/us/core/StructureDefinition/us-core-race",
                        "extension": [
                            {
                                "url": "ombCategory",
                                "valueCoding": {
                                    "code": "2106-3",
                                    "display": "White",
                                    "system": "urn:oid:2.16.840.1.113883.6.238"
                                }
                            },
                            {
                                "url": "ombCategory",
                                "valueCoding": {
                                    "code": "2028-9",
                                    "display": "Asian",
                                    "system": "urn:oid:2.16.840.1.113883.6.238"
                                }
                            },
                            {
                                "url": "text",
                                "valueString": "White+Asian"
                            }
                        ]
                    },
                    {
                        "url": "http://hl7.org/fhir/StructureDefinition/patient-mothersMaidenName",
                        "valueString": "SMITH--Angela--L"
                    },
                    {
                        "url": "http://hl7.org/fhir/StructureDefinition/patient-birthPlace",
                        "valueAddress": {
                            "text": "St. Francis Community Hospital of Lower South Side"
                        }
                    },
                    {
                        "url": "http://hl7.org/fhir/StructureDefinition/patient-religion",
                        "valueCodeableConcept": {
                            "coding": [
                                {
                                    "code": "1002",
                                    "display": "African Religions",
                                    "system": "http://terminology.hl7.org/CodeSystem/v3-ReligiousAffiliation"
                                }
                            ]
                        }
                    },
                    {
                        "url": "http://hl7.org/fhir/us/core/StructureDefinition/us-core-ethnicity",
                        "extension": [
                            {
                                "url": "ombCategory",
                                "valueCoding": {
                                    "code": "2186-5",
                                    "display": "Non Hispanic or Latino",
                                    "system": "urn:oid:2.16.840.1.113883.6.238"
                                }
                            },
                            {
                                "url": "text",
                                "valueString": "Non Hispanic or Latino"
                            }
                        ]
                    },
                    {
                        "url": "http://example.com/v2-to-fhir-converter/StructureDefinition/VeteranMilitaryStatus",
                        "valueCodeableConcept": {
                            "coding": [
                                {
                                    "code": "Vet123",
                                    "display": "retired",
                                    "system": "http://example.com/v2-to-fhir-converter/CodeSystem/ART"
                                }
                            ],
                            "text": "retired"
                        }
                    },
                    {
                        "url": "http://hl7.org/fhir/StructureDefinition/patient-animal",
                        "extension": [
                            {
                                "url": "species",
                                "valueCodeableConcept": {
                                    "coding": [
                                        {
                                            "code": "125097000",
                                            "display": "Goat",
                                            "system": "http://snomed.info/sct"
                                        }
                                    ],
                                    "text": "Goat"
                                }
                            },
                            {
                                "url": "breed",
                                "valueCodeableConcept": {
                                    "coding": [
                                        {
                                            "code": "4880003",
                                            "display": "Beagle",
                                            "system": "http://snomed.info/sct"
                                        }
                                    ],
                                    "text": "Beagle"
                                }
                            }
                        ]
                    },
                    {
                        "url": "http://hl7.org/fhir/StructureDefinition/patient-citizenship",
                        "extension": [
                            {
                                "url": "code",
                                "valueCodeableConcept": {
                                    "coding": [
                                        {
                                            "code": "US",
                                            "display": "United States of America",
                                            "system": "urn:iso:std:iso:3166"
                                        }
                                    ],
                                    "text": "United States of America"
                                }
                            }
                        ]
                    },
                    {
                        "url": "http://hl7.org/fhir/StructureDefinition/patient-citizenship",
                        "extension": [
                            {
                                "url": "code",
                                "valueCodeableConcept": {
                                    "coding": [
                                        {
                                            "code": "CA",
                                            "display": "Canada",
                                            "system": "urn:iso:std:iso:3166"
                                        }
                                    ],
                                    "text": "Canada"
                                }
                            }
                        ]
                    },
                    {
                        "url": "http://hl7.org/fhir/StructureDefinition/patient-nationality",
                        "extension": [
                            {
                                "url": "code",
                                "valueCodeableConcept": {
                                    "coding": [
                                        {
                                            "code": "BT",
                                            "display": "Bhutan",
                                            "system": "urn:iso:std:iso:3166"
                                        }
                                    ],
                                    "text": "Bhutan"
                                }
                            }
                        ]
                    },
                    {
                        "url": "http://hl7.org/fhir/StructureDefinition/patient-congregation",
                        "valueString": "Methodist Church"
                    }
                ]
            },
            "request": {
                "method": "PUT",
                "url": "Patient/9e909e52-61a1-be50-1878-a12ef8c36346"
            }
        },
        {
            "fullUrl": "urn:uuid:78295402-9b84-4829-b945-502ab3402de5",
            "resource": {
                "resourceType": "Account",
                "id": "78295402-9b84-4829-b945-502ab3402de5",
                "identifier": [
                    {
                        "value": "4000776",
                        "type": {
                            "coding": [
                                {
                                    "code": "VN",
                                    "system": "http://terminology.hl7.org/CodeSystem/v2-0203",
                                    "display": "Visit number"
                                }
                            ]
                        },
                        "system": "urn:oid:2.4",
                        "assigner": {
                            "reference": "Organization/9d4c8327-8a28-8152-1898-8251baa707b7"
                        },
                        "period": {
                            "start": "1924-10-11",
                            "end": "1924-10-12"
                        }
                    }
                ],
                "status": "active",
                "subject": [
                    {
                        "reference": "Patient/9e909e52-61a1-be50-1878-a12ef8c36346"
                    }
                ]
            },
            "request": {
                "method": "PUT",
                "url": "Account/78295402-9b84-4829-b945-502ab3402de5"
            }
        },
        {
            "fullUrl": "urn:uuid:9d4c8327-8a28-8152-1898-8251baa707b7",
            "resource": {
                "resourceType": "Organization",
                "id": "9d4c8327-8a28-8152-1898-8251baa707b7",
                "identifier": [
                    {
                        "value": "AccMgr",
                        "system": "http://example.com/v2-to-fhir-converter/assigning-authority-local-system-AccMgr"
                    },
                    {
                        "value": "urn:oid:2.4",
                        "system": "urn:ietf:rfc:3986",
                        "type": {
                            "coding": [
                                {
                                    "code": "ISO",
                                    "display": "An International Standards Organization Object Identifier (OID), in accordance with ISO/IEC 8824. Formatted as decimal digits separated by periods; recommended limit of 64 characters",
                                    "system": "http://terminology.hl7.org/CodeSystem/v2-0301"
                                }
                            ]
                        }
                    }
                ]
            },
            "request": {
                "method": "PUT",
                "url": "Organization/9d4c8327-8a28-8152-1898-8251baa707b7"
            }
        },
        {
            "fullUrl": "urn:uuid:b3ad3a9f-d4f6-4638-0a09-2da771733488",
            "resource": {
                "resourceType": "Organization",
                "id": "b3ad3a9f-d4f6-4638-0a09-2da771733488",
                "identifier": [
                    {
                        "value": "test1",
                        "system": "http://example.com/v2-to-fhir-converter/assigning-authority-local-system-test1"
                    },
                    {
                        "value": "2.16.1",
                        "system": "http://example.com/v2-to-fhir-converter/assigning-authority-universal-system-HCD",
                        "type": {
                            "coding": [
                                {
                                    "code": "HCD",
                                    "display": "The CEN Healthcare Coding Scheme Designator",
                                    "system": "http://terminology.hl7.org/CodeSystem/v2-0301"
                                }
                            ]
                        }
                    }
                ]
            },
            "request": {
                "method": "PUT",
                "url": "Organization/b3ad3a9f-d4f6-4638-0a09-2da771733488"
            }
        },
        {
            "fullUrl": "urn:uuid:f3954ae4-dec6-f114-1b9e-3a8a85d93f99",
            "resource": {
                "resourceType": "Organization",
                "id": "f3954ae4-dec6-f114-1b9e-3a8a85d93f99",
                "identifier": [
                    {
                        "value": "NTH",
                        "system": "http://example.com/v2-to-fhir-converter/assigning-authority-local-system-NTH"
                    },
                    {
                        "value": "rt23",
                        "system": "http://example.com/v2-to-fhir-converter/assigning-authority-universal-system-HCD",
                        "type": {
                            "coding": [
                                {
                                    "code": "HCD",
                                    "display": "The CEN Healthcare Coding Scheme Designator",
                                    "system": "http://terminology.hl7.org/CodeSystem/v2-0301"
                                }
                            ]
                        }
                    }
                ]
            },
            "request": {
                "method": "PUT",
                "url": "Organization/f3954ae4-dec6-f114-1b9e-3a8a85d93f99"
            }
        },
        {
            "fullUrl": "urn:uuid:62b2e1ee-a272-4ffe-692e-a1fbfd49af6a",
            "resource": {
                "resourceType": "RelatedPerson",
                "id": "62b2e1ee-a272-4ffe-692e-a1fbfd49af6a",
                "identifier": [
                    {
                        "value": "1212121",
                        "type": {
                            "coding": [
                                {
                                    "code": "AND",
                                    "system": "http://terminology.hl7.org/CodeSystem/v2-0203",
                                    "display": "Account number debitor"
                                }
                            ]
                        },
                        "system": "http://example.com/v2-to-fhir-converter/assigning-authority-universal-system-HCD",
                        "assigner": {
                            "reference": "Organization/f3954ae4-dec6-f114-1b9e-3a8a85d93f99"
                        },
                        "period": {
                            "start": "1924-10-11",
                            "end": "1924-10-12"
                        }
                    }
                ],
                "relationship": [
                    {
                        "coding": [
                            {
                                "code": "MTH",
                                "system": "http://terminology.hl7.org/CodeSystem/v3-RoleCode"
                            }
                        ]
                    }
                ],
                "patient": {
                    "reference": "Patient/9e909e52-61a1-be50-1878-a12ef8c36346"
                }
            },
            "request": {
                "method": "PUT",
                "url": "RelatedPerson/62b2e1ee-a272-4ffe-692e-a1fbfd49af6a"
            }
        },
        {
            "fullUrl": "urn:uuid:4d8d5b11-b84d-f4a3-f55a-cedc2ab2bc11",
            "resource": {
                "resourceType": "Organization",
                "id": "4d8d5b11-b84d-f4a3-f55a-cedc2ab2bc11",
                "name": "LINDAS TEST ORGANIZATION",
                "identifier": [
                    {
                        "value": "SIISCLIENT818"
                    }
                ]
            },
            "request": {
                "method": "PUT",
                "url": "Organization/4d8d5b11-b84d-f4a3-f55a-cedc2ab2bc11"
            }
        },
        {
            "fullUrl": "urn:uuid:76aaad38-1077-6a5c-0c5c-102ec160a60d",
            "resource": {
                "resourceType": "Practitioner",
                "id": "76aaad38-1077-6a5c-0c5c-102ec160a60d",
                "identifier": [
                    {
                        "value": "88",
                        "system": "http://example.com/v2-to-fhir-converter/assigning-authority-local-system-TE",
                        "type": {
                            "coding": [
                                {
                                    "code": "DN",
                                    "display": "Doctor number",
                                    "system": "http://terminology.hl7.org/CodeSystem/v2-0203"
                                }
                            ]
                        }
                    }
                ],
                "name": [
                    {
                        "family": "Hippo",
                        "given": [
                            "rold",
                            "H"
                        ],
                        "suffix": [
                            "V",
                            "MD"
                        ],
                        "prefix": [
                            "Dr"
                        ]
                    }
                ]
            },
            "request": {
                "method": "PUT",
                "url": "Practitioner/76aaad38-1077-6a5c-0c5c-102ec160a60d"
            }
        },
        {
            "fullUrl": "urn:uuid:9f6be243-c2fa-f8c8-0a7a-d168e98bdd4c",
            "resource": {
                "resourceType": "Provenance",
                "id": "9f6be243-c2fa-f8c8-0a7a-d168e98bdd4c",
                "occurredDateTime": "2021-08-17T18:49:43.004+05:30",
                "recorded": "2029-08-01T11:21:24+05:30",
                "reason": [
                    {
                        "coding": [
                            {
                                "code": "PATRQT",
                                "display": "patient requested",
                                "system": "http://terminology.hl7.org/CodeSystem/v3-ActReason"
                            }
                        ]
                    }
                ],
                "agent": [
                    {
                        "who": {
                            "reference": "Practitioner/95aea53b-8d49-d57f-d16f-4d14b914f992"
                        }
                    }
                ],
                "activity": {
                    "text": "ADT^A47^ADT_A47"
                },
                "location": {
                    "reference": "Location/59d5e519-0108-5dd8-adfa-1eef5658009e"
                },
                "target": [
                    {
                        "reference": "Bundle/513a3d06-5e87-6fbc-ad1b-170ab430499f"
                    }
                ]
            },
            "request": {
                "method": "PUT",
                "url": "Provenance/9f6be243-c2fa-f8c8-0a7a-d168e98bdd4c"
            }
        },
        {
            "fullUrl": "urn:uuid:ef39f581-5e8f-3917-35a9-3443303d9eee",
            "resource": {
                "resourceType": "Organization",
                "id": "ef39f581-5e8f-3917-35a9-3443303d9eee",
                "identifier": [
                    {
                        "value": "DRNBR",
                        "system": "http://example.com/v2-to-fhir-converter/assigning-authority-local-system-DRNBR"
                    },
                    {
                        "value": "urn:oid:W1.2",
                        "system": "urn:ietf:rfc:3986",
                        "type": {
                            "coding": [
                                {
                                    "code": "ISO",
                                    "display": "An International Standards Organization Object Identifier (OID), in accordance with ISO/IEC 8824. Formatted as decimal digits separated by periods; recommended limit of 64 characters",
                                    "system": "http://terminology.hl7.org/CodeSystem/v2-0301"
                                }
                            ]
                        }
                    }
                ]
            },
            "request": {
                "method": "PUT",
                "url": "Organization/ef39f581-5e8f-3917-35a9-3443303d9eee"
            }
        },
        {
            "fullUrl": "urn:uuid:95aea53b-8d49-d57f-d16f-4d14b914f992",
            "resource": {
                "resourceType": "Practitioner",
                "id": "95aea53b-8d49-d57f-d16f-4d14b914f992",
                "identifier": [
                    {
                        "value": "C08",
                        "system": "urn:oid:W1.2",
                        "assigner": {
                            "reference": "Organization/ef39f581-5e8f-3917-35a9-3443303d9eee"
                        },
                        "type": {
                            "coding": [
                                {
                                    "code": "ANON",
                                    "display": "Anonymous identifier",
                                    "system": "http://terminology.hl7.org/CodeSystem/v2-0203"
                                }
                            ]
                        }
                    }
                ],
                "name": [
                    {
                        "family": "Woolfson",
                        "given": [
                            "Kathleen",
                            "2ndname"
                        ],
                        "suffix": [
                            "Jr",
                            "MD"
                        ],
                        "prefix": [
                            "Dr"
                        ],
                        "use": "official"
                    }
                ]
            },
            "request": {
                "method": "PUT",
                "url": "Practitioner/95aea53b-8d49-d57f-d16f-4d14b914f992"
            }
        },
        {
            "fullUrl": "urn:uuid:59d5e519-0108-5dd8-adfa-1eef5658009e",
            "resource": {
                "resourceType": "Location",
                "id": "59d5e519-0108-5dd8-adfa-1eef5658009e",
                "name": "Cona_Health",
                "identifier": [
                    {
                        "value": "urn:oid:1.3.6.1.4.1.44750.1.4",
                        "system": "urn:ietf:rfc:3986"
                    }
                ],
                "physicalType": {
                    "coding": [
                        {
                            "code": "si",
                            "display": "site",
                            "system": "http://terminology.hl7.org/CodeSystem/location-physical-type"
                        }
                    ]
                }
            },
            "request": {
                "method": "PUT",
                "url": "Location/59d5e519-0108-5dd8-adfa-1eef5658009e"
            }
        }
    ]
}