{
    "resourceType": "Bundle",
    "type": "batch",
    "timestamp": "1989-08-18T11:26:00+02:15",
    "identifier": {
      "value": "MSG000047"
    },
    "id": "6fa20277-bf9c-905a-5d40-1cd7d031bf8c",
    "entry": [
      {
        "fullUrl": "urn:uuid:e0b792ce-ba9b-a321-f728-0f033ec397cd",
        "resource": {
          "resourceType": "MessageHeader",
          "id": "e0b792ce-ba9b-a321-f728-0f033ec397cd",
          "source": {
            "name": "24GHH",
            "endpoint": "urn:oid:2.16.840.1.114884.10.20",
            "version": "2.4.3.52854",
            "software": "Rhapsody"
          },
          "destination": [
            {
              "name": "25GHH",
              "endpoint": "urn:oid:2.16.840.1.114884.10.23",
              "receiver": {
                "reference": "Organization/527280c1-34d1-c639-e9ba-61986d28e266"
              }
            }
          ],
          "meta": {
            "security": [
              {
                "display": "SECURITY"
              }
            ],
            "tag": [
              {
                "code": "P",
                "system": "http://terminology.hl7.org/CodeSystem/v2-0103"
              }
            ]
          },
          "eventCoding": {
            "code": "A47",
            "system": "http://terminology.hl7.org/CodeSystem/v2-0003",
            "display": "ADT^A47^ADT_A47"
          },
          "language": "en-US",
          "sender": {
            "reference": "Organization/4356fb81-6ecd-2d70-57b1-47812638e785"
          },
          "responsible": {
            "reference": "Organization/33532a82-d220-4c0d-1abe-53e48951c201"
          }
        },
        "request": {
          "method": "PUT",
          "url": "MessageHeader/e0b792ce-ba9b-a321-f728-0f033ec397cd"
        }
      },
      {
        "fullUrl": "urn:uuid:23c00b65-828b-feeb-5045-f059c5968e5e",
        "resource": {
          "resourceType": "Provenance",
          "id": "23c00b65-828b-feeb-5045-f059c5968e5e",
          "text": {
            "status": "generated",
            "div": "<div xmlns=\"http://www.w3.org/1999/xhtml\"><p><span>Resource bundle generated on 2022-03-28T08:15:18.933Z using Microsoft FHIR Converter.</span><span>Template Version: TEMPLATE_VERSION_PLACEHOLDER.</span><span>Template URL: https://github.com/microsoft/FHIR-Converter/releases/download/vTEMPLATE_VERSION_PLACEHOLDER/Hl7v2DefaultTemplates.tar.gz.</span><span>Root template: ADT_A47.</span></p></div>"
          },
          "occurredDateTime": "1989-08-18T11:26:00+02:15",
          "recorded": "1989-08-18T11:26:00+02:15",
          "agent": [
            {
              "type": {
                "coding": [
                  {
                    "code": "author",
                    "system": "http://terminology.hl7.org/CodeSystem/provenance-participant-type"
                  }
                ]
              },
              "who": {
                "reference": "Organization/33532a82-d220-4c0d-1abe-53e48951c201"
              }
            }
          ],
          "activity": {
            "coding": [
              {
                "display": "ADT^A47^ADT_A47"
              }
            ]
          },
          "entity": [
            {
              "role": "source",
              "what": {
                "reference": "Device/503eb873-22fb-8199-ae28-3604ad59fe13"
              }
            }
          ],
          "target": [
            {
              "reference": "Bundle/6fa20277-bf9c-905a-5d40-1cd7d031bf8c"
            }
          ]
        },
        "request": {
          "method": "PUT",
          "url": "Provenance/23c00b65-828b-feeb-5045-f059c5968e5e"
        }
      },
      {
        "fullUrl": "urn:uuid:4356fb81-6ecd-2d70-57b1-47812638e785",
        "resource": {
          "resourceType": "Organization",
          "id": "4356fb81-6ecd-2d70-57b1-47812638e785",
          "identifier": [
            {
              "value": "GHHSFacility",
              "system": "http://example.com/v2-to-fhir-converter/Identifier/GHHSFacility"
            },
            {
              "value": "urn:oid:2.16.840.1.122848.1.30",
              "system": "urn:ietf:rfc:3986",
              "type": {
                "coding": [
                  {
                    "code": "ISO",
                    "display": "An International Standards Organization Object Identifier (OID), in accordance with ISO/IEC 8824. Formatted as decimal digits separated by periods; recommended limit of 64 characters",
                    "system": "http://terminology.hl7.org/CodeSystem/v2-0301"
                  }
                ]
              }
            }
          ],
          "partOf": {
            "reference": "Organization/33532a82-d220-4c0d-1abe-53e48951c201"
          },
          "address": [
            {
              "country": "USA"
            }
          ]
        },
        "request": {
          "method": "PUT",
          "url": "Organization/4356fb81-6ecd-2d70-57b1-47812638e785"
        }
      },
      {
        "fullUrl": "urn:uuid:62781ad6-3896-cb63-0178-ead0c4a432b5",
        "resource": {
          "resourceType": "Organization",
          "id": "62781ad6-3896-cb63-0178-ead0c4a432b5",
          "identifier": [
            {
              "value": "GHHRFacility",
              "system": "http://example.com/v2-to-fhir-converter/Identifier/GHHRFacility"
            },
            {
              "value": "urn:oid:2.16.840.1.1122848.1.32",
              "system": "urn:ietf:rfc:3986",
              "type": {
                "coding": [
                  {
                    "code": "ISO",
                    "display": "An International Standards Organization Object Identifier (OID), in accordance with ISO/IEC 8824. Formatted as decimal digits separated by periods; recommended limit of 64 characters",
                    "system": "http://terminology.hl7.org/CodeSystem/v2-0301"
                  }
                ]
              }
            }
          ],
          "partOf": {
            "reference": "Organization/527280c1-34d1-c639-e9ba-61986d28e266"
          },
          "address": [
            {
              "country": "USA"
            }
          ]
        },
        "request": {
          "method": "PUT",
          "url": "Organization/62781ad6-3896-cb63-0178-ead0c4a432b5"
        }
      },
      {
        "fullUrl": "urn:uuid:33532a82-d220-4c0d-1abe-53e48951c201",
        "resource": {
          "resourceType": "Organization",
          "id": "33532a82-d220-4c0d-1abe-53e48951c201",
          "name": "22 GHH Inc."
        },
        "request": {
          "method": "PUT",
          "url": "Organization/33532a82-d220-4c0d-1abe-53e48951c201"
        }
      },
      {
        "fullUrl": "urn:uuid:527280c1-34d1-c639-e9ba-61986d28e266",
        "resource": {
          "resourceType": "Organization",
          "id": "527280c1-34d1-c639-e9ba-61986d28e266",
          "name": "23 GHH Inc."
        },
        "request": {
          "method": "PUT",
          "url": "Organization/527280c1-34d1-c639-e9ba-61986d28e266"
        }
      },
      {
        "fullUrl": "urn:uuid:503eb873-22fb-8199-ae28-3604ad59fe13",
        "resource": {
          "resourceType": "Device",
          "id": "503eb873-22fb-8199-ae28-3604ad59fe13",
          "identifier": [
            {
              "value": "ADTApp"
            }
          ]
        },
        "request": {
          "method": "PUT",
          "url": "Device/503eb873-22fb-8199-ae28-3604ad59fe13"
        }
      },
      {
        "fullUrl": "urn:uuid:4b549918-a84d-cdaf-e150-c773a5d306e5",
        "resource": {
          "resourceType": "Device",
          "id": "4b549918-a84d-cdaf-e150-c773a5d306e5",
          "manufacturer": "Orion",
          "deviceName": [
            {
              "name": "Rhapsody",
              "type": "manufacturer-name"
            }
          ],
          "version": [
            {
              "value": "2.4.3.52854"
            }
          ],
          "modelNumber": "2.4.3",
          "note": [
            {
              "text": "Testactivity"
            }
          ]
        },
        "request": {
          "method": "PUT",
          "url": "Device/4b549918-a84d-cdaf-e150-c773a5d306e5"
        }
      },
      {
        "fullUrl": "urn:uuid:d72b1c69-6660-8f54-eab7-81ef5515b7ea",
        "resource": {
          "resourceType": "Provenance",
          "id": "d72b1c69-6660-8f54-eab7-81ef5515b7ea",
          "occurredDateTime": "2021-01-15T16:00:10Z",
          "recorded": "2021-01-15T16:00:10Z",
          "reason": [
            {
              "coding": [
                {
                  "code": "HOPERAT",
                  "display": "healthcare operations",
                  "system": "http://terminology.hl7.org/CodeSystem/v3-ActReason"
                }
              ]
            }
          ],
          "agent": [
            {
              "who": {
                "reference": "Practitioner/6c9ea0f5-1b45-04f9-e07d-bae5096b7a4a"
              }
            }
          ],
          "activity": {
            "text": "ADT^A47^ADT_A47"
          },
          "location": {
            "reference": "Location/9b7cb9bd-a061-04d1-4757-24dbda8f72b2"
          },
          "target": [
            {
              "reference": "Bundle/6fa20277-bf9c-905a-5d40-1cd7d031bf8c"
            }
          ]
        },
        "request": {
          "method": "PUT",
          "url": "Provenance/d72b1c69-6660-8f54-eab7-81ef5515b7ea"
        }
      },
      {
        "fullUrl": "urn:uuid:df03b003-6818-1abd-209e-0889025aad16",
        "resource": {
          "resourceType": "Organization",
          "id": "df03b003-6818-1abd-209e-0889025aad16",
          "identifier": [
            {
              "value": "NPIID",
              "system": "http://example.com/v2-to-fhir-converter/Identifier/NPIID"
            },
            {
              "value": "urn:oid:2.16.840.1.113883.4.6",
              "system": "urn:ietf:rfc:3986",
              "type": {
                "coding": [
                  {
                    "code": "ISO",
                    "display": "An International Standards Organization Object Identifier (OID), in accordance with ISO/IEC 8824. Formatted as decimal digits separated by periods; recommended limit of 64 characters",
                    "system": "http://terminology.hl7.org/CodeSystem/v2-0301"
                  }
                ]
              }
            }
          ]
        },
        "request": {
          "method": "PUT",
          "url": "Organization/df03b003-6818-1abd-209e-0889025aad16"
        }
      },
      {
        "fullUrl": "urn:uuid:6c9ea0f5-1b45-04f9-e07d-bae5096b7a4a",
        "resource": {
          "resourceType": "Practitioner",
          "id": "6c9ea0f5-1b45-04f9-e07d-bae5096b7a4a",
          "identifier": [
            {
              "value": "9941339108",
              "system": "urn:oid:2.16.840.1.113883.4.6",
              "assigner": {
                "reference": "Organization/df03b003-6818-1abd-209e-0889025aad16"
              },
              "type": {
                "coding": [
                  {
                    "code": "NPI",
                    "display": "National provider identifier",
                    "system": "http://terminology.hl7.org/CodeSystem/v2-0203"
                  }
                ]
              }
            }
          ],
          "name": [
            {
              "family": "Smith",
              "given": [
                "Adam",
                "Mellie"
              ],
              "suffix": [
                "Jr",
                "MD",
                "GP"
              ],
              "prefix": [
                "Dr"
              ],
              "use": "official",
              "period": {
                "start": "2010-01-15T16:00:10Z",
                "end": "2020-01-15T16:00:10Z"
              }
            }
          ]
        },
        "request": {
          "method": "PUT",
          "url": "Practitioner/6c9ea0f5-1b45-04f9-e07d-bae5096b7a4a"
        }
      },
      {
        "fullUrl": "urn:uuid:9b7cb9bd-a061-04d1-4757-24dbda8f72b2",
        "resource": {
          "resourceType": "Location",
          "id": "9b7cb9bd-a061-04d1-4757-24dbda8f72b2",
          "name": "Good Health Hospital",
          "identifier": [
            {
              "value": "urn:oid:1.3.6.1.4.1.44750.1.4",
              "system": "urn:ietf:rfc:3986"
            }
          ],
          "physicalType": {
            "coding": [
              {
                "code": "si",
                "display": "site",
                "system": "http://terminology.hl7.org/CodeSystem/location-physical-type"
              }
            ]
          }
        },
        "request": {
          "method": "PUT",
          "url": "Location/9b7cb9bd-a061-04d1-4757-24dbda8f72b2"
        }
      },
      {
        "fullUrl": "urn:uuid:b6df7006-a5f9-b044-4853-23608582656d",
        "resource": {
          "resourceType": "Linkage",
          "id": "b6df7006-a5f9-b044-4853-23608582656d",
          "item": [
            {
              "type": "source",
              "resource": {
                "type": "Patient",
                "identifier": {
                  "value": "MR101",
                  "type": {
                    "coding": [
                      {
                        "code": "MR",
                        "system": "http://terminology.hl7.org/CodeSystem/v2-0203",
                        "display": "Medical record number"
                      }
                    ]
                  },
                  "system": "http://example.com/v2-to-fhir-converter/Identifier/GOOD-HEALTH-HOSPITAL"
                }
              }
            },
            {
              "type": "historical",
              "resource": {
                "type": "Patient",
                "identifier": {
                  "value": "MR102",
                  "type": {
                    "coding": [
                      {
                        "code": "MR",
                        "system": "http://terminology.hl7.org/CodeSystem/v2-0203",
                        "display": "Medical record number"
                      }
                    ]
                  },
                  "system": "http://example.com/v2-to-fhir-converter/Identifier/BCBS"
                }
              }
            },
            {
              "type": "source",
              "resource": {
                "type": "Patient",
                "identifier": {
                  "value": "145",
                  "type": {
                    "coding": [
                      {
                        "code": "MR",
                        "system": "http://terminology.hl7.org/CodeSystem/v2-0203",
                        "display": "Medical record number"
                      }
                    ]
                  },
                  "system": "http://example.com/v2-to-fhir-converter/Identifier/BCBS"
                }
              }
            },
            {
              "type": "historical",
              "resource": {
                "type": "Patient",
                "identifier": {
                  "value": "569",
                  "type": {
                    "coding": [
                      {
                        "code": "MR",
                        "system": "http://terminology.hl7.org/CodeSystem/v2-0203",
                        "display": "Medical record number"
                      }
                    ]
                  },
                  "system": "http://example.com/v2-to-fhir-converter/Identifier/BCBS"
                }
              }
            }
          ]
        },
        "request": {
          "method": "PUT",
          "url": "Linkage/b6df7006-a5f9-b044-4853-23608582656d"
        }
      }
    ]
  }