{
  "resourceType": "Bundle",
  "type": "batch",
  "timestamp": "1989-08-18T14:41:00+05:30",
  "identifier": {
      "value": "MSG00001"
  },
  "id": "513a3d06-5e87-6fbc-ad1b-170ab430499f",
  "entry": [
      {
          "fullUrl": "urn:uuid:b4ca189b-51ae-33df-cbe2-559b4423a321",
          "resource": {
              "resourceType": "MessageHeader",
              "id": "b4ca189b-51ae-33df-cbe2-559b4423a321",
              "source": {
                  "name": "24GHH",
                  "endpoint": "urn:oid:2.16.840.1.114884.10.20",
                  "version": "2.4.3.52854",
                  "software": "Rhapsody"
              },
              "destination": [
                  {
                      "name": "25GHH",
                      "endpoint": "urn:oid:2.16.840.1.114884.10.23",
                      "receiver": {
                          "reference": "Organization/527280c1-34d1-c639-e9ba-61986d28e266"
                      }
                  }
              ],
              "meta": {
                  "security": [
                      {
                          "display": "SECURITY"
                      }
                  ],
                  "tag": [
                      {
                          "code": "P",
                          "system": "http://terminology.hl7.org/CodeSystem/v2-0103"
                      }
                  ]
              },
              "eventCoding": {
                  "code": "A41",
                  "system": "http://terminology.hl7.org/CodeSystem/v2-0003",
                  "display": "ADT^A41^ADT_A41"
              },
              "language": "en-US",
              "sender": {
                  "reference": "Organization/4356fb81-6ecd-2d70-57b1-47812638e785"
              },
              "responsible": {
                  "reference": "Organization/33532a82-d220-4c0d-1abe-53e48951c201"
              }
          },
          "request": {
              "method": "PUT",
              "url": "MessageHeader/b4ca189b-51ae-33df-cbe2-559b4423a321"
          }
      },
      {
          "fullUrl": "urn:uuid:0a7545d7-202f-96e5-31e9-bb7d27ade3c2",
          "resource": {
              "resourceType": "Provenance",
              "id": "0a7545d7-202f-96e5-31e9-bb7d27ade3c2",
              "text": {
                  "status": "generated",
                  "div": "<div xmlns=\"http://www.w3.org/1999/xhtml\"><p><span>Resource bundle generated on 2022-03-28T07:33:38.189Z using Microsoft FHIR Converter.</span><span>Template Version: TEMPLATE_VERSION_PLACEHOLDER.</span><span>Template URL: https://github.com/microsoft/FHIR-Converter/releases/download/vTEMPLATE_VERSION_PLACEHOLDER/Hl7v2DefaultTemplates.tar.gz.</span><span>Root template: ADT_A41.</span></p></div>"
              },
              "occurredDateTime": "1989-08-18T14:41:00+05:30",
              "recorded": "1989-08-18T14:41:00+05:30",
              "agent": [
                  {
                      "type": {
                          "coding": [
                              {
                                  "code": "author",
                                  "system": "http://terminology.hl7.org/CodeSystem/provenance-participant-type"
                              }
                          ]
                      },
                      "who": {
                          "reference": "Organization/33532a82-d220-4c0d-1abe-53e48951c201"
                      }
                  }
              ],
              "activity": {
                  "coding": [
                      {
                          "display": "ADT^A41^ADT_A41"
                      }
                  ]
              },
              "entity": [
                  {
                      "role": "source",
                      "what": {
                          "reference": "Device/503eb873-22fb-8199-ae28-3604ad59fe13"
                      }
                  }
              ],
              "target": [
                  {
                      "reference": "Bundle/513a3d06-5e87-6fbc-ad1b-170ab430499f"
                  }
              ]
          },
          "request": {
              "method": "PUT",
              "url": "Provenance/0a7545d7-202f-96e5-31e9-bb7d27ade3c2"
          }
      },
      {
          "fullUrl": "urn:uuid:4356fb81-6ecd-2d70-57b1-47812638e785",
          "resource": {
              "resourceType": "Organization",
              "id": "4356fb81-6ecd-2d70-57b1-47812638e785",
              "identifier": [
                  {
                      "value": "GHHSFacility",
                      "system": "http://example.com/v2-to-fhir-converter/Identifier/GHHSFacility"
                  },
                  {
                      "value": "urn:oid:2.16.840.1.122848.1.30",
                      "system": "urn:ietf:rfc:3986",
                      "type": {
                          "coding": [
                              {
                                  "code": "ISO",
                                  "display": "An International Standards Organization Object Identifier (OID), in accordance with ISO/IEC 8824. Formatted as decimal digits separated by periods; recommended limit of 64 characters",
                                  "system": "http://terminology.hl7.org/CodeSystem/v2-0301"
                              }
                          ]
                      }
                  }
              ],
              "partOf": {
                  "reference": "Organization/33532a82-d220-4c0d-1abe-53e48951c201"
              },
              "address": [
                  {
                      "country": "USA"
                  }
              ]
          },
          "request": {
              "method": "PUT",
              "url": "Organization/4356fb81-6ecd-2d70-57b1-47812638e785"
          }
      },
      {
          "fullUrl": "urn:uuid:62781ad6-3896-cb63-0178-ead0c4a432b5",
          "resource": {
              "resourceType": "Organization",
              "id": "62781ad6-3896-cb63-0178-ead0c4a432b5",
              "identifier": [
                  {
                      "value": "GHHRFacility",
                      "system": "http://example.com/v2-to-fhir-converter/Identifier/GHHRFacility"
                  },
                  {
                      "value": "urn:oid:2.16.840.1.1122848.1.32",
                      "system": "urn:ietf:rfc:3986",
                      "type": {
                          "coding": [
                              {
                                  "code": "ISO",
                                  "display": "An International Standards Organization Object Identifier (OID), in accordance with ISO/IEC 8824. Formatted as decimal digits separated by periods; recommended limit of 64 characters",
                                  "system": "http://terminology.hl7.org/CodeSystem/v2-0301"
                              }
                          ]
                      }
                  }
              ],
              "partOf": {
                  "reference": "Organization/527280c1-34d1-c639-e9ba-61986d28e266"
              },
              "address": [
                  {
                      "country": "USA"
                  }
              ]
          },
          "request": {
              "method": "PUT",
              "url": "Organization/62781ad6-3896-cb63-0178-ead0c4a432b5"
          }
      },
      {
          "fullUrl": "urn:uuid:33532a82-d220-4c0d-1abe-53e48951c201",
          "resource": {
              "resourceType": "Organization",
              "id": "33532a82-d220-4c0d-1abe-53e48951c201",
              "name": "22 GHH Inc."
          },
          "request": {
              "method": "PUT",
              "url": "Organization/33532a82-d220-4c0d-1abe-53e48951c201"
          }
      },
      {
          "fullUrl": "urn:uuid:527280c1-34d1-c639-e9ba-61986d28e266",
          "resource": {
              "resourceType": "Organization",
              "id": "527280c1-34d1-c639-e9ba-61986d28e266",
              "name": "23 GHH Inc."
          },
          "request": {
              "method": "PUT",
              "url": "Organization/527280c1-34d1-c639-e9ba-61986d28e266"
          }
      },
      {
          "fullUrl": "urn:uuid:503eb873-22fb-8199-ae28-3604ad59fe13",
          "resource": {
              "resourceType": "Device",
              "id": "503eb873-22fb-8199-ae28-3604ad59fe13",
              "identifier": [
                  {
                      "value": "ADTApp"
                  }
              ]
          },
          "request": {
              "method": "PUT",
              "url": "Device/503eb873-22fb-8199-ae28-3604ad59fe13"
          }
      },
      {
          "fullUrl": "urn:uuid:4b549918-a84d-cdaf-e150-c773a5d306e5",
          "resource": {
              "resourceType": "Device",
              "id": "4b549918-a84d-cdaf-e150-c773a5d306e5",
              "manufacturer": "Orion",
              "deviceName": [
                  {
                      "name": "Rhapsody",
                      "type": "manufacturer-name"
                  }
              ],
              "version": [
                  {
                      "value": "2.4.3.52854"
                  }
              ],
              "modelNumber": "2.4.3",
              "note": [
                  {
                      "text": "Testactivity"
                  }
              ]
          },
          "request": {
              "method": "PUT",
              "url": "Device/4b549918-a84d-cdaf-e150-c773a5d306e5"
          }
      },
      {
          "fullUrl": "urn:uuid:07eea8d4-d9d1-105e-9d76-23efad1ef94d",
          "resource": {
              "resourceType": "Provenance",
              "id": "07eea8d4-d9d1-105e-9d76-23efad1ef94d",
              "occurredDateTime": "2021-08-17T18:49:43.4+05:30",
              "recorded": "2029-08-01T11:21:24+05:30",
              "reason": [
                  {
                      "coding": [
                          {
                              "code": "PATRQT",
                              "display": "patient requested",
                              "system": "http://terminology.hl7.org/CodeSystem/v3-ActReason"
                          }
                      ]
                  }
              ],
              "agent": [
                  {
                      "who": {
                          "reference": "Practitioner/96931008-2247-6199-b3c0-0ee12e528d72"
                      }
                  }
              ],
              "activity": {
                  "text": "ADT^A41^ADT_A41"
              },
              "location": {
                  "reference": "Location/59d5e519-0108-5dd8-adfa-1eef5658009e"
              },
              "target": [
                  {
                      "reference": "Bundle/513a3d06-5e87-6fbc-ad1b-170ab430499f"
                  }
              ]
          },
          "request": {
              "method": "PUT",
              "url": "Provenance/07eea8d4-d9d1-105e-9d76-23efad1ef94d"
          }
      },
      {
          "fullUrl": "urn:uuid:3cd92576-75fd-2465-a15f-b469be921588",
          "resource": {
              "resourceType": "Organization",
              "id": "3cd92576-75fd-2465-a15f-b469be921588",
              "identifier": [
                  {
                      "value": "DRNBR",
                      "system": "http://example.com/v2-to-fhir-converter/Identifier/DRNBR"
                  },
                  {
                      "value": "urn:oid:1.3.6.1.4.1.44750.1.2.2",
                      "system": "urn:ietf:rfc:3986",
                      "type": {
                          "coding": [
                              {
                                  "code": "ISO",
                                  "display": "An International Standards Organization Object Identifier (OID), in accordance with ISO/IEC 8824. Formatted as decimal digits separated by periods; recommended limit of 64 characters",
                                  "system": "http://terminology.hl7.org/CodeSystem/v2-0301"
                              }
                          ]
                      }
                  }
              ]
          },
          "request": {
              "method": "PUT",
              "url": "Organization/3cd92576-75fd-2465-a15f-b469be921588"
          }
      },
      {
          "fullUrl": "urn:uuid:96931008-2247-6199-b3c0-0ee12e528d72",
          "resource": {
              "resourceType": "Practitioner",
              "id": "96931008-2247-6199-b3c0-0ee12e528d72",
              "identifier": [
                  {
                      "value": "C08",
                      "system": "urn:oid:1.3.6.1.4.1.44750.1.2.2",
                      "assigner": {
                          "reference": "Organization/3cd92576-75fd-2465-a15f-b469be921588"
                      },
                      "type": {
                          "coding": [
                              {
                                  "code": "ANON",
                                  "display": "Anonymous identifier",
                                  "system": "http://terminology.hl7.org/CodeSystem/v2-0203"
                              }
                          ]
                      }
                  }
              ],
              "name": [
                  {
                      "family": "Woolfson",
                      "given": [
                          "Kathleen",
                          "2ndname"
                      ],
                      "suffix": [
                          "Jr",
                          "MD"
                      ],
                      "prefix": [
                          "Dr"
                      ],
                      "use": "official"
                  }
              ]
          },
          "request": {
              "method": "PUT",
              "url": "Practitioner/96931008-2247-6199-b3c0-0ee12e528d72"
          }
      },
      {
          "fullUrl": "urn:uuid:59d5e519-0108-5dd8-adfa-1eef5658009e",
          "resource": {
              "resourceType": "Location",
              "id": "59d5e519-0108-5dd8-adfa-1eef5658009e",
              "name": "Cona_Health",
              "identifier": [
                  {
                      "value": "urn:oid:1.3.6.1.4.1.44750.1.4",
                      "system": "urn:ietf:rfc:3986"
                  }
              ],
              "physicalType": {
                  "coding": [
                      {
                          "code": "si",
                          "display": "site",
                          "system": "http://terminology.hl7.org/CodeSystem/location-physical-type"
                      }
                  ]
              }
          },
          "request": {
              "method": "PUT",
              "url": "Location/59d5e519-0108-5dd8-adfa-1eef5658009e"
          }
      },
      {
          "fullUrl": "urn:uuid:47ef213c-df51-8b48-5303-78ad9d9838b2",
          "resource": {
              "resourceType": "Linkage",
              "id": "47ef213c-df51-8b48-5303-78ad9d9838b2",
              "item": [
                  {
                      "type": "source",
                      "resource": {
                          "type": "Account",
                          "identifier": {
                              "value": "4000776",
                              "type": {
                                  "coding": [
                                      {
                                          "code": "VN",
                                          "system": "http://terminology.hl7.org/CodeSystem/v2-0203",
                                          "display": "Visit number"
                                      }
                                  ]
                              },
                              "system": "urn:oid:1.3.6.1.4.1.44750.1.2.2",
                              "assigner": {
                                  "reference": "Organization/816e4ec3-f5a6-5969-08c8-a71ef576263e"
                              },
                              "period": {
                                  "start": "1924-10-11",
                                  "end": "1924-10-12"
                              }
                          }
                      }
                  },
                  {
                      "type": "historical",
                      "resource": {
                          "type": "Account",
                          "identifier": {
                              "value": "ACC1234",
                              "type": {
                                  "coding": [
                                      {
                                          "code": "MR",
                                          "system": "http://terminology.hl7.org/CodeSystem/v2-0203",
                                          "display": "Medical record number"
                                      }
                                  ]
                              },
                              "system": "http://example.com/v2-to-fhir-converter/Identifier/HCD",
                              "assigner": {
                                  "reference": "Organization/b3ad3a9f-d4f6-4638-0a09-2da771733488"
                              }
                          }
                      }
                  }
              ]
          },
          "request": {
              "method": "PUT",
              "url": "Linkage/47ef213c-df51-8b48-5303-78ad9d9838b2"
          }
      },
      {
          "fullUrl": "urn:uuid:816e4ec3-f5a6-5969-08c8-a71ef576263e",
          "resource": {
              "resourceType": "Organization",
              "id": "816e4ec3-f5a6-5969-08c8-a71ef576263e",
              "identifier": [
                  {
                      "value": "AccMgr",
                      "system": "http://example.com/v2-to-fhir-converter/Identifier/AccMgr"
                  },
                  {
                      "value": "urn:oid:1.3.6.1.4.1.44750.1.2.2",
                      "system": "urn:ietf:rfc:3986",
                      "type": {
                          "coding": [
                              {
                                  "code": "ISO",
                                  "display": "An International Standards Organization Object Identifier (OID), in accordance with ISO/IEC 8824. Formatted as decimal digits separated by periods; recommended limit of 64 characters",
                                  "system": "http://terminology.hl7.org/CodeSystem/v2-0301"
                              }
                          ]
                      }
                  }
              ]
          },
          "request": {
              "method": "PUT",
              "url": "Organization/816e4ec3-f5a6-5969-08c8-a71ef576263e"
          }
      },
      {
          "fullUrl": "urn:uuid:b3ad3a9f-d4f6-4638-0a09-2da771733488",
          "resource": {
              "resourceType": "Organization",
              "id": "b3ad3a9f-d4f6-4638-0a09-2da771733488",
              "identifier": [
                  {
                      "value": "test1",
                      "system": "http://example.com/v2-to-fhir-converter/Identifier/test1"
                  },
                  {
                      "value": "2.16.1",
                      "system": "http://example.com/v2-to-fhir-converter/Identifier/HCD",
                      "type": {
                          "coding": [
                              {
                                  "code": "HCD",
                                  "display": "The CEN Healthcare Coding Scheme Designator",
                                  "system": "http://terminology.hl7.org/CodeSystem/v2-0301"
                              }
                          ]
                      }
                  }
              ]
          },
          "request": {
              "method": "PUT",
              "url": "Organization/b3ad3a9f-d4f6-4638-0a09-2da771733488"
          }
      }
  ]
}