{
  "resourceType": "Bundle",
  "type": "transaction",
  "entry": [
    {
      "fullUrl": "urn:uuid:5cddb2d1-c441-ec21-1c0c-96605dd3a9c0",
      "resource": {
        "resourceType": "MessageHeader",
        "id": "5cddb2d1-c441-ec21-1c0c-96605dd3a9c0",
        "source": {
          "source": {
            "name": "Test EHR Application"
          }
        },
        "meta": {
          "tag": [
            {
              "meta": {
                "tag": [
                  {
                    "code": "P",
                    "system": "http://terminology.hl7.org/CodeSystem/v2-0103"
                  }
                ]
              }
            }
          ]
        }
      },
      "request": {
        "method": "PUT",
        "url": "MessageHeader/5cddb2d1-c441-ec21-1c0c-96605dd3a9c0"
      }
    },
    {
      "fullUrl": "urn:uuid:1b2dce0f-93ae-fae4-cc64-b90257c96f1b",
      "resource": {
        "resourceType": "Patient",
        "id": "1b2dce0f-93ae-fae4-cc64-b90257c96f1b",
        "identifier": [
          {
            "value": "D26376273",
            "type": {
              "coding": [
                {
                  "code": "MR",
                  "system": "http://terminology.hl7.org/CodeSystem/v2-0203"
                }
              ]
            }
          }
        ],
        "name": [
          {
            "family": "Snow",
            "given": [
              "Madelynn",
              "Ainsley"
            ],
            "use": "official"
          }
        ],
        "birthDate": "2007-07-06",
        "gender": "female",
        "address": [
          {
            "line": [
              "32 Prescott Street Ave"
            ],
            "city": "Warwick",
            "state": "MA",
            "postalCode": "02452",
            "country": "USA"
          }
        ],
        "telecom": [
          {
            "use": "home"
          }
        ],
        "active": "true",
        "contact": [
          {
            "name": {
              "family": "Lam",
              "given": [
                "Morgan"
              ],
              "use": "official"
            },
            "address": {
              "line": [
                "32 Prescott Street Ave"
              ],
              "city": "Warwick",
              "state": "MA",
              "postalCode": "02452",
              "country": "USA"
            }
          }
        ]
      },
      "request": {
        "method": "PUT",
        "url": "Patient/1b2dce0f-93ae-fae4-cc64-b90257c96f1b"
      }
    },
    {
      "fullUrl": "urn:uuid:293b32d1-d349-551b-c5e5-aed8ef86a654",
      "resource": {
        "resourceType": "Provenance",
        "id": "293b32d1-d349-551b-c5e5-aed8ef86a654",
        "agent": [
          {
            "type": {
              "coding": [
                {
                  "code": "enterer",
                  "system": "http://terminology.hl7.org/CodeSystem/provenance-participant-type"
                }
              ]
            }
          },
          {
            "type": {
              "coding": [
                {
                  "code": "author",
                  "system": "http://terminology.hl7.org/CodeSystem/provenance-participant-type"
                }
              ]
            }
          }
        ],
        "recorded": "2012-07-01T08:22:00Z"
      },
      "request": {
        "method": "PUT",
        "url": "Provenance/293b32d1-d349-551b-c5e5-aed8ef86a654"
      }
    },
    {
      "fullUrl": "urn:uuid:82fcb02d-52a4-17af-a707-923501f587d1",
      "resource": {
        "resourceType": "Account",
        "id": "82fcb02d-52a4-17af-a707-923501f587d1"
      },
      "request": {
        "method": "PUT",
        "url": "Account/82fcb02d-52a4-17af-a707-923501f587d1"
      }
    },
    {
      "fullUrl": "urn:uuid:57e4a003-b56b-2993-9714-18b188c68595",
      "resource": {
        "resourceType": "Organization",
        "id": "57e4a003-b56b-2993-9714-18b188c68595",
        "identifier": [
          {
            "value": "X68"
          }
        ],
        "destination": [
          {
            "endpoint": "NIST Test Iz Reg"
          }
        ]
      },
      "request": {
        "method": "PUT",
        "url": "Organization/57e4a003-b56b-2993-9714-18b188c68595"
      }
    },
    {
      "fullUrl": "urn:uuid:a17fe59e-2385-e7c3-59c4-14f214cf72c7",
      "resource": {
        "resourceType": "RelatedPerson",
        "id": "a17fe59e-2385-e7c3-59c4-14f214cf72c7",
        "relationship": [
          {
            "coding": [
              {
                "code": "MTH",
                "display": "mother",
                "system": "http://terminology.hl7.org/CodeSystem/v3-RoleCode"
              }
            ]
          }
        ],
        "address": [
          {
            "line": [
              "32 Prescott Street Ave"
            ],
            "city": "Warwick",
            "state": "MA",
            "postalCode": "02452",
            "country": "USA"
          }
        ],
        "name": [
          {
            "family": "Lam",
            "given": [
              "Morgan"
            ],
            "use": "official"
          }
        ],
        "patient": {
          "reference": "Patient/1b2dce0f-93ae-fae4-cc64-b90257c96f1b"
        }
      },
      "request": {
        "method": "PUT",
        "url": "RelatedPerson/a17fe59e-2385-e7c3-59c4-14f214cf72c7"
      }
    },
    {
      "fullUrl": "urn:uuid:9d7483ec-3273-a9d9-0d6c-da4895472607",
      "resource": {
        "resourceType": "Immunization",
        "id": "9d7483ec-3273-a9d9-0d6c-da4895472607",
        "identifier": [
          {
            "value": "IZ-783274",
            "type": {
              "coding": [
                {
                  "code": "FILL",
                  "system": "http://terminology.hl7.org/CodeSystem/v2-0203"
                }
              ]
            }
          }
        ],
        "performer": [
          {
            "function": {
              "coding": [
                {
                  "code": "OP",
                  "system": "http://terminology.hl7.org/CodeSystem/v2-0443"
                }
              ]
            }
          },
          {
            "function": {
              "coding": [
                {
                  "code": "AP",
                  "system": "http://terminology.hl7.org/CodeSystem/v2-0443"
                }
              ]
            }
          }
        ],
        "patient": {
          "reference": "Patient/1b2dce0f-93ae-fae4-cc64-b90257c96f1b"
        },
        "occurrenceDateTime": "2012-08-14",
        "vaccineCode": {
          "coding": [
            {
              "code": "140",
              "display": "Influenza, seasonal, injectable, preservative free",
              "system": "CVX"
            }
          ]
        },
        "lotNumber": "Z0860BB",
        "expirationDate": "2012-11-04",
        "status": "completed"
      },
      "request": {
        "method": "PUT",
        "url": "Immunization/9d7483ec-3273-a9d9-0d6c-da4895472607"
      }
    },
    {
      "fullUrl": "urn:uuid:ac8dc02f-77b0-7070-13d1-836f465308c7",
      "resource": {
        "resourceType": "Observation",
        "id": "ac8dc02f-77b0-7070-13d1-836f465308c7",
        "code": {
          "coding": [
            {
              "code": "64994-7",
              "display": "Vaccine funding program eligibility category",
              "system": "LN"
            }
          ]
        },
        "valueCodeableConcept": {
          "coding": [
            {
              "code": "V05",
              "display": "VFC eligible - Federally Qualified Health Center Patient (under-insured)",
              "system": "HL70064"
            }
          ]
        },
        "status": "final",
        "effectiveDateTime": "2012-07-01",
        "component": [
          {
            "code": {
              "coding": [
                {
                  "code": "64994-7",
                  "display": "Vaccine funding program eligibility category",
                  "system": "LN"
                }
              ]
            }
          }
        ],
        "partOf": [
          {
            "reference": "Immunization/9d7483ec-3273-a9d9-0d6c-da4895472607"
          }
        ],
        "subject": {
          "reference": "Patient/1b2dce0f-93ae-fae4-cc64-b90257c96f1b"
        }
      },
      "request": {
        "method": "PUT",
        "url": "Observation/ac8dc02f-77b0-7070-13d1-836f465308c7"
      }
    },
    {
      "fullUrl": "urn:uuid:b22ad261-5119-914a-4417-ea59a3246d7e",
      "resource": {
        "resourceType": "Observation",
        "id": "b22ad261-5119-914a-4417-ea59a3246d7e",
        "code": {
          "coding": [
            {
              "code": "30956-7",
              "display": "vaccine type",
              "system": "LN"
            }
          ]
        },
        "valueCodeableConcept": {
          "coding": [
            {
              "code": "88",
              "display": "Influenza, unspecified formulation",
              "system": "CVX"
            }
          ]
        },
        "status": "final",
        "component": [
          {
            "code": {
              "coding": [
                {
                  "code": "30956-7",
                  "display": "vaccine type",
                  "system": "LN"
                }
              ]
            }
          }
        ],
        "partOf": [
          {
            "reference": "Immunization/9d7483ec-3273-a9d9-0d6c-da4895472607"
          }
        ],
        "subject": {
          "reference": "Patient/1b2dce0f-93ae-fae4-cc64-b90257c96f1b"
        }
      },
      "request": {
        "method": "PUT",
        "url": "Observation/b22ad261-5119-914a-4417-ea59a3246d7e"
      }
    },
    {
      "fullUrl": "urn:uuid:a886d7fc-b6fc-fb60-7c37-e950fbbb13a7",
      "resource": {
        "resourceType": "Observation",
        "id": "a886d7fc-b6fc-fb60-7c37-e950fbbb13a7",
        "code": {
          "coding": [
            {
              "code": "29768-9",
              "display": "Date vaccine information statement published",
              "system": "LN"
            }
          ]
        },
        "status": "final",
        "component": [
          {
            "code": {
              "coding": [
                {
                  "code": "29768-9",
                  "display": "Date vaccine information statement published",
                  "system": "LN"
                }
              ]
            }
          }
        ],
        "partOf": [
          {
            "reference": "Immunization/9d7483ec-3273-a9d9-0d6c-da4895472607"
          }
        ],
        "subject": {
          "reference": "Patient/1b2dce0f-93ae-fae4-cc64-b90257c96f1b"
        }
      },
      "request": {
        "method": "PUT",
        "url": "Observation/a886d7fc-b6fc-fb60-7c37-e950fbbb13a7"
      }
    },
    {
      "fullUrl": "urn:uuid:c1c03ed1-957c-31a3-95d2-1e9409ae213c",
      "resource": {
        "resourceType": "Observation",
        "id": "c1c03ed1-957c-31a3-95d2-1e9409ae213c",
        "code": {
          "coding": [
            {
              "code": "29769-7",
              "display": "Date vaccine information statement presented",
              "system": "LN"
            }
          ]
        },
        "status": "final",
        "component": [
          {
            "code": {
              "coding": [
                {
                  "code": "29769-7",
                  "display": "Date vaccine information statement presented",
                  "system": "LN"
                }
              ]
            }
          }
        ],
        "partOf": [
          {
            "reference": "Immunization/9d7483ec-3273-a9d9-0d6c-da4895472607"
          }
        ],
        "subject": {
          "reference": "Patient/1b2dce0f-93ae-fae4-cc64-b90257c96f1b"
        }
      },
      "request": {
        "method": "PUT",
        "url": "Observation/c1c03ed1-957c-31a3-95d2-1e9409ae213c"
      }
    }
  ]
}