{
  "resourceType": "Bundle",
  "type": "batch",
  "timestamp": "201207010822",
  "identifier": {
    "value": "NIST-IZ-001.00"
  },
  "entry": [
    {
      "fullUrl": "urn:uuid:5cddb2d1-c441-ec21-1c0c-96605dd3a9c0",
      "resource": {
        "resourceType": "MessageHeader",
        "id": "5cddb2d1-c441-ec21-1c0c-96605dd3a9c0",
        "source": {
          "name": "Test EHR Application"
        },
        "meta": {
          "tag": [
            {
              "code": "P",
              "system": "http://terminology.hl7.org/CodeSystem/v2-0103"
            }
          ]
        }
      },
      "request": {
        "method": "PUT",
        "url": "MessageHeader/5cddb2d1-c441-ec21-1c0c-96605dd3a9c0"
      }
    },
    {
      "fullUrl": "urn:uuid:1b2dce0f-93ae-fae4-cc64-b90257c96f1b",
      "resource": {
        "resourceType": "Patient",
        "id": "1b2dce0f-93ae-fae4-cc64-b90257c96f1b",
        "identifier": [
          {
            "value": "D26376273",
            "type": {
              "coding": [
                {
                  "code": "MR",
                  "system": "http://terminology.hl7.org/CodeSystem/v2-0203"
                }
              ]
            }
          }
        ],
        "name": [
          {
            "family": "Snow",
            "given": [
              "Madelynn",
              "Ainsley"
            ],
            "use": "official"
          }
        ],
        "birthDate": "2007-07-06",
        "gender": "female",
        "address": [
          {
            "line": [
              "32 Prescott Street Ave"
            ],
            "city": "Warwick",
            "state": "MA",
            "postalCode": "02452",
            "country": "USA"
          }
        ],
        "telecom": [
          {
            "use": "home"
          }
        ],
        "active": "true",
        "contact": [
          {
            "name": {
              "family": "Lam",
              "given": [
                "Morgan"
              ],
              "use": "official"
            },
            "address": {
              "line": [
                "32 Prescott Street Ave"
              ],
              "city": "Warwick",
              "state": "MA",
              "postalCode": "02452",
              "country": "USA"
            }
          }
        ]
      },
      "request": {
        "method": "PUT",
        "url": "Patient/1b2dce0f-93ae-fae4-cc64-b90257c96f1b"
      }
    },
    {
      "fullUrl": "urn:uuid:57ea8417-a3d9-a03e-3e89-0e2800129af1",
      "resource": {
        "resourceType": "Practitioner",
        "id": "57ea8417-a3d9-a03e-3e89-0e2800129af1",
        "identifier": [
          {
            "value": "57422"
          }
        ],
        "name": [
          {
            "family": "RADON",
            "given": [
              "NICHOLAS"
            ],
            "use": "official"
          }
        ]
      },
      "request": {
        "method": "PUT",
        "url": "Practitioner/57ea8417-a3d9-a03e-3e89-0e2800129af1"
      }
    },
    {
      "fullUrl": "urn:uuid:",
      "resource": {
        "resourceType": "Practitioner",
        "identifier": [
          {
            "value": "57422"
          }
        ],
        "name": [
          {
            "family": "RADON",
            "given": [
              "NICHOLAS"
            ],
            "use": "official"
          }
        ]
      },
      "request": {
        "method": "PUT",
        "url": "Practitioner/"
      }
    },
    {
      "fullUrl": "urn:uuid:cdc6a323-66a4-19cb-ff4e-a5c9a5f5fd1b",
      "resource": {
        "resourceType": "Practitioner",
        "id": "cdc6a323-66a4-19cb-ff4e-a5c9a5f5fd1b",
        "identifier": [
          {
            "value": "57422"
          }
        ],
        "name": [
          {
            "family": "RADON",
            "given": [
              "NICHOLAS"
            ],
            "use": "official"
          }
        ]
      },
      "request": {
        "method": "PUT",
        "url": "Practitioner/cdc6a323-66a4-19cb-ff4e-a5c9a5f5fd1b"
      }
    },
    {
      "fullUrl": "urn:uuid:",
      "resource": {
        "resourceType": "Location"
      },
      "request": {
        "method": "PUT",
        "url": "Location/"
      }
    },
    {
      "fullUrl": "urn:uuid:df475b46-a50f-6a66-3a9a-2aca2b31a5bb",
      "resource": {
        "resourceType": "Provenance",
        "id": "df475b46-a50f-6a66-3a9a-2aca2b31a5bb",
        "agent": [
          {
            "type": {
              "coding": [
                {
                  "code": "enterer",
                  "system": "http://terminology.hl7.org/CodeSystem/provenance-participant-type"
                }
              ]
            },
            "who": {
              "reference": "Practitioner/57ea8417-a3d9-a03e-3e89-0e2800129af1"
            }
          },
          {
            "type": {
              "coding": [
                {
                  "code": "author",
                  "system": "http://terminology.hl7.org/CodeSystem/provenance-participant-type"
                }
              ]
            },
            "who": {
              "reference": "Practitioner/cdc6a323-66a4-19cb-ff4e-a5c9a5f5fd1b"
            }
          }
        ],
        "recorded": "2012-07-01T08:22:00Z"
      },
      "request": {
        "method": "PUT",
        "url": "Provenance/df475b46-a50f-6a66-3a9a-2aca2b31a5bb"
      }
    },
    {
      "fullUrl": "urn:uuid:82fcb02d-52a4-17af-a707-923501f587d1",
      "resource": {
        "resourceType": "Account",
        "id": "82fcb02d-52a4-17af-a707-923501f587d1",
        "status": "active",
        "subject": [
          {
            "reference": "Patient/1b2dce0f-93ae-fae4-cc64-b90257c96f1b"
          }
        ]
      },
      "request": {
        "method": "PUT",
        "url": "Account/82fcb02d-52a4-17af-a707-923501f587d1"
      }
    },
    {
      "fullUrl": "urn:uuid:",
      "resource": {
        "resourceType": "Encounter",
        "status": "unknown",
        "subject": {
          "reference": "Patient/1b2dce0f-93ae-fae4-cc64-b90257c96f1b"
        }
      },
      "request": {
        "method": "PUT",
        "url": "Encounter/"
      }
    },
    {
      "fullUrl": "urn:uuid:a17fe59e-2385-e7c3-59c4-14f214cf72c7",
      "resource": {
        "resourceType": "RelatedPerson",
        "id": "a17fe59e-2385-e7c3-59c4-14f214cf72c7",
        "relationship": [
          {
            "coding": [
              {
                "code": "MTH",
                "display": "mother",
                "system": "http://terminology.hl7.org/CodeSystem/v3-RoleCode"
              }
            ]
          }
        ],
        "address": [
          {
            "line": [
              "32 Prescott Street Ave"
            ],
            "city": "Warwick",
            "state": "MA",
            "postalCode": "02452",
            "country": "USA"
          }
        ],
        "name": [
          {
            "family": "Lam",
            "given": [
              "Morgan"
            ],
            "use": "official"
          }
        ],
        "patient": {
          "reference": "Patient/1b2dce0f-93ae-fae4-cc64-b90257c96f1b"
        }
      },
      "request": {
        "method": "PUT",
        "url": "RelatedPerson/a17fe59e-2385-e7c3-59c4-14f214cf72c7"
      }
    },
    {
      "fullUrl": "urn:uuid:9d7483ec-3273-a9d9-0d6c-da4895472607",
      "resource": {
        "resourceType": "Immunization",
        "id": "9d7483ec-3273-a9d9-0d6c-da4895472607",
        "identifier": [
          {
            "value": "IZ-783274",
            "type": {
              "coding": [
                {
                  "code": "FILL",
                  "system": "http://terminology.hl7.org/CodeSystem/v2-0203"
                }
              ]
            }
          }
        ],
        "performer": [
          {
            "function": {
              "coding": [
                {
                  "code": "OP",
                  "system": "http://terminology.hl7.org/CodeSystem/v2-0443"
                }
              ]
            },
            "actor": {
              "reference": "Practitioner/cdc6a323-66a4-19cb-ff4e-a5c9a5f5fd1b"
            }
          },
          {
            "function": {
              "coding": [
                {
                  "code": "AP",
                  "system": "http://terminology.hl7.org/CodeSystem/v2-0443"
                }
              ]
            },
            "actor": {
              "reference": "Practitioner/6389563f-944d-cf03-c166-cab811fa11b5"
            }
          }
        ],
        "patient": {
          "reference": "Patient/1b2dce0f-93ae-fae4-cc64-b90257c96f1b"
        },
        "occurrenceDateTime": "2012-08-14",
        "vaccineCode": {
          "coding": [
            {
              "code": "140",
              "display": "Influenza, seasonal, injectable, preservative free",
              "system": "CVX"
            }
          ]
        },
        "lotNumber": "Z0860BB",
        "expirationDate": "2012-11-04",
        "status": "completed",
        "manufacturer": {
          "reference": "Organization/bcdbbced-4721-ecce-55fe-75020f5c6048"
        }
      },
      "request": {
        "method": "PUT",
        "url": "Immunization/9d7483ec-3273-a9d9-0d6c-da4895472607"
      }
    },
    {
      "fullUrl": "urn:uuid:bcdbbced-4721-ecce-55fe-75020f5c6048",
      "resource": {
        "resourceType": "Organization",
        "id": "bcdbbced-4721-ecce-55fe-75020f5c6048",
        "identifier": [
          {
            "value": "CSL",
            "system": "MVX"
          }
        ],
        "name": "CSL Behring"
      },
      "request": {
        "method": "PUT",
        "url": "Organization/bcdbbced-4721-ecce-55fe-75020f5c6048"
      }
    },
    {
      "fullUrl": "urn:uuid:6389563f-944d-cf03-c166-cab811fa11b5",
      "resource": {
        "resourceType": "Practitioner",
        "id": "6389563f-944d-cf03-c166-cab811fa11b5",
        "identifier": [
          {
            "value": "7832-1"
          }
        ],
        "name": [
          {
            "family": "Lemon",
            "given": [
              "Mike",
              "A"
            ]
          }
        ]
      },
      "request": {
        "method": "PUT",
        "url": "Practitioner/6389563f-944d-cf03-c166-cab811fa11b5"
      }
    },
    {
      "fullUrl": "urn:uuid:",
      "resource": {
        "resourceType": "PractitionerRole"
      },
      "request": {
        "method": "PUT",
        "url": "PractitionerRole/"
      }
    },
    {
      "fullUrl": "urn:uuid:",
      "resource": {
        "resourceType": "Device"
      },
      "request": {
        "method": "PUT",
        "url": "Device/"
      }
    },
    {
      "fullUrl": "urn:uuid:ac8dc02f-77b0-7070-13d1-836f465308c7",
      "resource": {
        "resourceType": "Observation",
        "id": "ac8dc02f-77b0-7070-13d1-836f465308c7",
        "code": {
          "coding": [
            {
              "code": "64994-7",
              "display": "Vaccine funding program eligibility category",
              "system": "LN"
            }
          ]
        },
        "valueCodeableConcept": {
          "coding": [
            {
              "code": "V05",
              "display": "VFC eligible - Federally Qualified Health Center Patient (under-insured)",
              "system": "HL70064"
            }
          ]
        },
        "status": "final",
        "effectiveDateTime": "2012-07-01",
        "component": [
          {
            "code": {
              "coding": [
                {
                  "code": "64994-7",
                  "display": "Vaccine funding program eligibility category",
                  "system": "LN"
                }
              ]
            }
          }
        ],
        "partOf": [
          {
            "reference": "Immunization/9d7483ec-3273-a9d9-0d6c-da4895472607"
          }
        ],
        "subject": {
          "reference": "Patient/1b2dce0f-93ae-fae4-cc64-b90257c96f1b"
        }
      },
      "request": {
        "method": "PUT",
        "url": "Observation/ac8dc02f-77b0-7070-13d1-836f465308c7"
      }
    },
    {
      "fullUrl": "urn:uuid:b22ad261-5119-914a-4417-ea59a3246d7e",
      "resource": {
        "resourceType": "Observation",
        "id": "b22ad261-5119-914a-4417-ea59a3246d7e",
        "code": {
          "coding": [
            {
              "code": "30956-7",
              "display": "vaccine type",
              "system": "LN"
            }
          ]
        },
        "valueCodeableConcept": {
          "coding": [
            {
              "code": "88",
              "display": "Influenza, unspecified formulation",
              "system": "CVX"
            }
          ]
        },
        "status": "final",
        "component": [
          {
            "code": {
              "coding": [
                {
                  "code": "30956-7",
                  "display": "vaccine type",
                  "system": "LN"
                }
              ]
            }
          }
        ],
        "partOf": [
          {
            "reference": "Immunization/9d7483ec-3273-a9d9-0d6c-da4895472607"
          }
        ],
        "subject": {
          "reference": "Patient/1b2dce0f-93ae-fae4-cc64-b90257c96f1b"
        }
      },
      "request": {
        "method": "PUT",
        "url": "Observation/b22ad261-5119-914a-4417-ea59a3246d7e"
      }
    },
    {
      "fullUrl": "urn:uuid:a886d7fc-b6fc-fb60-7c37-e950fbbb13a7",
      "resource": {
        "resourceType": "Observation",
        "id": "a886d7fc-b6fc-fb60-7c37-e950fbbb13a7",
        "code": {
          "coding": [
            {
              "code": "29768-9",
              "display": "Date vaccine information statement published",
              "system": "LN"
            }
          ]
        },
        "status": "final",
        "component": [
          {
            "code": {
              "coding": [
                {
                  "code": "29768-9",
                  "display": "Date vaccine information statement published",
                  "system": "LN"
                }
              ]
            }
          }
        ],
        "partOf": [
          {
            "reference": "Immunization/9d7483ec-3273-a9d9-0d6c-da4895472607"
          }
        ],
        "subject": {
          "reference": "Patient/1b2dce0f-93ae-fae4-cc64-b90257c96f1b"
        }
      },
      "request": {
        "method": "PUT",
        "url": "Observation/a886d7fc-b6fc-fb60-7c37-e950fbbb13a7"
      }
    },
    {
      "fullUrl": "urn:uuid:c1c03ed1-957c-31a3-95d2-1e9409ae213c",
      "resource": {
        "resourceType": "Observation",
        "id": "c1c03ed1-957c-31a3-95d2-1e9409ae213c",
        "code": {
          "coding": [
            {
              "code": "29769-7",
              "display": "Date vaccine information statement presented",
              "system": "LN"
            }
          ]
        },
        "status": "final",
        "component": [
          {
            "code": {
              "coding": [
                {
                  "code": "29769-7",
                  "display": "Date vaccine information statement presented",
                  "system": "LN"
                }
              ]
            }
          }
        ],
        "partOf": [
          {
            "reference": "Immunization/9d7483ec-3273-a9d9-0d6c-da4895472607"
          }
        ],
        "subject": {
          "reference": "Patient/1b2dce0f-93ae-fae4-cc64-b90257c96f1b"
        }
      },
      "request": {
        "method": "PUT",
        "url": "Observation/c1c03ed1-957c-31a3-95d2-1e9409ae213c"
      }
    }
  ]
}