{
    "resourceType": "Bundle",
    "type": "batch",
    "timestamp": "2012-07-01T08:22:00",
    "identifier": {
        "value": "NIST-IZ-001.00"
    },
    "entry": [
        {
            "fullUrl": "urn:uuid:5cddb2d1-c441-ec21-1c0c-96605dd3a9c0",
            "resource": {
                "resourceType": "MessageHeader",
                "id": "5cddb2d1-c441-ec21-1c0c-96605dd3a9c0",
                "source": {
                    "name": "Test EHR Application",
                    "_endpoint": {
                        "extension": [
                            {
                                "url": "http://hl7.org/fhir/StructureDefinition/data-absent-reason",
                                "valueCode": "unknown"
                            }
                        ]
                    }
                },
                "destination": [
                    {
                        "_endpoint": {
                            "extension": [
                                {
                                    "url": "http://hl7.org/fhir/StructureDefinition/data-absent-reason",
                                    "valueCode": "unknown"
                                }
                            ]
                        },
                        "receiver": {
                            "reference": "Organization/57e4a003-b56b-2993-9714-18b188c68595"
                        }
                    }
                ],
                "meta": {
                    "tag": [
                        {
                            "code": "P",
                            "system": "http://terminology.hl7.org/CodeSystem/v2-0103"
                        }
                    ]
                },
                "eventCoding": {
                    "code": "V04",
                    "system": "http://terminology.hl7.org/CodeSystem/v2-0003",
                    "display": "VXU^V04^VXU_V04"
                },
                "sender": {
                    "reference": "Organization/8a4905a9-ae0d-541f-4fde-2e228bbb0f70"
                }
            },
            "request": {
                "method": "PUT",
                "url": "MessageHeader/5cddb2d1-c441-ec21-1c0c-96605dd3a9c0"
            }
        },
        {
            "fullUrl": "urn:uuid:1b2dce0f-93ae-fae4-cc64-b90257c96f1b",
            "resource": {
                "resourceType": "Patient",
                "id": "1b2dce0f-93ae-fae4-cc64-b90257c96f1b",
                "identifier": [
                    {
                        "value": "D26376273",
                        "type": {
                            "coding": [
                                {
                                    "code": "MR",
                                    "system": "http://terminology.hl7.org/CodeSystem/v2-0203",
                                    "display": "Medical record number"
                                }
                            ]
                        },
                        "system": "http://example.com/v2-to-fhir-converter/assigning-authority-local-system-NIST-MPI"
                    }
                ],
                "name": [
                    {
                        "family": "Snow",
                        "given": [
                            "Madelynn",
                            "Ainsley"
                        ],
                        "use": "official"
                    }
                ],
                "birthDate": "2007-07-06",
                "gender": "female",
                "address": [
                    {
                        "line": [
                            "32 Prescott Street Ave"
                        ],
                        "city": "Warwick",
                        "state": "MA",
                        "postalCode": "02452",
                        "country": "USA"
                    }
                ],
                "telecom": [
                    {
                        "use": "home",
                        "system": "phone"
                    }
                ],
                "active": "true",
                "extension": [
                    {
                        "url": "http://hl7.org/fhir/us/core/StructureDefinition/us-core-race",
                        "extension": [
                            {
                                "url": "ombCategory",
                                "valueCoding": {
                                    "code": "2076-8",
                                    "display": "Native Hawaiian or Other Pacific Islander",
                                    "system": "urn:oid:2.16.840.1.113883.6.238"
                                }
                            },
                            {
                                "url": "text",
                                "valueString": "Native Hawaiian or Other Pacific Islander"
                            }
                        ]
                    },
                    {
                        "url": "http://hl7.org/fhir/StructureDefinition/patient-mothersMaidenName",
                        "valueString": "Lam--Morgan"
                    },
                    {
                        "url": "http://hl7.org/fhir/us/core/StructureDefinition/us-core-ethnicity",
                        "extension": [
                            {
                                "url": "ombCategory",
                                "valueCoding": {
                                    "code": "2186-5",
                                    "display": "non Hispanic or Latino",
                                    "system": "http://example.com/v2-to-fhir-converter/CodeSystem/CDCREC"
                                }
                            },
                            {
                                "url": "text",
                                "valueString": "2186-5"
                            }
                        ]
                    }
                ],
                "contact": [
                    {
                        "name": {
                            "family": "Lam",
                            "given": [
                                "Morgan"
                            ],
                            "use": "official"
                        },
                        "address": {
                            "line": [
                                "32 Prescott Street Ave"
                            ],
                            "city": "Warwick",
                            "state": "MA",
                            "postalCode": "02452",
                            "country": "USA"
                        },
                        "telecom": [
                            {
                                "use": "home",
                                "system": "phone"
                            }
                        ]
                    }
                ]
            },
            "request": {
                "method": "PUT",
                "url": "Patient/1b2dce0f-93ae-fae4-cc64-b90257c96f1b"
            }
        },
        {
            "fullUrl": "urn:uuid:57ea8417-a3d9-a03e-3e89-0e2800129af1",
            "resource": {
                "resourceType": "Practitioner",
                "id": "57ea8417-a3d9-a03e-3e89-0e2800129af1",
                "identifier": [
                    {
                        "value": "57422",
                        "system": "http://example.com/v2-to-fhir-converter/assigning-authority-local-system-NIST-AA-1"
                    }
                ],
                "name": [
                    {
                        "family": "RADON",
                        "given": [
                            "NICHOLAS"
                        ],
                        "use": "official"
                    }
                ]
            },
            "request": {
                "method": "PUT",
                "url": "Practitioner/57ea8417-a3d9-a03e-3e89-0e2800129af1"
            }
        },
        {
            "fullUrl": "urn:uuid:",
            "resource": {
                "resourceType": "Practitioner",
                "identifier": [
                    {
                        "value": "57422",
                        "system": "http://example.com/v2-to-fhir-converter/assigning-authority-local-system-NIST-AA-1"
                    }
                ],
                "name": [
                    {
                        "family": "RADON",
                        "given": [
                            "NICHOLAS"
                        ],
                        "use": "official"
                    }
                ]
            },
            "request": {
                "method": "PUT",
                "url": "Practitioner/"
            }
        },
        {
            "fullUrl": "urn:uuid:cdc6a323-66a4-19cb-ff4e-a5c9a5f5fd1b",
            "resource": {
                "resourceType": "Practitioner",
                "id": "cdc6a323-66a4-19cb-ff4e-a5c9a5f5fd1b",
                "identifier": [
                    {
                        "value": "57422",
                        "system": "http://example.com/v2-to-fhir-converter/assigning-authority-local-system-NIST-AA-1"
                    }
                ],
                "name": [
                    {
                        "family": "RADON",
                        "given": [
                            "NICHOLAS"
                        ],
                        "use": "official"
                    }
                ]
            },
            "request": {
                "method": "PUT",
                "url": "Practitioner/cdc6a323-66a4-19cb-ff4e-a5c9a5f5fd1b"
            }
        },
        {
            "fullUrl": "urn:uuid:",
            "resource": {
                "resourceType": "Location"
            },
            "request": {
                "method": "PUT",
                "url": "Location/"
            }
        },
        {
            "fullUrl": "urn:uuid:cab498e7-22e3-614e-b9ff-079c8535c9d8",
            "resource": {
                "resourceType": "Provenance",
                "id": "cab498e7-22e3-614e-b9ff-079c8535c9d8",
                "text": {
                    "status": "generated",
                    "div": "<div xmlns=\"http://www.w3.org/1999/xhtml\"><p><span>Resource bundle generated on 2021-10-29T08:47:48.697Z using Microsoft FHIR Converter.</span><span>Template Version: TEMPLATE_VERSION_PLACEHOLDER.</span><span>Template URL: https://github.com/microsoft/FHIR-Converter/releases/download/vTEMPLATE_VERSION_PLACEHOLDER/Hl7v2DefaultTemplates.tar.gz.</span><span>Root template: VXU_V04.</span></p></div>"
                },
                "occurredDateTime": "2012-07-01T08:22:00",
                "recorded": "2012-07-01T08:22:00",
                "agent": [
                    {
                        "type": {
                            "coding": [
                                {
                                    "code": "author",
                                    "system": "http://terminology.hl7.org/CodeSystem/provenance-participant-type"
                                }
                            ]
                        },
                        "who": {
                            "reference": "Organization/8a4905a9-ae0d-541f-4fde-2e228bbb0f70"
                        }
                    }
                ],
                "activity": {
                    "coding": [
                        {
                            "display": "VXU^V04^VXU_V04"
                        }
                    ]
                },
                "target": [
                    {
                        "reference": "Bundle/"
                    }
                ]
            },
            "request": {
                "method": "PUT",
                "url": "Provenance/cab498e7-22e3-614e-b9ff-079c8535c9d8"
            }
        },
        {
            "fullUrl": "urn:uuid:82fcb02d-52a4-17af-a707-923501f587d1",
            "resource": {
                "resourceType": "Account",
                "id": "82fcb02d-52a4-17af-a707-923501f587d1",
                "status": "active",
                "subject": [
                    {
                        "reference": "Patient/1b2dce0f-93ae-fae4-cc64-b90257c96f1b"
                    }
                ]
            },
            "request": {
                "method": "PUT",
                "url": "Account/82fcb02d-52a4-17af-a707-923501f587d1"
            }
        },
        {
            "fullUrl": "urn:uuid:",
            "resource": {
                "resourceType": "Encounter",
                "text": {
                    "status": "generated",
                    "div": "<div xmlns=\"http://www.w3.org/1999/xhtml\"><p><span>Visit Description: </span></p></div>"
                },
                "subject": {
                    "reference": "Patient/1b2dce0f-93ae-fae4-cc64-b90257c96f1b"
                }
            },
            "request": {
                "method": "PUT",
                "url": "Encounter/"
            }
        },
        {
            "fullUrl": "urn:uuid:",
            "resource": {
                "resourceType": "Organization"
            },
            "request": {
                "method": "PUT",
                "url": "Organization/"
            }
        },
        {
            "fullUrl": "urn:uuid:a17fe59e-2385-e7c3-59c4-14f214cf72c7",
            "resource": {
                "resourceType": "RelatedPerson",
                "id": "a17fe59e-2385-e7c3-59c4-14f214cf72c7",
                "relationship": [
                    {
                        "coding": [
                            {
                                "code": "MTH",
                                "display": "mother",
                                "system": "http://terminology.hl7.org/CodeSystem/v3-RoleCode"
                            }
                        ]
                    }
                ],
                "address": [
                    {
                        "line": [
                            "32 Prescott Street Ave"
                        ],
                        "city": "Warwick",
                        "state": "MA",
                        "postalCode": "02452",
                        "country": "USA"
                    }
                ],
                "telecom": [
                    {
                        "use": "home",
                        "system": "phone"
                    }
                ],
                "name": [
                    {
                        "family": "Lam",
                        "given": [
                            "Morgan"
                        ],
                        "use": "official"
                    }
                ],
                "patient": {
                    "reference": "Patient/1b2dce0f-93ae-fae4-cc64-b90257c96f1b"
                }
            },
            "request": {
                "method": "PUT",
                "url": "RelatedPerson/a17fe59e-2385-e7c3-59c4-14f214cf72c7"
            }
        },
        {
            "fullUrl": "urn:uuid:9d7483ec-3273-a9d9-0d6c-da4895472607",
            "resource": {
                "resourceType": "Immunization",
                "id": "9d7483ec-3273-a9d9-0d6c-da4895472607",
                "identifier": [
                    {
                        "value": "IZ-783274",
                        "system": "http://example.com/v2-to-fhir-converter/local-entity-identifier-NDA",
                        "type": {
                            "coding": [
                                {
                                    "code": "FILL",
                                    "system": "http://terminology.hl7.org/CodeSystem/v2-0203"
                                }
                            ]
                        }
                    }
                ],
                "performer": [
                    {
                        "function": {
                            "coding": [
                                {
                                    "code": "OP",
                                    "system": "http://terminology.hl7.org/CodeSystem/v2-0443"
                                }
                            ]
                        },
                        "actor": {
                            "reference": "Practitioner/cdc6a323-66a4-19cb-ff4e-a5c9a5f5fd1b"
                        }
                    },
                    {
                        "function": {
                            "coding": [
                                {
                                    "code": "AP",
                                    "system": "http://terminology.hl7.org/CodeSystem/v2-0443"
                                }
                            ]
                        },
                        "actor": {
                            "reference": "Practitioner/6389563f-944d-cf03-c166-cab811fa11b5"
                        }
                    }
                ],
                "patient": {
                    "reference": "Patient/1b2dce0f-93ae-fae4-cc64-b90257c96f1b"
                },
                "occurrenceDateTime": "2012-08-14",
                "vaccineCode": {
                    "coding": [
                        {
                            "code": "140",
                            "display": "Influenza, seasonal, injectable, preservative free",
                            "system": "http://example.com/v2-to-fhir-converter/CodeSystem/CVX"
                        }
                    ]
                },
                "lotNumber": "Z0860BB",
                "expirationDate": "2012-11-04",
                "status": "completed",
                "manufacturer": {
                    "reference": "Organization/bcdbbced-4721-ecce-55fe-75020f5c6048"
                }
            },
            "request": {
                "method": "PUT",
                "url": "Immunization/9d7483ec-3273-a9d9-0d6c-da4895472607"
            }
        },
        {
            "fullUrl": "urn:uuid:bcdbbced-4721-ecce-55fe-75020f5c6048",
            "resource": {
                "resourceType": "Organization",
                "id": "bcdbbced-4721-ecce-55fe-75020f5c6048",
                "identifier": [
                    {
                        "value": "CSL",
                        "system": "MVX"
                    }
                ],
                "name": "CSL Behring"
            },
            "request": {
                "method": "PUT",
                "url": "Organization/bcdbbced-4721-ecce-55fe-75020f5c6048"
            }
        },
        {
            "fullUrl": "urn:uuid:6389563f-944d-cf03-c166-cab811fa11b5",
            "resource": {
                "resourceType": "Practitioner",
                "id": "6389563f-944d-cf03-c166-cab811fa11b5",
                "identifier": [
                    {
                        "value": "7832-1",
                        "system": "http://example.com/v2-to-fhir-converter/assigning-authority-local-system-NIST-AA-1"
                    }
                ],
                "name": [
                    {
                        "family": "Lemon",
                        "given": [
                            "Mike",
                            "A"
                        ]
                    }
                ]
            },
            "request": {
                "method": "PUT",
                "url": "Practitioner/6389563f-944d-cf03-c166-cab811fa11b5"
            }
        },
        {
            "fullUrl": "urn:uuid:ac8dc02f-77b0-7070-13d1-836f465308c7",
            "resource": {
                "resourceType": "Observation",
                "id": "ac8dc02f-77b0-7070-13d1-836f465308c7",
                "status": "final",
                "code": {
                    "coding": [
                        {
                            "code": "64994-7",
                            "display": "Vaccine funding program eligibility category",
                            "system": "http://loinc.org"
                        }
                    ]
                },
                "valueCodeableConcept": {
                    "coding": [
                        {
                            "code": "V05",
                            "display": "VFC eligible - Federally Qualified Health Center Patient (under-insured)",
                            "system": "http://example.com/v2-to-fhir-converter/CodeSystem/HL70064"
                        }
                    ]
                },
                "effectiveDateTime": "2012-07-01",
                "method": {
                    "coding": [
                        {
                            "code": "VXC40",
                            "display": "Eligibility captured at the immunization level",
                            "system": "http://example.com/v2-to-fhir-converter/CodeSystem/CDCPHINVS"
                        }
                    ]
                },
                "subject": {
                    "reference": "Patient/1b2dce0f-93ae-fae4-cc64-b90257c96f1b"
                },
                "partOf": [
                    {
                        "reference": "Immunization/9d7483ec-3273-a9d9-0d6c-da4895472607"
                    }
                ]
            },
            "request": {
                "method": "PUT",
                "url": "Observation/ac8dc02f-77b0-7070-13d1-836f465308c7"
            }
        },
        {
            "fullUrl": "urn:uuid:b22ad261-5119-914a-4417-ea59a3246d7e",
            "resource": {
                "resourceType": "Observation",
                "id": "b22ad261-5119-914a-4417-ea59a3246d7e",
                "status": "final",
                "code": {
                    "coding": [
                        {
                            "code": "30956-7",
                            "display": "vaccine type",
                            "system": "http://loinc.org"
                        }
                    ]
                },
                "valueCodeableConcept": {
                    "coding": [
                        {
                            "code": "88",
                            "display": "Influenza, unspecified formulation",
                            "system": "http://example.com/v2-to-fhir-converter/CodeSystem/CVX"
                        }
                    ]
                },
                "subject": {
                    "reference": "Patient/1b2dce0f-93ae-fae4-cc64-b90257c96f1b"
                },
                "partOf": [
                    {
                        "reference": "Immunization/9d7483ec-3273-a9d9-0d6c-da4895472607"
                    }
                ]
            },
            "request": {
                "method": "PUT",
                "url": "Observation/b22ad261-5119-914a-4417-ea59a3246d7e"
            }
        },
        {
            "fullUrl": "urn:uuid:a886d7fc-b6fc-fb60-7c37-e950fbbb13a7",
            "resource": {
                "resourceType": "Observation",
                "id": "a886d7fc-b6fc-fb60-7c37-e950fbbb13a7",
                "status": "final",
                "code": {
                    "coding": [
                        {
                            "code": "29768-9",
                            "display": "Date vaccine information statement published",
                            "system": "http://loinc.org"
                        }
                    ]
                },
                "subject": {
                    "reference": "Patient/1b2dce0f-93ae-fae4-cc64-b90257c96f1b"
                },
                "partOf": [
                    {
                        "reference": "Immunization/9d7483ec-3273-a9d9-0d6c-da4895472607"
                    }
                ]
            },
            "request": {
                "method": "PUT",
                "url": "Observation/a886d7fc-b6fc-fb60-7c37-e950fbbb13a7"
            }
        },
        {
            "fullUrl": "urn:uuid:c1c03ed1-957c-31a3-95d2-1e9409ae213c",
            "resource": {
                "resourceType": "Observation",
                "id": "c1c03ed1-957c-31a3-95d2-1e9409ae213c",
                "status": "final",
                "code": {
                    "coding": [
                        {
                            "code": "29769-7",
                            "display": "Date vaccine information statement presented",
                            "system": "http://loinc.org"
                        }
                    ]
                },
                "subject": {
                    "reference": "Patient/1b2dce0f-93ae-fae4-cc64-b90257c96f1b"
                },
                "partOf": [
                    {
                        "reference": "Immunization/9d7483ec-3273-a9d9-0d6c-da4895472607"
                    }
                ]
            },
            "request": {
                "method": "PUT",
                "url": "Observation/c1c03ed1-957c-31a3-95d2-1e9409ae213c"
            }
        }
    ]
}