{
  "resourceType": "Bundle",
  "type": "transaction",
  "entry": [
    {
      "fullUrl": "urn:uuid:aefd5bbc-563b-7d19-5096-4b5754c338c1",
      "resource": {
        "resourceType": "MessageHeader",
        "id": "aefd5bbc-563b-7d19-5096-4b5754c338c1",
        "source": {
          "source": {
            "name": "NISTEHRAPP"
          }
        },
        "destination": [
          {
            "destination": [
              {
                "name": "NISTIISAPP"
              }
            ]
          }
        ],
        "meta": {
          "tag": [
            {
              "meta": {
                "tag": [
                  {
                    "code": "P",
                    "system": "http://terminology.hl7.org/CodeSystem/v2-0103"
                  }
                ]
              }
            }
          ]
        }
      },
      "request": {
        "method": "PUT",
        "url": "MessageHeader/aefd5bbc-563b-7d19-5096-4b5754c338c1"
      }
    },
    {
      "fullUrl": "urn:uuid:8dc947ee-0db3-5fa2-04bb-16fd7680cfbe",
      "resource": {
        "resourceType": "Patient",
        "id": "8dc947ee-0db3-5fa2-04bb-16fd7680cfbe",
        "identifier": [
          {
            "value": "90012",
            "type": {
              "coding": [
                {
                  "code": "MR",
                  "system": "http://terminology.hl7.org/CodeSystem/v2-0203"
                }
              ]
            }
          }
        ],
        "name": [
          {
            "family": "Wong",
            "given": [
              "Elise"
            ],
            "use": "official"
          }
        ],
        "birthDate": "1983-06-15",
        "gender": "female",
        "address": [
          {
            "line": [
              "9200 Wellington Trail"
            ],
            "city": "Bozeman",
            "state": "MT",
            "postalCode": "59715",
            "country": "USA"
          }
        ],
        "telecom": [
          {
            "use": "home"
          },
          {
            "use": "home"
          }
        ],
        "multipleBirthInteger": "1",
        "deceasedBoolean": "false",
        "active": "true"
      },
      "request": {
        "method": "PUT",
        "url": "Patient/8dc947ee-0db3-5fa2-04bb-16fd7680cfbe"
      }
    },
    {
      "fullUrl": "urn:uuid:f5de34db-15ce-2fd7-3b45-68ec7fe58f83",
      "resource": {
        "resourceType": "Provenance",
        "id": "f5de34db-15ce-2fd7-3b45-68ec7fe58f83",
        "agent": [
          {
            "type": {
              "coding": [
                {
                  "code": "enterer",
                  "system": "http://terminology.hl7.org/CodeSystem/provenance-participant-type"
                }
              ]
            }
          },
          {
            "type": {
              "coding": [
                {
                  "code": "author",
                  "system": "http://terminology.hl7.org/CodeSystem/provenance-participant-type"
                }
              ]
            }
          }
        ],
        "recorded": "2015-06-24T21:47:27.655+08:00"
      },
      "request": {
        "method": "PUT",
        "url": "Provenance/f5de34db-15ce-2fd7-3b45-68ec7fe58f83"
      }
    },
    {
      "fullUrl": "urn:uuid:99ce28f5-c743-ed2e-b88e-47f2e32d23d5",
      "resource": {
        "resourceType": "Account",
        "id": "99ce28f5-c743-ed2e-b88e-47f2e32d23d5"
      },
      "request": {
        "method": "PUT",
        "url": "Account/99ce28f5-c743-ed2e-b88e-47f2e32d23d5"
      }
    },
    {
      "fullUrl": "urn:uuid:421aa904-409c-709f-ad7d-f1a7673d884f",
      "resource": {
        "resourceType": "Organization",
        "id": "421aa904-409c-709f-ad7d-f1a7673d884f",
        "identifier": [
          {
            "value": "NISTEHRFAC"
          }
        ],
        "destination": [
          {
            "endpoint": "NISTIISFAC"
          }
        ]
      },
      "request": {
        "method": "PUT",
        "url": "Organization/421aa904-409c-709f-ad7d-f1a7673d884f"
      }
    },
    {
      "fullUrl": "urn:uuid:c0f2ddcb-f061-279f-d5e1-7b54b437e9db",
      "resource": {
        "resourceType": "Immunization",
        "id": "c0f2ddcb-f061-279f-d5e1-7b54b437e9db",
        "identifier": [
          {
            "value": "4422",
            "type": {
              "coding": [
                {
                  "code": "PLAC",
                  "system": "http://terminology.hl7.org/CodeSystem/v2-0203"
                }
              ]
            }
          },
          {
            "value": "13696",
            "type": {
              "coding": [
                {
                  "code": "FILL",
                  "system": "http://terminology.hl7.org/CodeSystem/v2-0203"
                }
              ]
            }
          }
        ],
        "performer": [
          {
            "function": {
              "coding": [
                {
                  "code": "OP",
                  "system": "http://terminology.hl7.org/CodeSystem/v2-0443"
                }
              ]
            }
          },
          {
            "function": {
              "coding": [
                {
                  "code": "AP",
                  "system": "http://terminology.hl7.org/CodeSystem/v2-0443"
                }
              ]
            }
          }
        ],
        "patient": {
          "reference": "Patient/8dc947ee-0db3-5fa2-04bb-16fd7680cfbe"
        },
        "occurrenceDateTime": "2015-06-24",
        "vaccineCode": {
          "coding": [
            {
              "code": "49281-0215-88",
              "display": "TENIVAC",
              "system": "NDC"
            }
          ]
        },
        "lotNumber": "315841",
        "expirationDate": "2015-12-16",
        "status": "completed"
      },
      "request": {
        "method": "PUT",
        "url": "Immunization/c0f2ddcb-f061-279f-d5e1-7b54b437e9db"
      }
    },
    {
      "fullUrl": "urn:uuid:4f69f58b-f17b-5490-8131-f15d196e9d44",
      "resource": {
        "resourceType": "Observation",
        "id": "4f69f58b-f17b-5490-8131-f15d196e9d44",
        "code": {
          "coding": [
            {
              "code": "30963-3",
              "display": "Vaccine Funding Source",
              "system": "LN"
            }
          ]
        },
        "valueCodeableConcept": {
          "coding": [
            {
              "code": "PHC70",
              "display": "Private",
              "system": "CDCPHINVS"
            }
          ]
        },
        "status": "final",
        "effectiveDateTime": "2015-06-24",
        "component": [
          {
            "code": {
              "coding": [
                {
                  "code": "30963-3",
                  "display": "Vaccine Funding Source",
                  "system": "LN"
                }
              ]
            }
          }
        ],
        "partOf": [
          {
            "reference": "Immunization/c0f2ddcb-f061-279f-d5e1-7b54b437e9db"
          }
        ],
        "subject": {
          "reference": "Patient/8dc947ee-0db3-5fa2-04bb-16fd7680cfbe"
        }
      },
      "request": {
        "method": "PUT",
        "url": "Observation/4f69f58b-f17b-5490-8131-f15d196e9d44"
      }
    },
    {
      "fullUrl": "urn:uuid:c37e67e6-8592-cb8c-3111-f561fa2d8a4c",
      "resource": {
        "resourceType": "Observation",
        "id": "c37e67e6-8592-cb8c-3111-f561fa2d8a4c",
        "code": {
          "coding": [
            {
              "code": "64994-7",
              "display": "Vaccine Funding Program Eligibility",
              "system": "LN"
            }
          ]
        },
        "valueCodeableConcept": {
          "coding": [
            {
              "code": "V01",
              "display": "Not VFC Eligible",
              "system": "HL70064"
            }
          ]
        },
        "status": "final",
        "effectiveDateTime": "2015-06-24",
        "component": [
          {
            "code": {
              "coding": [
                {
                  "code": "64994-7",
                  "display": "Vaccine Funding Program Eligibility",
                  "system": "LN"
                }
              ]
            }
          }
        ],
        "partOf": [
          {
            "reference": "Immunization/c0f2ddcb-f061-279f-d5e1-7b54b437e9db"
          }
        ],
        "subject": {
          "reference": "Patient/8dc947ee-0db3-5fa2-04bb-16fd7680cfbe"
        }
      },
      "request": {
        "method": "PUT",
        "url": "Observation/c37e67e6-8592-cb8c-3111-f561fa2d8a4c"
      }
    },
    {
      "fullUrl": "urn:uuid:068ce7b5-9620-1ac7-3117-b4b46fe2e2a2",
      "resource": {
        "resourceType": "Observation",
        "id": "068ce7b5-9620-1ac7-3117-b4b46fe2e2a2",
        "code": {
          "coding": [
            {
              "code": "69764-9",
              "display": "Document Type",
              "system": "LN"
            }
          ]
        },
        "valueCodeableConcept": {
          "coding": [
            {
              "code": "253088698300028811170411",
              "display": "Tetanus/Diphtheria (Td) Vaccine VIS",
              "system": "cdcgs1vis"
            }
          ]
        },
        "status": "final",
        "effectiveDateTime": "2015-06-24",
        "component": [
          {
            "code": {
              "coding": [
                {
                  "code": "69764-9",
                  "display": "Document Type",
                  "system": "LN"
                }
              ]
            }
          }
        ],
        "partOf": [
          {
            "reference": "Immunization/c0f2ddcb-f061-279f-d5e1-7b54b437e9db"
          }
        ],
        "subject": {
          "reference": "Patient/8dc947ee-0db3-5fa2-04bb-16fd7680cfbe"
        }
      },
      "request": {
        "method": "PUT",
        "url": "Observation/068ce7b5-9620-1ac7-3117-b4b46fe2e2a2"
      }
    },
    {
      "fullUrl": "urn:uuid:1fc2db78-b289-a0ce-5b3e-7576f72e58b9",
      "resource": {
        "resourceType": "Observation",
        "id": "1fc2db78-b289-a0ce-5b3e-7576f72e58b9",
        "code": {
          "coding": [
            {
              "code": "29769-7",
              "display": "Date Vis Presented",
              "system": "LN"
            }
          ]
        },
        "valueDateTime": "2015-06-24",
        "status": "final",
        "effectiveDateTime": "2015-06-24",
        "component": [
          {
            "code": {
              "coding": [
                {
                  "code": "29769-7",
                  "display": "Date Vis Presented",
                  "system": "LN"
                }
              ]
            },
            "valueDateTime": "2015-06-24"
          }
        ],
        "partOf": [
          {
            "reference": "Immunization/c0f2ddcb-f061-279f-d5e1-7b54b437e9db"
          }
        ],
        "subject": {
          "reference": "Patient/8dc947ee-0db3-5fa2-04bb-16fd7680cfbe"
        }
      },
      "request": {
        "method": "PUT",
        "url": "Observation/1fc2db78-b289-a0ce-5b3e-7576f72e58b9"
      }
    },
    {
      "fullUrl": "urn:uuid:c82d117c-dc9d-e431-dc92-6ca91243da07",
      "resource": {
        "resourceType": "Immunization",
        "id": "c82d117c-dc9d-e431-dc92-6ca91243da07",
        "identifier": [
          {
            "value": "38760",
            "type": {
              "coding": [
                {
                  "code": "FILL",
                  "system": "http://terminology.hl7.org/CodeSystem/v2-0203"
                }
              ]
            }
          }
        ],
        "patient": {
          "reference": "Patient/8dc947ee-0db3-5fa2-04bb-16fd7680cfbe"
        },
        "occurrenceDateTime": "2014-10-12",
        "vaccineCode": {
          "coding": [
            {
              "code": "88",
              "display": "influenza, unspecified formulation",
              "system": "CVX"
            }
          ]
        },
        "status": "completed"
      },
      "request": {
        "method": "PUT",
        "url": "Immunization/c82d117c-dc9d-e431-dc92-6ca91243da07"
      }
    },
    {
      "fullUrl": "urn:uuid:07ff92a4-c57e-8726-a03a-1241de54a9c3",
      "resource": {
        "resourceType": "Immunization",
        "id": "07ff92a4-c57e-8726-a03a-1241de54a9c3",
        "identifier": [
          {
            "value": "35508",
            "type": {
              "coding": [
                {
                  "code": "FILL",
                  "system": "http://terminology.hl7.org/CodeSystem/v2-0203"
                }
              ]
            }
          }
        ],
        "patient": {
          "reference": "Patient/8dc947ee-0db3-5fa2-04bb-16fd7680cfbe"
        },
        "occurrenceDateTime": "2013-11-12",
        "vaccineCode": {
          "coding": [
            {
              "code": "88",
              "display": "influenza, unspecified formulation",
              "system": "CVX"
            }
          ]
        },
        "status": "completed"
      },
      "request": {
        "method": "PUT",
        "url": "Immunization/07ff92a4-c57e-8726-a03a-1241de54a9c3"
      }
    }
  ]
}