{
  "resourceType": "Bundle",
  "type": "batch",
  "timestamp": "2015-06-24T19:17:27.655+05:30",
  "identifier": {
      "value": "NIST-IZ-AD-2.1_Send_V04_Z22"
  },
  "id": "3364f83f-1a00-2742-2d21-2244f2ba834d",
  "entry": [
      {
          "fullUrl": "urn:uuid:aefd5bbc-563b-7d19-5096-4b5754c338c1",
          "resource": {
              "resourceType": "MessageHeader",
              "id": "aefd5bbc-563b-7d19-5096-4b5754c338c1",
              "source": {
                  "name": "NISTEHRAPP",
                  "_endpoint": {
                      "extension": [
                          {
                              "url": "http://hl7.org/fhir/StructureDefinition/data-absent-reason",
                              "valueCode": "unknown"
                          }
                      ]
                  }
              },
              "destination": [
                  {
                      "name": "NISTIISAPP",
                      "_endpoint": {
                          "extension": [
                              {
                                  "url": "http://hl7.org/fhir/StructureDefinition/data-absent-reason",
                                  "valueCode": "unknown"
                              }
                          ]
                      },
                      "receiver": {
                          "reference": "Organization/421aa904-409c-709f-ad7d-f1a7673d884f"
                      }
                  }
              ],
              "meta": {
                  "tag": [
                      {
                          "code": "P",
                          "system": "http://terminology.hl7.org/CodeSystem/v2-0103"
                      }
                  ]
              },
              "eventCoding": {
                  "code": "V04",
                  "system": "http://terminology.hl7.org/CodeSystem/v2-0003",
                  "display": "VXU^V04^VXU_V04"
              },
              "sender": {
                  "reference": "Organization/8a0eacde-8a9d-6c26-af93-755bbf26dedc"
              },
              "responsible": {
                  "reference": "Organization/8a0eacde-8a9d-6c26-af93-755bbf26dedc"
              }
          },
          "request": {
              "method": "PUT",
              "url": "MessageHeader/aefd5bbc-563b-7d19-5096-4b5754c338c1"
          }
      },
      {
          "fullUrl": "urn:uuid:87847f45-4a99-9d88-c439-65574d8fd20b",
          "resource": {
              "resourceType": "Provenance",
              "id": "87847f45-4a99-9d88-c439-65574d8fd20b",
              "text": {
                  "status": "generated",
                  "div": "<div xmlns=\"http://www.w3.org/1999/xhtml\"><p><span>Resource bundle generated on 2022-03-28T07:53:52.434Z using Microsoft FHIR Converter.</span><span>Template Version: TEMPLATE_VERSION_PLACEHOLDER.</span><span>Template URL: https://github.com/microsoft/FHIR-Converter/releases/download/vTEMPLATE_VERSION_PLACEHOLDER/Hl7v2DefaultTemplates.tar.gz.</span><span>Root template: VXU_V04.</span></p></div>"
              },
              "occurredDateTime": "2015-06-24T19:17:27.655+05:30",
              "recorded": "2015-06-24T19:17:27.655+05:30",
              "agent": [
                  {
                      "type": {
                          "coding": [
                              {
                                  "code": "author",
                                  "system": "http://terminology.hl7.org/CodeSystem/provenance-participant-type"
                              }
                          ]
                      },
                      "who": {
                          "reference": "Organization/8a0eacde-8a9d-6c26-af93-755bbf26dedc"
                      }
                  }
              ],
              "activity": {
                  "coding": [
                      {
                          "display": "VXU^V04^VXU_V04"
                      }
                  ]
              },
              "target": [
                  {
                      "reference": "Bundle/3364f83f-1a00-2742-2d21-2244f2ba834d"
                  }
              ]
          },
          "request": {
              "method": "PUT",
              "url": "Provenance/87847f45-4a99-9d88-c439-65574d8fd20b"
          }
      },
      {
          "fullUrl": "urn:uuid:8a0eacde-8a9d-6c26-af93-755bbf26dedc",
          "resource": {
              "resourceType": "Organization",
              "id": "8a0eacde-8a9d-6c26-af93-755bbf26dedc",
              "identifier": [
                  {
                      "value": "NISTEHRFAC",
                      "system": "http://example.com/v2-to-fhir-converter/Identifier/NISTEHRFAC"
                  }
              ],
              "partOf": {
                  "reference": "Organization/8a0eacde-8a9d-6c26-af93-755bbf26dedc"
              },
              "name": "NISTEHRFAC"
          },
          "request": {
              "method": "PUT",
              "url": "Organization/8a0eacde-8a9d-6c26-af93-755bbf26dedc"
          }
      },
      {
          "fullUrl": "urn:uuid:421aa904-409c-709f-ad7d-f1a7673d884f",
          "resource": {
              "resourceType": "Organization",
              "id": "421aa904-409c-709f-ad7d-f1a7673d884f",
              "identifier": [
                  {
                      "value": "NISTIISFAC",
                      "system": "http://example.com/v2-to-fhir-converter/Identifier/NISTIISFAC"
                  }
              ],
              "partOf": {
                  "reference": "Organization/421aa904-409c-709f-ad7d-f1a7673d884f"
              },
              "name": "NISTIISFAC"
          },
          "request": {
              "method": "PUT",
              "url": "Organization/421aa904-409c-709f-ad7d-f1a7673d884f"
          }
      },
      {
          "fullUrl": "urn:uuid:8dc947ee-0db3-5fa2-04bb-16fd7680cfbe",
          "resource": {
              "resourceType": "Patient",
              "id": "8dc947ee-0db3-5fa2-04bb-16fd7680cfbe",
              "identifier": [
                  {
                      "value": "90012",
                      "type": {
                          "coding": [
                              {
                                  "code": "MR",
                                  "system": "http://terminology.hl7.org/CodeSystem/v2-0203",
                                  "display": "Medical record number"
                              }
                          ]
                      },
                      "system": "http://example.com/v2-to-fhir-converter/Identifier/NIST-MPI-1"
                  }
              ],
              "name": [
                  {
                      "family": "Wong",
                      "given": [
                          "Elise"
                      ],
                      "use": "official"
                  }
              ],
              "birthDate": "1983-06-15",
              "gender": "female",
              "address": [
                  {
                      "line": [
                          "9200 Wellington Trail"
                      ],
                      "city": "Bozeman",
                      "state": "MT",
                      "postalCode": "59715",
                      "country": "USA"
                  }
              ],
              "telecom": [
                  {
                      "use": "home",
                      "system": "phone"
                  }
              ],
              "multipleBirthInteger": 1,
              "deceasedBoolean": false,
              "active": true,
              "extension": [
                  {
                      "url": "http://hl7.org/fhir/us/core/StructureDefinition/us-core-race",
                      "extension": [
                          {
                              "url": "ombCategory",
                              "valueCoding": {
                                  "code": "2028-9",
                                  "display": "Asian",
                                  "system": "urn:oid:2.16.840.1.113883.6.238"
                              }
                          },
                          {
                              "url": "text",
                              "valueString": "Asian"
                          }
                      ]
                  },
                  {
                      "url": "http://hl7.org/fhir/us/core/StructureDefinition/us-core-ethnicity",
                      "extension": [
                          {
                              "url": "ombCategory",
                              "valueCoding": {
                                  "code": "2186-5",
                                  "display": "Not Hispanic or Latino",
                                  "system": "http://example.com/v2-to-fhir-converter/CodeSystem/CDCREC"
                              }
                          },
                          {
                              "url": "text",
                              "valueString": "2186-5"
                          }
                      ]
                  }
              ]
          },
          "request": {
              "method": "PUT",
              "url": "Patient/8dc947ee-0db3-5fa2-04bb-16fd7680cfbe"
          }
      },
      {
          "fullUrl": "urn:uuid:89c802dd-30ec-8f4e-c374-059cfde1c975",
          "resource": {
              "resourceType": "Observation",
              "id": "89c802dd-30ec-8f4e-c374-059cfde1c975",
              "status": "final",
              "code": {
                  "coding": [
                      {
                          "code": "30963-3",
                          "display": "Vaccine Funding Source",
                          "system": "http://loinc.org"
                      }
                  ]
              },
              "valueCodeableConcept": {
                  "coding": [
                      {
                          "code": "PHC70",
                          "display": "Private",
                          "system": "http://example.com/v2-to-fhir-converter/CodeSystem/CDCPHINVS"
                      }
                  ]
              },
              "effectiveDateTime": "2015-06-24",
              "subject": {
                  "reference": "Patient/8dc947ee-0db3-5fa2-04bb-16fd7680cfbe"
              },
              "extension": [
                  {
                      "url": "http://example.com/v2-to-fhir-converter/Observation_Status",
                      "valueCodeableConcept": {
                          "coding": [
                              {
                                  "code": "F",
                                  "display": "Final",
                                  "system": "http://terminology.hl7.org/CodeSystem/v2-0085"
                              }
                          ],
                          "text": "Final"
                      }
                  }
              ]
          },
          "request": {
              "method": "PUT",
              "url": "Observation/89c802dd-30ec-8f4e-c374-059cfde1c975"
          }
      },
      {
          "fullUrl": "urn:uuid:195cc57b-4ab5-49fd-4e1d-53f79651bf13",
          "resource": {
              "resourceType": "Observation",
              "id": "195cc57b-4ab5-49fd-4e1d-53f79651bf13",
              "status": "final",
              "code": {
                  "coding": [
                      {
                          "code": "64994-7",
                          "display": "Vaccine Funding Program Eligibility",
                          "system": "http://loinc.org"
                      }
                  ]
              },
              "valueCodeableConcept": {
                  "coding": [
                      {
                          "code": "V01",
                          "display": "Not VFC Eligible",
                          "system": "http://example.com/v2-to-fhir-converter/CodeSystem/HL70064"
                      }
                  ]
              },
              "effectiveDateTime": "2015-06-24",
              "method": {
                  "coding": [
                      {
                          "code": "VXC40",
                          "display": "per immunization",
                          "system": "http://example.com/v2-to-fhir-converter/CodeSystem/CDCPHINVS"
                      }
                  ]
              },
              "subject": {
                  "reference": "Patient/8dc947ee-0db3-5fa2-04bb-16fd7680cfbe"
              },
              "extension": [
                  {
                      "url": "http://example.com/v2-to-fhir-converter/Observation_Status",
                      "valueCodeableConcept": {
                          "coding": [
                              {
                                  "code": "F",
                                  "display": "Final",
                                  "system": "http://terminology.hl7.org/CodeSystem/v2-0085"
                              }
                          ],
                          "text": "Final"
                      }
                  }
              ]
          },
          "request": {
              "method": "PUT",
              "url": "Observation/195cc57b-4ab5-49fd-4e1d-53f79651bf13"
          }
      },
      {
          "fullUrl": "urn:uuid:ad55c124-bb5c-99cb-cdc1-0f2735e6bbc2",
          "resource": {
              "resourceType": "Observation",
              "id": "ad55c124-bb5c-99cb-cdc1-0f2735e6bbc2",
              "status": "final",
              "code": {
                  "coding": [
                      {
                          "code": "69764-9",
                          "display": "Document Type",
                          "system": "http://loinc.org"
                      }
                  ]
              },
              "valueCodeableConcept": {
                  "coding": [
                      {
                          "code": "253088698300028811170411",
                          "display": "Tetanus/Diphtheria (Td) Vaccine VIS",
                          "system": "http://example.com/v2-to-fhir-converter/CodeSystem/cdcgs1vis"
                      }
                  ]
              },
              "effectiveDateTime": "2015-06-24",
              "subject": {
                  "reference": "Patient/8dc947ee-0db3-5fa2-04bb-16fd7680cfbe"
              },
              "extension": [
                  {
                      "url": "http://example.com/v2-to-fhir-converter/Observation_Status",
                      "valueCodeableConcept": {
                          "coding": [
                              {
                                  "code": "F",
                                  "display": "Final",
                                  "system": "http://terminology.hl7.org/CodeSystem/v2-0085"
                              }
                          ],
                          "text": "Final"
                      }
                  }
              ],
              "partOf": [
                  {
                      "reference": "Immunization/c0f2ddcb-f061-279f-d5e1-7b54b437e9db"
                  }
              ],
              "basedOn": [
                  {
                      "reference": "ServiceRequest/6aa18dc9-978e-a9e5-5533-ec8376372c0d"
                  }
              ]
          },
          "request": {
              "method": "PUT",
              "url": "Observation/ad55c124-bb5c-99cb-cdc1-0f2735e6bbc2"
          }
      },
      {
          "fullUrl": "urn:uuid:0878a797-17ce-3674-ac45-5f740963c772",
          "resource": {
              "resourceType": "Observation",
              "id": "0878a797-17ce-3674-ac45-5f740963c772",
              "status": "final",
              "code": {
                  "coding": [
                      {
                          "code": "29769-7",
                          "display": "Date Vis Presented",
                          "system": "http://loinc.org"
                      }
                  ]
              },
              "valueDateTime": "2015-06-24",
              "effectiveDateTime": "2015-06-24",
              "subject": {
                  "reference": "Patient/8dc947ee-0db3-5fa2-04bb-16fd7680cfbe"
              },
              "extension": [
                  {
                      "url": "http://example.com/v2-to-fhir-converter/Observation_Status",
                      "valueCodeableConcept": {
                          "coding": [
                              {
                                  "code": "F",
                                  "display": "Final",
                                  "system": "http://terminology.hl7.org/CodeSystem/v2-0085"
                              }
                          ],
                          "text": "Final"
                      }
                  }
              ],
              "partOf": [
                  {
                      "reference": "Immunization/c0f2ddcb-f061-279f-d5e1-7b54b437e9db"
                  }
              ],
              "basedOn": [
                  {
                      "reference": "ServiceRequest/6aa18dc9-978e-a9e5-5533-ec8376372c0d"
                  }
              ]
          },
          "request": {
              "method": "PUT",
              "url": "Observation/0878a797-17ce-3674-ac45-5f740963c772"
          }
      },
      {
          "fullUrl": "urn:uuid:72b45e56-f6fc-c8af-bc2f-7f62d1a14e80",
          "resource": {
              "resourceType": "Practitioner",
              "id": "72b45e56-f6fc-c8af-bc2f-7f62d1a14e80",
              "identifier": [
                  {
                      "value": "654",
                      "system": "http://example.com/v2-to-fhir-converter/Identifier/NIST-PI-1",
                      "type": {
                          "coding": [
                              {
                                  "code": "MD",
                                  "display": "Medical License number",
                                  "system": "http://terminology.hl7.org/CodeSystem/v2-0203"
                              }
                          ]
                      }
                  }
              ],
              "name": [
                  {
                      "family": "Thomas",
                      "given": [
                          "Wilma",
                          "Elizabeth"
                      ],
                      "use": "official"
                  }
              ]
          },
          "request": {
              "method": "PUT",
              "url": "Practitioner/72b45e56-f6fc-c8af-bc2f-7f62d1a14e80"
          }
      },
      {
          "fullUrl": "urn:uuid:c0f2ddcb-f061-279f-d5e1-7b54b437e9db",
          "resource": {
              "resourceType": "Immunization",
              "id": "c0f2ddcb-f061-279f-d5e1-7b54b437e9db",
              "identifier": [
                  {
                      "value": "4422",
                      "system": "http://example.com/v2-to-fhir-converter/Identifier/NIST-AA-IZ-2",
                      "type": {
                          "coding": [
                              {
                                  "code": "PLAC",
                                  "system": "http://terminology.hl7.org/CodeSystem/v2-0203"
                              }
                          ]
                      }
                  },
                  {
                      "value": "13696",
                      "system": "http://example.com/v2-to-fhir-converter/Identifier/NIST-AA-IZ-2",
                      "type": {
                          "coding": [
                              {
                                  "code": "FILL",
                                  "system": "http://terminology.hl7.org/CodeSystem/v2-0203"
                              }
                          ]
                      }
                  }
              ],
              "performer": [
                  {
                      "function": {
                          "coding": [
                              {
                                  "code": "OP",
                                  "system": "http://terminology.hl7.org/CodeSystem/v2-0443",
                                  "display": "Ordering Provider"
                              }
                          ]
                      },
                      "actor": {
                          "reference": "Practitioner/72b45e56-f6fc-c8af-bc2f-7f62d1a14e80"
                      }
                  },
                  {
                      "function": {
                          "coding": [
                              {
                                  "code": "AP",
                                  "system": "http://terminology.hl7.org/CodeSystem/v2-0443",
                                  "display": "Administering Provider"
                              }
                          ]
                      },
                      "actor": {
                          "reference": "Practitioner/9d113ef1-15cf-ec5c-6e04-230bf6b8bf71"
                      }
                  }
              ],
              "patient": {
                  "reference": "Patient/8dc947ee-0db3-5fa2-04bb-16fd7680cfbe"
              },
              "occurrenceDateTime": "2015-06-24",
              "vaccineCode": {
                  "coding": [
                      {
                          "code": "49281-0215-88",
                          "display": "TENIVAC",
                          "system": "http://hl7.org/fhir/sid/ndc"
                      }
                  ]
              },
              "doseQuantity": {
                  "value": 0.5,
                  "code": "mL",
                  "unit": "mL",
                  "system": "http://unitsofmeasure.org"
              },
              "reportOrigin": {
                  "coding": [
                      {
                          "code": "00",
                          "display": "New Record",
                          "system": "http://example.com/v2-to-fhir-converter/CodeSystem/NIP001"
                      }
                  ]
              },
              "primarySource": true,
              "lotNumber": "315841",
              "expirationDate": "2015-12-16",
              "status": "completed",
              "manufacturer": {
                  "reference": "Organization/1d6edd62-0051-4efa-bc0b-db345da54f10"
              },
              "route": {
                  "coding": [
                      {
                          "code": "C28161",
                          "display": "Intramuscular",
                          "system": "http://example.com/v2-to-fhir-converter/CodeSystem/NCIT"
                      }
                  ]
              },
              "site": {
                  "coding": [
                      {
                          "code": "RD",
                          "display": "Right Deltoid",
                          "system": "http://example.com/v2-to-fhir-converter/CodeSystem/HL70163"
                      }
                  ]
              },
              "fundingSource": {
                  "coding": [
                      {
                          "code": "PHC70",
                          "display": "Private",
                          "system": "http://example.com/v2-to-fhir-converter/CodeSystem/CDCPHINVS"
                      }
                  ]
              },
              "programEligibility": [
                  {
                      "coding": [
                          {
                              "code": "V01",
                              "display": "Not VFC Eligible",
                              "system": "http://example.com/v2-to-fhir-converter/CodeSystem/HL70064"
                          }
                      ]
                  }
              ]
          },
          "request": {
              "method": "PUT",
              "url": "Immunization/c0f2ddcb-f061-279f-d5e1-7b54b437e9db"
          }
      },
      {
          "fullUrl": "urn:uuid:6aa18dc9-978e-a9e5-5533-ec8376372c0d",
          "resource": {
              "resourceType": "ServiceRequest",
              "id": "6aa18dc9-978e-a9e5-5533-ec8376372c0d",
              "status": "unknown",
              "intent": "order",
              "identifier": [
                  {
                      "value": "4422",
                      "system": "http://example.com/v2-to-fhir-converter/Identifier/NIST-AA-IZ-2",
                      "type": {
                          "coding": [
                              {
                                  "code": "PLAC",
                                  "system": "http://terminology.hl7.org/CodeSystem/v2-0203"
                              }
                          ]
                      }
                  },
                  {
                      "value": "13696",
                      "system": "http://example.com/v2-to-fhir-converter/Identifier/NIST-AA-IZ-2",
                      "type": {
                          "coding": [
                              {
                                  "code": "FILL",
                                  "system": "http://terminology.hl7.org/CodeSystem/v2-0203"
                              }
                          ]
                      }
                  }
              ],
              "subject": {
                  "reference": "Patient/8dc947ee-0db3-5fa2-04bb-16fd7680cfbe"
              },
              "requester": {
                  "reference": "PractitionerRole/b3767cc9-98b2-33c7-a4d6-108af78e5e37"
              }
          },
          "request": {
              "method": "PUT",
              "url": "ServiceRequest/6aa18dc9-978e-a9e5-5533-ec8376372c0d"
          }
      },
      {
          "fullUrl": "urn:uuid:b3767cc9-98b2-33c7-a4d6-108af78e5e37",
          "resource": {
              "resourceType": "PractitionerRole",
              "id": "b3767cc9-98b2-33c7-a4d6-108af78e5e37",
              "code": [
                  {
                      "coding": [
                          {
                              "code": "OP",
                              "display": "Ordering Provider",
                              "system": "http://terminology.hl7.org/CodeSystem/v2-0443"
                          }
                      ]
                  }
              ],
              "practitioner": {
                  "reference": "Practitioner/72b45e56-f6fc-c8af-bc2f-7f62d1a14e80"
              }
          },
          "request": {
              "method": "PUT",
              "url": "PractitionerRole/b3767cc9-98b2-33c7-a4d6-108af78e5e37"
          }
      },
      {
          "fullUrl": "urn:uuid:1d6edd62-0051-4efa-bc0b-db345da54f10",
          "resource": {
              "resourceType": "Organization",
              "id": "1d6edd62-0051-4efa-bc0b-db345da54f10",
              "identifier": [
                  {
                      "value": "PMC",
                      "system": "http://example.com/v2-to-fhir-converter/Identifier/MVX"
                  }
              ],
              "name": "Sanofi Pasteur"
          },
          "request": {
              "method": "PUT",
              "url": "Organization/1d6edd62-0051-4efa-bc0b-db345da54f10"
          }
      },
      {
          "fullUrl": "urn:uuid:9d113ef1-15cf-ec5c-6e04-230bf6b8bf71",
          "resource": {
              "resourceType": "Practitioner",
              "id": "9d113ef1-15cf-ec5c-6e04-230bf6b8bf71",
              "identifier": [
                  {
                      "value": "7824",
                      "system": "http://example.com/v2-to-fhir-converter/Identifier/NIST-PI-1",
                      "type": {
                          "coding": [
                              {
                                  "code": "PRN",
                                  "display": "Provider number",
                                  "system": "http://terminology.hl7.org/CodeSystem/v2-0203"
                              }
                          ]
                      }
                  }
              ],
              "name": [
                  {
                      "family": "Jackson",
                      "given": [
                          "Lily",
                          "Suzanne"
                      ],
                      "use": "official"
                  }
              ]
          },
          "request": {
              "method": "PUT",
              "url": "Practitioner/9d113ef1-15cf-ec5c-6e04-230bf6b8bf71"
          }
      },
      {
          "fullUrl": "urn:uuid:c82d117c-dc9d-e431-dc92-6ca91243da07",
          "resource": {
              "resourceType": "Immunization",
              "id": "c82d117c-dc9d-e431-dc92-6ca91243da07",
              "identifier": [
                  {
                      "value": "38760",
                      "system": "http://example.com/v2-to-fhir-converter/Identifier/NIST-AA-IZ-2",
                      "type": {
                          "coding": [
                              {
                                  "code": "FILL",
                                  "system": "http://terminology.hl7.org/CodeSystem/v2-0203"
                              }
                          ]
                      }
                  }
              ],
              "patient": {
                  "reference": "Patient/8dc947ee-0db3-5fa2-04bb-16fd7680cfbe"
              },
              "occurrenceDateTime": "2014-10-12",
              "vaccineCode": {
                  "coding": [
                      {
                          "code": "88",
                          "display": "influenza, unspecified formulation",
                          "system": "http://example.com/v2-to-fhir-converter/CodeSystem/CVX"
                      }
                  ]
              },
              "doseQuantity": {
                  "value": 999
              },
              "reportOrigin": {
                  "coding": [
                      {
                          "code": "01",
                          "display": "Historical Administration",
                          "system": "http://example.com/v2-to-fhir-converter/CodeSystem/NIP001"
                      }
                  ]
              },
              "primarySource": false,
              "status": "completed"
          },
          "request": {
              "method": "PUT",
              "url": "Immunization/c82d117c-dc9d-e431-dc92-6ca91243da07"
          }
      },
      {
          "fullUrl": "urn:uuid:3bcb3b50-3650-82e2-7dc1-8e50f7f5a5ae",
          "resource": {
              "resourceType": "ServiceRequest",
              "id": "3bcb3b50-3650-82e2-7dc1-8e50f7f5a5ae",
              "status": "unknown",
              "intent": "order",
              "identifier": [
                  {
                      "value": "38760",
                      "system": "http://example.com/v2-to-fhir-converter/Identifier/NIST-AA-IZ-2",
                      "type": {
                          "coding": [
                              {
                                  "code": "FILL",
                                  "system": "http://terminology.hl7.org/CodeSystem/v2-0203"
                              }
                          ]
                      }
                  }
              ],
              "subject": {
                  "reference": "Patient/8dc947ee-0db3-5fa2-04bb-16fd7680cfbe"
              }
          },
          "request": {
              "method": "PUT",
              "url": "ServiceRequest/3bcb3b50-3650-82e2-7dc1-8e50f7f5a5ae"
          }
      },
      {
          "fullUrl": "urn:uuid:07ff92a4-c57e-8726-a03a-1241de54a9c3",
          "resource": {
              "resourceType": "Immunization",
              "id": "07ff92a4-c57e-8726-a03a-1241de54a9c3",
              "identifier": [
                  {
                      "value": "35508",
                      "system": "http://example.com/v2-to-fhir-converter/Identifier/NIST-AA-IZ-2",
                      "type": {
                          "coding": [
                              {
                                  "code": "FILL",
                                  "system": "http://terminology.hl7.org/CodeSystem/v2-0203"
                              }
                          ]
                      }
                  }
              ],
              "patient": {
                  "reference": "Patient/8dc947ee-0db3-5fa2-04bb-16fd7680cfbe"
              },
              "occurrenceDateTime": "2013-11-12",
              "vaccineCode": {
                  "coding": [
                      {
                          "code": "88",
                          "display": "influenza, unspecified formulation",
                          "system": "http://example.com/v2-to-fhir-converter/CodeSystem/CVX"
                      }
                  ]
              },
              "doseQuantity": {
                  "value": 999
              },
              "reportOrigin": {
                  "coding": [
                      {
                          "code": "01",
                          "display": "Historical Administration",
                          "system": "http://example.com/v2-to-fhir-converter/CodeSystem/NIP001"
                      }
                  ]
              },
              "primarySource": false,
              "status": "completed"
          },
          "request": {
              "method": "PUT",
              "url": "Immunization/07ff92a4-c57e-8726-a03a-1241de54a9c3"
          }
      },
      {
          "fullUrl": "urn:uuid:568bfd87-8b76-703a-b0d3-5449d0f37c58",
          "resource": {
              "resourceType": "ServiceRequest",
              "id": "568bfd87-8b76-703a-b0d3-5449d0f37c58",
              "status": "unknown",
              "intent": "order",
              "identifier": [
                  {
                      "value": "35508",
                      "system": "http://example.com/v2-to-fhir-converter/Identifier/NIST-AA-IZ-2",
                      "type": {
                          "coding": [
                              {
                                  "code": "FILL",
                                  "system": "http://terminology.hl7.org/CodeSystem/v2-0203"
                              }
                          ]
                      }
                  }
              ],
              "subject": {
                  "reference": "Patient/8dc947ee-0db3-5fa2-04bb-16fd7680cfbe"
              }
          },
          "request": {
              "method": "PUT",
              "url": "ServiceRequest/568bfd87-8b76-703a-b0d3-5449d0f37c58"
          }
      }
  ]
}