{
    "resourceType": "Bundle",
    "type": "batch",
    "timestamp": "2015-06-24T19:17:27.655+05:30",
    "identifier": {
        "value": "NIST-IZ-AD-2.1_Send_V04_Z22"
    },
    "entry": [
        {
            "fullUrl": "urn:uuid:aefd5bbc-563b-7d19-5096-4b5754c338c1",
            "resource": {
                "resourceType": "MessageHeader",
                "id": "aefd5bbc-563b-7d19-5096-4b5754c338c1",
                "source": {
                    "name": "NISTEHRAPP",
                    "_endpoint": {
                        "extension": [
                            {
                                "url": "http://hl7.org/fhir/StructureDefinition/data-absent-reason",
                                "valueCode": "unknown"
                            }
                        ]
                    }
                },
                "destination": [
                    {
                        "name": "NISTIISAPP",
                        "_endpoint": {
                            "extension": [
                                {
                                    "url": "http://hl7.org/fhir/StructureDefinition/data-absent-reason",
                                    "valueCode": "unknown"
                                }
                            ]
                        },
                        "receiver": {
                            "reference": "Organization/421aa904-409c-709f-ad7d-f1a7673d884f"
                        }
                    }
                ],
                "meta": {
                    "tag": [
                        {
                            "code": "P",
                            "system": "http://terminology.hl7.org/CodeSystem/v2-0103"
                        }
                    ]
                },
                "eventCoding": {
                    "code": "V04",
                    "system": "http://terminology.hl7.org/CodeSystem/v2-0003",
                    "display": "VXU^V04^VXU_V04"
                },
                "sender": {
                    "reference": "Organization/8a0eacde-8a9d-6c26-af93-755bbf26dedc"
                },
                "responsible": {
                    "reference": "Organization/8a0eacde-8a9d-6c26-af93-755bbf26dedc"
                }
            },
            "request": {
                "method": "PUT",
                "url": "MessageHeader/aefd5bbc-563b-7d19-5096-4b5754c338c1"
            }
        },
        {
            "fullUrl": "urn:uuid:8dc947ee-0db3-5fa2-04bb-16fd7680cfbe",
            "resource": {
                "resourceType": "Patient",
                "id": "8dc947ee-0db3-5fa2-04bb-16fd7680cfbe",
                "identifier": [
                    {
                        "value": "90012",
                        "type": {
                            "coding": [
                                {
                                    "code": "MR",
                                    "system": "http://terminology.hl7.org/CodeSystem/v2-0203",
                                    "display": "Medical record number"
                                }
                            ]
                        },
                        "system": "http://example.com/v2-to-fhir-converter/assigning-authority-local-system-NIST-MPI-1"
                    }
                ],
                "name": [
                    {
                        "family": "Wong",
                        "given": [
                            "Elise"
                        ],
                        "use": "official"
                    }
                ],
                "birthDate": "1983-06-15",
                "gender": "female",
                "address": [
                    {
                        "line": [
                            "9200 Wellington Trail"
                        ],
                        "city": "Bozeman",
                        "state": "MT",
                        "postalCode": "59715",
                        "country": "USA"
                    }
                ],
                "telecom": [
                    {
                        "use": "home",
                        "system": "phone"
                    }
                ],
                "multipleBirthInteger": 1,
                "deceasedBoolean": false,
                "active": "true",
                "extension": [
                    {
                        "url": "http://hl7.org/fhir/us/core/StructureDefinition/us-core-race",
                        "extension": [
                            {
                                "url": "ombCategory",
                                "valueCoding": {
                                    "code": "2028-9",
                                    "display": "Asian",
                                    "system": "urn:oid:2.16.840.1.113883.6.238"
                                }
                            },
                            {
                                "url": "text",
                                "valueString": "Asian"
                            }
                        ]
                    },
                    {
                        "url": "http://hl7.org/fhir/us/core/StructureDefinition/us-core-ethnicity",
                        "extension": [
                            {
                                "url": "ombCategory",
                                "valueCoding": {
                                    "code": "2186-5",
                                    "display": "Not Hispanic or Latino",
                                    "system": "http://example.com/v2-to-fhir-converter/CodeSystem/CDCREC"
                                }
                            },
                            {
                                "url": "text",
                                "valueString": "2186-5"
                            }
                        ]
                    }
                ]
            },
            "request": {
                "method": "PUT",
                "url": "Patient/8dc947ee-0db3-5fa2-04bb-16fd7680cfbe"
            }
        },
        {
            "fullUrl": "urn:uuid:9d113ef1-15cf-ec5c-6e04-230bf6b8bf71",
            "resource": {
                "resourceType": "Practitioner",
                "id": "9d113ef1-15cf-ec5c-6e04-230bf6b8bf71",
                "identifier": [
                    {
                        "value": "654",
                        "system": "http://example.com/v2-to-fhir-converter/assigning-authority-local-system-NIST-PI-1",
                        "type": {
                            "coding": [
                                {
                                    "code": "MD",
                                    "display": "Medical License number",
                                    "system": "http://terminology.hl7.org/CodeSystem/v2-0203"
                                }
                            ]
                        }
                    },
                    {
                        "value": "7824",
                        "system": "http://example.com/v2-to-fhir-converter/assigning-authority-local-system-NIST-PI-1",
                        "type": {
                            "coding": [
                                {
                                    "code": "PRN",
                                    "display": "Provider number",
                                    "system": "http://terminology.hl7.org/CodeSystem/v2-0203"
                                }
                            ]
                        }
                    }
                ],
                "name": [
                    {
                        "family": "Thomas",
                        "given": [
                            "Wilma",
                            "Elizabeth"
                        ],
                        "use": "official"
                    },
                    {
                        "family": "Jackson",
                        "given": [
                            "Lily",
                            "Suzanne"
                        ],
                        "use": "official"
                    }
                ]
            },
            "request": {
                "method": "PUT",
                "url": "Practitioner/9d113ef1-15cf-ec5c-6e04-230bf6b8bf71"
            }
        },
        {
            "fullUrl": "urn:uuid:",
            "resource": {
                "resourceType": "Practitioner",
                "identifier": [
                    {
                        "value": "654",
                        "system": "http://example.com/v2-to-fhir-converter/assigning-authority-local-system-NIST-PI-1",
                        "type": {
                            "coding": [
                                {
                                    "code": "MD",
                                    "display": "Medical License number",
                                    "system": "http://terminology.hl7.org/CodeSystem/v2-0203"
                                }
                            ]
                        }
                    },
                    {
                        "value": "7824",
                        "system": "http://example.com/v2-to-fhir-converter/assigning-authority-local-system-NIST-PI-1",
                        "type": {
                            "coding": [
                                {
                                    "code": "PRN",
                                    "display": "Provider number",
                                    "system": "http://terminology.hl7.org/CodeSystem/v2-0203"
                                }
                            ]
                        }
                    }
                ],
                "name": [
                    {
                        "family": "Thomas",
                        "given": [
                            "Wilma",
                            "Elizabeth"
                        ],
                        "use": "official"
                    },
                    {
                        "family": "Jackson",
                        "given": [
                            "Lily",
                            "Suzanne"
                        ],
                        "use": "official"
                    }
                ]
            },
            "request": {
                "method": "PUT",
                "url": "Practitioner/"
            }
        },
        {
            "fullUrl": "urn:uuid:72b45e56-f6fc-c8af-bc2f-7f62d1a14e80",
            "resource": {
                "resourceType": "Practitioner",
                "id": "72b45e56-f6fc-c8af-bc2f-7f62d1a14e80",
                "identifier": [
                    {
                        "value": "654",
                        "system": "http://example.com/v2-to-fhir-converter/assigning-authority-local-system-NIST-PI-1",
                        "type": {
                            "coding": [
                                {
                                    "code": "MD",
                                    "display": "Medical License number",
                                    "system": "http://terminology.hl7.org/CodeSystem/v2-0203"
                                }
                            ]
                        }
                    }
                ],
                "name": [
                    {
                        "family": "Thomas",
                        "given": [
                            "Wilma",
                            "Elizabeth"
                        ],
                        "use": "official"
                    }
                ]
            },
            "request": {
                "method": "PUT",
                "url": "Practitioner/72b45e56-f6fc-c8af-bc2f-7f62d1a14e80"
            }
        },
        {
            "fullUrl": "urn:uuid:",
            "resource": {
                "resourceType": "Location"
            },
            "request": {
                "method": "PUT",
                "url": "Location/"
            }
        },
        {
            "fullUrl": "urn:uuid:87847f45-4a99-9d88-c439-65574d8fd20b",
            "resource": {
                "resourceType": "Provenance",
                "id": "87847f45-4a99-9d88-c439-65574d8fd20b",
                "text": {
                    "status": "generated",
                    "div": "<div xmlns=\"http://www.w3.org/1999/xhtml\"><p><span>Resource bundle generated on 2021-10-29T08:47:17.095Z using Microsoft FHIR Converter.</span><span>Template Version: TEMPLATE_VERSION_PLACEHOLDER.</span><span>Template URL: https://github.com/microsoft/FHIR-Converter/releases/download/vTEMPLATE_VERSION_PLACEHOLDER/Hl7v2DefaultTemplates.tar.gz.</span><span>Root template: VXU_V04.</span></p></div>"
                },
                "occurredDateTime": "2015-06-24T19:17:27.655+05:30",
                "recorded": "2015-06-24T19:17:27.655+05:30",
                "agent": [
                    {
                        "type": {
                            "coding": [
                                {
                                    "code": "author",
                                    "system": "http://terminology.hl7.org/CodeSystem/provenance-participant-type"
                                }
                            ]
                        },
                        "who": {
                            "reference": "Organization/8a0eacde-8a9d-6c26-af93-755bbf26dedc"
                        }
                    }
                ],
                "activity": {
                    "coding": [
                        {
                            "display": "VXU^V04^VXU_V04"
                        }
                    ]
                },
                "target": [
                    {
                        "reference": "Bundle/"
                    }
                ]
            },
            "request": {
                "method": "PUT",
                "url": "Provenance/87847f45-4a99-9d88-c439-65574d8fd20b"
            }
        },
        {
            "fullUrl": "urn:uuid:99ce28f5-c743-ed2e-b88e-47f2e32d23d5",
            "resource": {
                "resourceType": "Account",
                "id": "99ce28f5-c743-ed2e-b88e-47f2e32d23d5",
                "status": "active",
                "subject": [
                    {
                        "reference": "Patient/8dc947ee-0db3-5fa2-04bb-16fd7680cfbe"
                    }
                ]
            },
            "request": {
                "method": "PUT",
                "url": "Account/99ce28f5-c743-ed2e-b88e-47f2e32d23d5"
            }
        },
        {
            "fullUrl": "urn:uuid:",
            "resource": {
                "resourceType": "Encounter",
                "text": {
                    "status": "generated",
                    "div": "<div xmlns=\"http://www.w3.org/1999/xhtml\"><p><span>Visit Description: </span></p></div>"
                },
                "subject": {
                    "reference": "Patient/8dc947ee-0db3-5fa2-04bb-16fd7680cfbe"
                }
            },
            "request": {
                "method": "PUT",
                "url": "Encounter/"
            }
        },
        {
            "fullUrl": "urn:uuid:c0f2ddcb-f061-279f-d5e1-7b54b437e9db",
            "resource": {
                "resourceType": "Immunization",
                "id": "c0f2ddcb-f061-279f-d5e1-7b54b437e9db",
                "identifier": [
                    {
                        "value": "4422",
                        "system": "http://example.com/v2-to-fhir-converter/local-entity-identifier-NIST-AA-IZ-2",
                        "type": {
                            "coding": [
                                {
                                    "code": "PLAC",
                                    "system": "http://terminology.hl7.org/CodeSystem/v2-0203"
                                }
                            ]
                        }
                    },
                    {
                        "value": "13696",
                        "system": "http://example.com/v2-to-fhir-converter/local-entity-identifier-NIST-AA-IZ-2",
                        "type": {
                            "coding": [
                                {
                                    "code": "FILL",
                                    "system": "http://terminology.hl7.org/CodeSystem/v2-0203"
                                }
                            ]
                        }
                    }
                ],
                "performer": [
                    {
                        "function": {
                            "coding": [
                                {
                                    "code": "OP",
                                    "system": "http://terminology.hl7.org/CodeSystem/v2-0443"
                                }
                            ]
                        },
                        "actor": {
                            "reference": "Practitioner/72b45e56-f6fc-c8af-bc2f-7f62d1a14e80"
                        }
                    },
                    {
                        "function": {
                            "coding": [
                                {
                                    "code": "AP",
                                    "system": "http://terminology.hl7.org/CodeSystem/v2-0443"
                                }
                            ]
                        },
                        "actor": {
                            "reference": "Practitioner/9d113ef1-15cf-ec5c-6e04-230bf6b8bf71"
                        }
                    }
                ],
                "patient": {
                    "reference": "Patient/8dc947ee-0db3-5fa2-04bb-16fd7680cfbe"
                },
                "occurrenceDateTime": "2015-06-24",
                "vaccineCode": {
                    "coding": [
                        {
                            "code": "49281-0215-88",
                            "display": "TENIVAC",
                            "system": "http://example.com/v2-to-fhir-converter/CodeSystem/NDC"
                        }
                    ]
                },
                "lotNumber": "315841",
                "expirationDate": "2015-12-16",
                "status": "completed",
                "manufacturer": {
                    "reference": "Organization/1d6edd62-0051-4efa-bc0b-db345da54f10"
                }
            },
            "request": {
                "method": "PUT",
                "url": "Immunization/c0f2ddcb-f061-279f-d5e1-7b54b437e9db"
            }
        },
        {
            "fullUrl": "urn:uuid:1d6edd62-0051-4efa-bc0b-db345da54f10",
            "resource": {
                "resourceType": "Organization",
                "id": "1d6edd62-0051-4efa-bc0b-db345da54f10",
                "identifier": [
                    {
                        "value": "PMC",
                        "system": "MVX"
                    }
                ],
                "name": "Sanofi Pasteur"
            },
            "request": {
                "method": "PUT",
                "url": "Organization/1d6edd62-0051-4efa-bc0b-db345da54f10"
            }
        },
        {
            "fullUrl": "urn:uuid:4f69f58b-f17b-5490-8131-f15d196e9d44",
            "resource": {
                "resourceType": "Observation",
                "id": "4f69f58b-f17b-5490-8131-f15d196e9d44",
                "status": "final",
                "code": {
                    "coding": [
                        {
                            "code": "30963-3",
                            "display": "Vaccine Funding Source",
                            "system": "http://loinc.org"
                        }
                    ]
                },
                "valueCodeableConcept": {
                    "coding": [
                        {
                            "code": "PHC70",
                            "display": "Private",
                            "system": "http://example.com/v2-to-fhir-converter/CodeSystem/CDCPHINVS"
                        }
                    ]
                },
                "effectiveDateTime": "2015-06-24",
                "subject": {
                    "reference": "Patient/8dc947ee-0db3-5fa2-04bb-16fd7680cfbe"
                },
                "partOf": [
                    {
                        "reference": "Immunization/c0f2ddcb-f061-279f-d5e1-7b54b437e9db"
                    }
                ]
            },
            "request": {
                "method": "PUT",
                "url": "Observation/4f69f58b-f17b-5490-8131-f15d196e9d44"
            }
        },
        {
            "fullUrl": "urn:uuid:c37e67e6-8592-cb8c-3111-f561fa2d8a4c",
            "resource": {
                "resourceType": "Observation",
                "id": "c37e67e6-8592-cb8c-3111-f561fa2d8a4c",
                "status": "final",
                "code": {
                    "coding": [
                        {
                            "code": "64994-7",
                            "display": "Vaccine Funding Program Eligibility",
                            "system": "http://loinc.org"
                        }
                    ]
                },
                "valueCodeableConcept": {
                    "coding": [
                        {
                            "code": "V01",
                            "display": "Not VFC Eligible",
                            "system": "http://example.com/v2-to-fhir-converter/CodeSystem/HL70064"
                        }
                    ]
                },
                "effectiveDateTime": "2015-06-24",
                "method": {
                    "coding": [
                        {
                            "code": "VXC40",
                            "display": "per immunization",
                            "system": "http://example.com/v2-to-fhir-converter/CodeSystem/CDCPHINVS"
                        }
                    ]
                },
                "subject": {
                    "reference": "Patient/8dc947ee-0db3-5fa2-04bb-16fd7680cfbe"
                },
                "partOf": [
                    {
                        "reference": "Immunization/c0f2ddcb-f061-279f-d5e1-7b54b437e9db"
                    }
                ]
            },
            "request": {
                "method": "PUT",
                "url": "Observation/c37e67e6-8592-cb8c-3111-f561fa2d8a4c"
            }
        },
        {
            "fullUrl": "urn:uuid:068ce7b5-9620-1ac7-3117-b4b46fe2e2a2",
            "resource": {
                "resourceType": "Observation",
                "id": "068ce7b5-9620-1ac7-3117-b4b46fe2e2a2",
                "status": "final",
                "code": {
                    "coding": [
                        {
                            "code": "69764-9",
                            "display": "Document Type",
                            "system": "http://loinc.org"
                        }
                    ]
                },
                "valueCodeableConcept": {
                    "coding": [
                        {
                            "code": "253088698300028811170411",
                            "display": "Tetanus/Diphtheria (Td) Vaccine VIS",
                            "system": "http://example.com/v2-to-fhir-converter/CodeSystem/cdcgs1vis"
                        }
                    ]
                },
                "effectiveDateTime": "2015-06-24",
                "subject": {
                    "reference": "Patient/8dc947ee-0db3-5fa2-04bb-16fd7680cfbe"
                },
                "partOf": [
                    {
                        "reference": "Immunization/c0f2ddcb-f061-279f-d5e1-7b54b437e9db"
                    }
                ]
            },
            "request": {
                "method": "PUT",
                "url": "Observation/068ce7b5-9620-1ac7-3117-b4b46fe2e2a2"
            }
        },
        {
            "fullUrl": "urn:uuid:1fc2db78-b289-a0ce-5b3e-7576f72e58b9",
            "resource": {
                "resourceType": "Observation",
                "id": "1fc2db78-b289-a0ce-5b3e-7576f72e58b9",
                "status": "final",
                "code": {
                    "coding": [
                        {
                            "code": "29769-7",
                            "display": "Date Vis Presented",
                            "system": "http://loinc.org"
                        }
                    ]
                },
                "valueDateTime": "2015-06-24",
                "effectiveDateTime": "2015-06-24",
                "subject": {
                    "reference": "Patient/8dc947ee-0db3-5fa2-04bb-16fd7680cfbe"
                },
                "partOf": [
                    {
                        "reference": "Immunization/c0f2ddcb-f061-279f-d5e1-7b54b437e9db"
                    }
                ]
            },
            "request": {
                "method": "PUT",
                "url": "Observation/1fc2db78-b289-a0ce-5b3e-7576f72e58b9"
            }
        },
        {
            "fullUrl": "urn:uuid:c82d117c-dc9d-e431-dc92-6ca91243da07",
            "resource": {
                "resourceType": "Immunization",
                "id": "c82d117c-dc9d-e431-dc92-6ca91243da07",
                "identifier": [
                    {
                        "value": "38760",
                        "system": "http://example.com/v2-to-fhir-converter/local-entity-identifier-NIST-AA-IZ-2",
                        "type": {
                            "coding": [
                                {
                                    "code": "FILL",
                                    "system": "http://terminology.hl7.org/CodeSystem/v2-0203"
                                }
                            ]
                        }
                    }
                ],
                "patient": {
                    "reference": "Patient/8dc947ee-0db3-5fa2-04bb-16fd7680cfbe"
                },
                "occurrenceDateTime": "2014-10-12",
                "vaccineCode": {
                    "coding": [
                        {
                            "code": "88",
                            "display": "influenza, unspecified formulation",
                            "system": "http://example.com/v2-to-fhir-converter/CodeSystem/CVX"
                        }
                    ]
                },
                "status": "completed"
            },
            "request": {
                "method": "PUT",
                "url": "Immunization/c82d117c-dc9d-e431-dc92-6ca91243da07"
            }
        },
        {
            "fullUrl": "urn:uuid:",
            "resource": {
                "resourceType": "Organization"
            },
            "request": {
                "method": "PUT",
                "url": "Organization/"
            }
        },
        {
            "fullUrl": "urn:uuid:07ff92a4-c57e-8726-a03a-1241de54a9c3",
            "resource": {
                "resourceType": "Immunization",
                "id": "07ff92a4-c57e-8726-a03a-1241de54a9c3",
                "identifier": [
                    {
                        "value": "35508",
                        "system": "http://example.com/v2-to-fhir-converter/local-entity-identifier-NIST-AA-IZ-2",
                        "type": {
                            "coding": [
                                {
                                    "code": "FILL",
                                    "system": "http://terminology.hl7.org/CodeSystem/v2-0203"
                                }
                            ]
                        }
                    }
                ],
                "patient": {
                    "reference": "Patient/8dc947ee-0db3-5fa2-04bb-16fd7680cfbe"
                },
                "occurrenceDateTime": "2013-11-12",
                "vaccineCode": {
                    "coding": [
                        {
                            "code": "88",
                            "display": "influenza, unspecified formulation",
                            "system": "http://example.com/v2-to-fhir-converter/CodeSystem/CVX"
                        }
                    ]
                },
                "status": "completed"
            },
            "request": {
                "method": "PUT",
                "url": "Immunization/07ff92a4-c57e-8726-a03a-1241de54a9c3"
            }
        }
    ]
}