{
    "resourceType": "Bundle",
    "type": "transaction",
    "entry": [
        {
            "fullUrl": "urn:uuid:dda8c6b4-bbb0-3322-aafb-f4d73ac2a605",
            "resource": {
                "resourceType": "Patient",
                "id": "dda8c6b4-bbb0-3322-aafb-f4d73ac2a605",
                "identifier": [
                    {
                        "value": "90012",
                        "type": {
                            "coding": [
                                {
                                    "code": "MR",
                                    "system": "http://terminology.hl7.org/CodeSystem/v2-0203"
                                }
                            ]
                        }
                    }
                ],
                "name": [
                    {
                        "family": "Wong",
                        "given": [
                            "Elise"
                        ],
                        "use": "official"
                    }
                ],
                "birthDate": "1983-06-15",
                "gender": "female",
                "address": [
                    {
                        "line": [
                            "9200 Wellington Trail"
                        ],
                        "city": "Bozeman",
                        "state": "MT",
                        "postalCode": "59715",
                        "country": "USA"
                    }
                ],
                "telecom": [
                    {
                        "use": "home"
                    },
                    {
                        "use": "home"
                    }
                ],
                "multipleBirthInteger": "1",
                "deceasedBoolean": "false",
                "active": "true"
            },
            "request": {
                "method": "POST",
                "url": "Patient/dda8c6b4-bbb0-3322-aafb-f4d73ac2a605"
            }
        },
        {
            "fullUrl": "urn:uuid:4cfe8d6d-3fc8-3e41-b921-f204be18db31",
            "resource": {
                "resourceType": "Encounter",
                "id": "4cfe8d6d-3fc8-3e41-b921-f204be18db31",
                "status": "unknown",
                "location": [
                    {
                        "status": "active"
                    }
                ],
                "subject": {
                    "reference": "Patient/dda8c6b4-bbb0-3322-aafb-f4d73ac2a605"
                }
            },
            "request": {
                "method": "POST",
                "url": "Encounter/4cfe8d6d-3fc8-3e41-b921-f204be18db31"
            }
        },
        {
            "fullUrl": "urn:uuid:ac5e5965-04d0-3692-8d28-cbd670bba882",
            "resource": {
                "resourceType": "Immunization",
                "id": "ac5e5965-04d0-3692-8d28-cbd670bba882",
                "identifier": [
                    {
                        "value": "4422",
                        "type": {
                            "coding": [
                                {
                                    "code": "PLAC",
                                    "system": "http://terminology.hl7.org/CodeSystem/v2-0203"
                                }
                            ]
                        }
                    },
                    {
                        "value": "13696",
                        "type": {
                            "coding": [
                                {
                                    "code": "FILL",
                                    "system": "http://terminology.hl7.org/CodeSystem/v2-0203"
                                }
                            ]
                        }
                    }
                ],
                "performer": [
                    {
                        "function": {
                            "coding": [
                                {
                                    "code": "OP",
                                    "system": "http://terminology.hl7.org/CodeSystem/v2-0443"
                                }
                            ]
                        }
                    },
                    {
                        "function": {
                            "coding": [
                                {
                                    "code": "AP",
                                    "system": "http://terminology.hl7.org/CodeSystem/v2-0443"
                                }
                            ]
                        }
                    }
                ],
                "patient": {
                    "reference": "Patient/dda8c6b4-bbb0-3322-aafb-f4d73ac2a605"
                },
                "occurrenceDateTime": "2015-06-24",
                "vaccineCode": {
                    "coding": [
                        {
                            "code": "49281-0215-88",
                            "display": "TENIVAC",
                            "system": "NDC"
                        }
                    ]
                },
                "lotNumber": "315841",
                "expirationDate": "2015-12-16",
                "status": "completed"
            },
            "request": {
                "method": "POST",
                "url": "Immunization/ac5e5965-04d0-3692-8d28-cbd670bba882"
            }
        },
        {
            "fullUrl": "urn:uuid:5ba73ec1-e058-3e13-b535-6d08ec668f88",
            "resource": {
                "resourceType": "Observation",
                "id": "5ba73ec1-e058-3e13-b535-6d08ec668f88",
                "code": {
                    "coding": [
                        {
                            "code": "30963-3",
                            "display": "Vaccine Funding Source",
                            "system": "LN"
                        }
                    ]
                },
                "valueCodeableConcept": {
                    "coding": [
                        {
                            "code": "PHC70",
                            "display": "Private",
                            "system": "CDCPHINVS"
                        }
                    ]
                },
                "status": "final",
                "effectiveDateTime": "2015-06-24",
                "component": [
                    {
                        "code": {
                            "coding": [
                                {
                                    "code": "30963-3",
                                    "display": "Vaccine Funding Source",
                                    "system": "LN"
                                }
                            ]
                        }
                    }
                ],
                "subject": {
                    "reference": "Patient/dda8c6b4-bbb0-3322-aafb-f4d73ac2a605"
                },
                "partOf": [
                    {
                        "reference": "Immunization/ac5e5965-04d0-3692-8d28-cbd670bba882"
                    }
                ]
            },
            "request": {
                "method": "POST",
                "url": "Observation/5ba73ec1-e058-3e13-b535-6d08ec668f88"
            }
        },
        {
            "fullUrl": "urn:uuid:875f1ad8-57ab-3ace-b122-be00af6803b9",
            "resource": {
                "resourceType": "Observation",
                "id": "875f1ad8-57ab-3ace-b122-be00af6803b9",
                "code": {
                    "coding": [
                        {
                            "code": "64994-7",
                            "display": "Vaccine Funding Program Eligibility",
                            "system": "LN"
                        }
                    ]
                },
                "valueCodeableConcept": {
                    "coding": [
                        {
                            "code": "V01",
                            "display": "Not VFC Eligible",
                            "system": "HL70064"
                        }
                    ]
                },
                "status": "final",
                "effectiveDateTime": "2015-06-24",
                "component": [
                    {
                        "code": {
                            "coding": [
                                {
                                    "code": "64994-7",
                                    "display": "Vaccine Funding Program Eligibility",
                                    "system": "LN"
                                }
                            ]
                        }
                    }
                ],
                "subject": {
                    "reference": "Patient/dda8c6b4-bbb0-3322-aafb-f4d73ac2a605"
                },
                "partOf": [
                    {
                        "reference": "Immunization/ac5e5965-04d0-3692-8d28-cbd670bba882"
                    }
                ]
            },
            "request": {
                "method": "POST",
                "url": "Observation/875f1ad8-57ab-3ace-b122-be00af6803b9"
            }
        },
        {
            "fullUrl": "urn:uuid:cf273e0b-1869-39b6-b753-ffff77d01c03",
            "resource": {
                "resourceType": "Observation",
                "id": "cf273e0b-1869-39b6-b753-ffff77d01c03",
                "code": {
                    "coding": [
                        {
                            "code": "69764-9",
                            "display": "Document Type",
                            "system": "LN"
                        }
                    ]
                },
                "valueCodeableConcept": {
                    "coding": [
                        {
                            "code": "253088698300028811170411",
                            "display": "Tetanus/Diphtheria (Td) Vaccine VIS",
                            "system": "cdcgs1vis"
                        }
                    ]
                },
                "status": "final",
                "effectiveDateTime": "2015-06-24",
                "component": [
                    {
                        "code": {
                            "coding": [
                                {
                                    "code": "69764-9",
                                    "display": "Document Type",
                                    "system": "LN"
                                }
                            ]
                        }
                    }
                ],
                "subject": {
                    "reference": "Patient/dda8c6b4-bbb0-3322-aafb-f4d73ac2a605"
                },
                "partOf": [
                    {
                        "reference": "Immunization/ac5e5965-04d0-3692-8d28-cbd670bba882"
                    }
                ]
            },
            "request": {
                "method": "POST",
                "url": "Observation/cf273e0b-1869-39b6-b753-ffff77d01c03"
            }
        },
        {
            "fullUrl": "urn:uuid:523dec33-5b94-3f23-b467-cc08142ffb76",
            "resource": {
                "resourceType": "Observation",
                "id": "523dec33-5b94-3f23-b467-cc08142ffb76",
                "code": {
                    "coding": [
                        {
                            "code": "29769-7",
                            "display": "Date Vis Presented",
                            "system": "LN"
                        }
                    ]
                },
                "valueDateTime": "2015-06-24",
                "status": "final",
                "effectiveDateTime": "2015-06-24",
                "component": [
                    {
                        "code": {
                            "coding": [
                                {
                                    "code": "29769-7",
                                    "display": "Date Vis Presented",
                                    "system": "LN"
                                }
                            ]
                        },
                        "valueDateTime": "2015-06-24"
                    }
                ],
                "subject": {
                    "reference": "Patient/dda8c6b4-bbb0-3322-aafb-f4d73ac2a605"
                },
                "partOf": [
                    {
                        "reference": "Immunization/ac5e5965-04d0-3692-8d28-cbd670bba882"
                    }
                ]
            },
            "request": {
                "method": "POST",
                "url": "Observation/523dec33-5b94-3f23-b467-cc08142ffb76"
            }
        },
        {
            "fullUrl": "urn:uuid:97c92c21-d8e1-3900-90f2-3d6d4e257931",
            "resource": {
                "resourceType": "Immunization",
                "id": "97c92c21-d8e1-3900-90f2-3d6d4e257931",
                "identifier": [
                    {
                        "value": "38760",
                        "type": {
                            "coding": [
                                {
                                    "code": "FILL",
                                    "system": "http://terminology.hl7.org/CodeSystem/v2-0203"
                                }
                            ]
                        }
                    }
                ],
                "patient": {
                    "reference": "Patient/dda8c6b4-bbb0-3322-aafb-f4d73ac2a605"
                },
                "occurrenceDateTime": "2014-10-12",
                "vaccineCode": {
                    "coding": [
                        {
                            "code": "88",
                            "display": "influenza, unspecified formulation",
                            "system": "CVX"
                        }
                    ]
                },
                "status": "completed"
            },
            "request": {
                "method": "POST",
                "url": "Immunization/97c92c21-d8e1-3900-90f2-3d6d4e257931"
            }
        },
        {
            "fullUrl": "urn:uuid:4786bb34-29bf-3f58-8ebe-5005f2849fb4",
            "resource": {
                "resourceType": "Immunization",
                "id": "4786bb34-29bf-3f58-8ebe-5005f2849fb4",
                "identifier": [
                    {
                        "value": "35508",
                        "type": {
                            "coding": [
                                {
                                    "code": "FILL",
                                    "system": "http://terminology.hl7.org/CodeSystem/v2-0203"
                                }
                            ]
                        }
                    }
                ],
                "patient": {
                    "reference": "Patient/dda8c6b4-bbb0-3322-aafb-f4d73ac2a605"
                },
                "occurrenceDateTime": "2013-11-12",
                "vaccineCode": {
                    "coding": [
                        {
                            "code": "88",
                            "display": "influenza, unspecified formulation",
                            "system": "CVX"
                        }
                    ]
                },
                "status": "completed"
            },
            "request": {
                "method": "POST",
                "url": "Immunization/4786bb34-29bf-3f58-8ebe-5005f2849fb4"
            }
        }
    ]
}