{
  "resourceType": "Bundle",
  "type": "batch",
  "timestamp": "2021-10-20T11:26:00+02:15",
  "identifier": {
    "value": "MSG00018"
  },
  "id": "4d03cb6d-610f-5d9e-b9ac-f14883a17462",
  "entry": [
    {
      "fullUrl": "urn:uuid:4f80efdd-5499-39ca-474f-6dca4b4f9a22",
      "resource": {
        "resourceType": "MessageHeader",
        "id": "4f80efdd-5499-39ca-474f-6dca4b4f9a22",
        "source": {
          "name": "24GHH",
          "endpoint": "urn:oid:2.16.840.1.114884.10.20"
        },
        "destination": [
          {
            "name": "25GHH",
            "endpoint": "urn:oid:2.16.840.1.114884.10.23",
            "receiver": {
              "reference": "Organization/527280c1-34d1-c639-e9ba-61986d28e266"
            }
          }
        ],
        "meta": {
          "security": [
            {
              "display": "SECURITY",
              "system": "http://example.com/v2-to-fhirconverter/security-label"
            }
          ],
          "tag": [
            {
              "code": "P",
              "system": "http://terminology.hl7.org/CodeSystem/v2-0103"
            }
          ]
        },
        "eventCoding": {
          "code": "O01",
          "system": "http://terminology.hl7.org/CodeSystem/v2-0003",
          "display": "ORM^O01^ORM_O01"
        },
        "language": "en-US",
        "sender": {
          "reference": "Organization/4356fb81-6ecd-2d70-57b1-47812638e785"
        },
        "responsible": {
          "reference": "Organization/33532a82-d220-4c0d-1abe-53e48951c201"
        }
      },
      "request": {
        "method": "PUT",
        "url": "MessageHeader/4f80efdd-5499-39ca-474f-6dca4b4f9a22"
      }
    },
    {
      "fullUrl": "urn:uuid:58988e57-a45e-285b-5942-4480980652df",
      "resource": {
        "resourceType": "Provenance",
        "id": "58988e57-a45e-285b-5942-4480980652df",
        "text": {
          "status": "generated",
          "div": "<div xmlns=\"http://www.w3.org/1999/xhtml\"><p><span>Resource bundle generated on 2022-03-24T10:00:28.918Z using Microsoft FHIR Converter.</span><span>Template Version: TEMPLATE_VERSION_PLACEHOLDER.</span><span>Template URL: https://github.com/microsoft/FHIR-Converter/releases/download/vTEMPLATE_VERSION_PLACEHOLDER/Hl7v2DefaultTemplates.tar.gz.</span><span>Root template: ORM_O01.</span></p></div>"
        },
        "occurredDateTime": "2021-10-20T11:26:00+02:15",
        "recorded": "2021-10-20T11:26:00+02:15",
        "agent": [
          {
            "type": {
              "coding": [
                {
                  "code": "author",
                  "system": "http://terminology.hl7.org/CodeSystem/provenance-participant-type"
                }
              ]
            },
            "who": {
              "reference": "Organization/33532a82-d220-4c0d-1abe-53e48951c201"
            }
          }
        ],
        "activity": {
          "coding": [
            {
              "display": "ORM^O01^ORM_O01"
            }
          ]
        },
        "entity": [
          {
            "role": "source",
            "what": {
              "reference": "Device/ad64f1d1-3e5b-a041-c1b3-3e157882ed69"
            }
          }
        ],
        "target": [
          {
            "reference": "Bundle/4d03cb6d-610f-5d9e-b9ac-f14883a17462"
          }
        ]
      },
      "request": {
        "method": "PUT",
        "url": "Provenance/58988e57-a45e-285b-5942-4480980652df"
      }
    },
    {
      "fullUrl": "urn:uuid:4356fb81-6ecd-2d70-57b1-47812638e785",
      "resource": {
        "resourceType": "Organization",
        "id": "4356fb81-6ecd-2d70-57b1-47812638e785",
        "identifier": [
          {
            "value": "GHHSFacility",
            "system": "http://example.com/v2-to-fhir-converter/assigning-authority-local-system-GHHSFacility"
          },
          {
            "value": "urn:oid:2.16.840.1.122848.1.30",
            "system": "urn:ietf:rfc:3986",
            "type": {
              "coding": [
                {
                  "code": "ISO",
                  "display": "An International Standards Organization Object Identifier (OID), in accordance with ISO/IEC 8824. Formatted as decimal digits separated by periods; recommended limit of 64 characters",
                  "system": "http://terminology.hl7.org/CodeSystem/v2-0301"
                }
              ]
            }
          }
        ],
        "partOf": {
          "reference": "Organization/33532a82-d220-4c0d-1abe-53e48951c201"
        },
        "address": [
          {
            "country": "USA"
          }
        ]
      },
      "request": {
        "method": "PUT",
        "url": "Organization/4356fb81-6ecd-2d70-57b1-47812638e785"
      }
    },
    {
      "fullUrl": "urn:uuid:62781ad6-3896-cb63-0178-ead0c4a432b5",
      "resource": {
        "resourceType": "Organization",
        "id": "62781ad6-3896-cb63-0178-ead0c4a432b5",
        "identifier": [
          {
            "value": "GHHRFacility",
            "system": "http://example.com/v2-to-fhir-converter/assigning-authority-local-system-GHHRFacility"
          },
          {
            "value": "urn:oid:2.16.840.1.1122848.1.32",
            "system": "urn:ietf:rfc:3986",
            "type": {
              "coding": [
                {
                  "code": "ISO",
                  "display": "An International Standards Organization Object Identifier (OID), in accordance with ISO/IEC 8824. Formatted as decimal digits separated by periods; recommended limit of 64 characters",
                  "system": "http://terminology.hl7.org/CodeSystem/v2-0301"
                }
              ]
            }
          }
        ],
        "partOf": {
          "reference": "Organization/527280c1-34d1-c639-e9ba-61986d28e266"
        },
        "address": [
          {
            "country": "USA"
          }
        ]
      },
      "request": {
        "method": "PUT",
        "url": "Organization/62781ad6-3896-cb63-0178-ead0c4a432b5"
      }
    },
    {
      "fullUrl": "urn:uuid:33532a82-d220-4c0d-1abe-53e48951c201",
      "resource": {
        "resourceType": "Organization",
        "id": "33532a82-d220-4c0d-1abe-53e48951c201",
        "name": "22 GHH Inc."
      },
      "request": {
        "method": "PUT",
        "url": "Organization/33532a82-d220-4c0d-1abe-53e48951c201"
      }
    },
    {
      "fullUrl": "urn:uuid:527280c1-34d1-c639-e9ba-61986d28e266",
      "resource": {
        "resourceType": "Organization",
        "id": "527280c1-34d1-c639-e9ba-61986d28e266",
        "name": "23 GHH Inc."
      },
      "request": {
        "method": "PUT",
        "url": "Organization/527280c1-34d1-c639-e9ba-61986d28e266"
      }
    },
    {
      "fullUrl": "urn:uuid:ad64f1d1-3e5b-a041-c1b3-3e157882ed69",
      "resource": {
        "resourceType": "Device",
        "id": "ad64f1d1-3e5b-a041-c1b3-3e157882ed69",
        "identifier": [
          {
            "value": "ORDApp"
          }
        ]
      },
      "request": {
        "method": "PUT",
        "url": "Device/ad64f1d1-3e5b-a041-c1b3-3e157882ed69"
      }
    },
    {
      "fullUrl": "urn:uuid:9e909e52-61a1-be50-1878-a12ef8c36346",
      "resource": {
        "resourceType": "Patient",
        "id": "9e909e52-61a1-be50-1878-a12ef8c36346",
        "identifier": [
          {
            "value": "1234567",
            "type": {
              "coding": [
                {
                  "code": "MR",
                  "system": "http://terminology.hl7.org/CodeSystem/v2-0203",
                  "display": "Medical record number"
                }
              ]
            },
            "system": "http://example.com/v2-to-fhir-converter/assigning-authority-local-system-test",
            "period": {
              "start": "1924-10-11",
              "end": "1924-10-12"
            }
          },
          {
            "value": "PATID1234",
            "type": {
              "coding": [
                {
                  "code": "MR",
                  "system": "http://terminology.hl7.org/CodeSystem/v2-0203",
                  "display": "Medical record number"
                }
              ]
            },
            "system": "http://example.com/v2-to-fhir-converter/assigning-authority-universal-system-HCD",
            "assigner": {
              "reference": "Organization/b3ad3a9f-d4f6-4638-0a09-2da771733488"
            }
          },
          {
            "value": "123456789",
            "type": {
              "coding": [
                {
                  "code": "SS",
                  "system": "http://terminology.hl7.org/CodeSystem/v2-0203",
                  "display": "Social Security number"
                }
              ]
            },
            "system": "http://example.com/v2-to-fhir-converter/assigning-authority-local-system-USSSA"
          },
          {
            "value": "PATID567",
            "system": "http://example.com/v2-to-fhir-converter/assigning-authority-local-system-test2"
          },
          {
            "value": "PSSN123121234",
            "type": {
              "coding": [
                {
                  "code": "SB",
                  "system": "http://terminology.hl7.org/CodeSystem/v2-0203"
                }
              ]
            },
            "system": "http://hl7.org/fhir/sid/us-ssn"
          },
          {
            "value": "DLN-123",
            "type": {
              "coding": [
                {
                  "code": "DL"
                }
              ]
            },
            "system": "http://example.com/v2-to-fhir-converter/CodeSystem/US",
            "period": {
              "end": "2001-01-23"
            }
          }
        ],
        "name": [
          {
            "family": "EVERYMAN",
            "given": [
              "ADAM",
              "A",
              "Addsm"
            ],
            "suffix": [
              "III",
              "MD",
              "PF"
            ],
            "prefix": [
              "Dr."
            ],
            "use": "usual",
            "period": {
              "start": "1924-10-12"
            }
          },
          {
            "family": "Josh",
            "given": [
              "stanley"
            ],
            "use": "official",
            "period": {
              "start": "1924-10-10",
              "end": "1924-10-15"
            }
          },
          {
            "family": "elbert",
            "given": [
              "Son"
            ]
          }
        ],
        "birthDate": "1988-08-18",
        "_birthDate": {
          "extension": [
            {
              "url": "http://hl7.org/fhir/StructureDefinition/patient-birthTime",
              "valueDateTime": "1988-08-18T11:26:00+02:15"
            }
          ]
        },
        "gender": "male",
        "address": [
          {
            "line": [
              "1000",
              "Hospital Lane",
              "Ste. 123",
              "Near Highway"
            ],
            "city": "Ann Arbor ",
            "state": "MI",
            "postalCode": "99999",
            "country": "USA",
            "type": "postal",
            "district": "W",
            "period": {
              "start": "2000-01-10",
              "end": "2000-01-20"
            }
          }
        ],
        "telecom": [
          {
            "value": "2222",
            "system": "phone",
            "period": {
              "start": "2001-01-10",
              "end": "2002-01-10"
            },
            "rank": 18,
            "use": "home"
          },
          {
            "value": "12121212",
            "system": "phone",
            "use": "home"
          },
          {
            "value": "7777",
            "system": "phone",
            "use": "work"
          },
          {
            "value": "1111",
            "system": "other",
            "use": "work"
          },
          {
            "value": "89898989",
            "use": "work",
            "system": "email"
          }
        ],
        "communication": [
          {
            "language": {
              "coding": [
                {
                  "code": "ar",
                  "display": "Arabic",
                  "system": "urn:ietf:bcp:47",
                  "version": "v2"
                },
                {
                  "code": "en",
                  "display": "English",
                  "system": "urn:ietf:bcp:47",
                  "version": "v2.1"
                }
              ],
              "text": "TextInEnglish"
            },
            "preferred": true
          }
        ],
        "maritalStatus": {
          "coding": [
            {
              "code": "M",
              "display": "Married",
              "system": "http://terminology.hl7.org/CodeSystem/v3-MaritalStatus"
            }
          ]
        },
        "multipleBirthInteger": 2,
        "deceasedDateTime": "2008-08-25T11:16:30+01:15",
        "meta": {
          "lastUpdated": "2005-01-10T01:50:14+03:15"
        },
        "extension": [
          {
            "url": "http://hl7.org/fhir/us/core/StructureDefinition/us-core-race",
            "extension": [
              {
                "url": "ombCategory",
                "valueCoding": {
                  "code": "2106-3",
                  "display": "White",
                  "system": "urn:oid:2.16.840.1.113883.6.238"
                }
              },
              {
                "url": "ombCategory",
                "valueCoding": {
                  "code": "2028-9",
                  "display": "Asian",
                  "system": "urn:oid:2.16.840.1.113883.6.238"
                }
              },
              {
                "url": "text",
                "valueString": "White+Asian"
              }
            ]
          },
          {
            "url": "http://hl7.org/fhir/StructureDefinition/patient-mothersMaidenName",
            "valueString": "SMITH--Angela--L"
          },
          {
            "url": "http://hl7.org/fhir/StructureDefinition/patient-birthPlace",
            "valueAddress": {
              "text": "St. Francis Community Hospital of Lower South Side"
            }
          },
          {
            "url": "http://hl7.org/fhir/StructureDefinition/patient-religion",
            "valueCodeableConcept": {
              "coding": [
                {
                  "code": "1002",
                  "display": "African Religions",
                  "system": "http://terminology.hl7.org/CodeSystem/v3-ReligiousAffiliation"
                }
              ]
            }
          },
          {
            "url": "http://hl7.org/fhir/us/core/StructureDefinition/us-core-ethnicity",
            "extension": [
              {
                "url": "ombCategory",
                "valueCoding": {
                  "code": "2186-5",
                  "display": "Non Hispanic or Latino",
                  "system": "urn:oid:2.16.840.1.113883.6.238"
                }
              },
              {
                "url": "text",
                "valueString": "Non Hispanic or Latino"
              }
            ]
          },
          {
            "url": "http://hl7.org/fhir/StructureDefinition/patient-citizenship",
            "extension": [
              {
                "url": "code",
                "valueCodeableConcept": {
                  "coding": [
                    {
                      "code": "US",
                      "display": "United States of America",
                      "system": "urn:iso:std:iso:3166"
                    }
                  ],
                  "text": "United States of America"
                }
              }
            ]
          },
          {
            "url": "http://hl7.org/fhir/StructureDefinition/patient-citizenship",
            "extension": [
              {
                "url": "code",
                "valueCodeableConcept": {
                  "coding": [
                    {
                      "code": "CA",
                      "display": "Canada",
                      "system": "urn:iso:std:iso:3166"
                    }
                  ],
                  "text": "Canada"
                }
              }
            ]
          }
        ],
        "contact": [
          {
            "name": {
              "family": "Doe",
              "given": [
                "Rosallie"
              ]
            },
            "address": {
              "line": [
                "115 MAINSTREET"
              ],
              "city": "GOODTOWN",
              "state": "KY",
              "postalCode": "42010",
              "country": "USA"
            },
            "telecom": [
              {
                "value": "(608)271-9001",
                "use": "work",
                "system": "phone"
              }
            ],
            "relationship": [
              {
                "coding": [
                  {
                    "code": "C",
                    "display": "Emergency Contact",
                    "system": "http://terminology.hl7.org/CodeSystem/v2-0131"
                  }
                ]
              }
            ]
          }
        ]
      },
      "request": {
        "method": "PUT",
        "url": "Patient/9e909e52-61a1-be50-1878-a12ef8c36346"
      }
    },
    {
      "fullUrl": "urn:uuid:4ad7c7d0-b69a-0653-9ea9-0979b8a66b39",
      "resource": {
        "resourceType": "Account",
        "id": "4ad7c7d0-b69a-0653-9ea9-0979b8a66b39",
        "identifier": [
          {
            "value": "4000776",
            "type": {
              "coding": [
                {
                  "code": "VN",
                  "system": "http://terminology.hl7.org/CodeSystem/v2-0203",
                  "display": "Visit number"
                }
              ]
            },
            "system": "urn:oid:1.3.6.1.4.1.44750.1.2.2",
            "assigner": {
              "reference": "Organization/816e4ec3-f5a6-5969-08c8-a71ef576263e"
            },
            "period": {
              "start": "1924-10-11",
              "end": "1924-10-12"
            }
          }
        ],
        "status": "active",
        "subject": [
          {
            "reference": "Patient/9e909e52-61a1-be50-1878-a12ef8c36346"
          }
        ]
      },
      "request": {
        "method": "PUT",
        "url": "Account/4ad7c7d0-b69a-0653-9ea9-0979b8a66b39"
      }
    },
    {
      "fullUrl": "urn:uuid:816e4ec3-f5a6-5969-08c8-a71ef576263e",
      "resource": {
        "resourceType": "Organization",
        "id": "816e4ec3-f5a6-5969-08c8-a71ef576263e",
        "identifier": [
          {
            "value": "AccMgr",
            "system": "http://example.com/v2-to-fhir-converter/assigning-authority-local-system-AccMgr"
          },
          {
            "value": "urn:oid:1.3.6.1.4.1.44750.1.2.2",
            "system": "urn:ietf:rfc:3986",
            "type": {
              "coding": [
                {
                  "code": "ISO",
                  "display": "An International Standards Organization Object Identifier (OID), in accordance with ISO/IEC 8824. Formatted as decimal digits separated by periods; recommended limit of 64 characters",
                  "system": "http://terminology.hl7.org/CodeSystem/v2-0301"
                }
              ]
            }
          }
        ]
      },
      "request": {
        "method": "PUT",
        "url": "Organization/816e4ec3-f5a6-5969-08c8-a71ef576263e"
      }
    },
    {
      "fullUrl": "urn:uuid:b3ad3a9f-d4f6-4638-0a09-2da771733488",
      "resource": {
        "resourceType": "Organization",
        "id": "b3ad3a9f-d4f6-4638-0a09-2da771733488",
        "identifier": [
          {
            "value": "test1",
            "system": "http://example.com/v2-to-fhir-converter/assigning-authority-local-system-test1"
          },
          {
            "value": "2.16.1",
            "system": "http://example.com/v2-to-fhir-converter/assigning-authority-universal-system-HCD",
            "type": {
              "coding": [
                {
                  "code": "HCD",
                  "display": "The CEN Healthcare Coding Scheme Designator",
                  "system": "http://terminology.hl7.org/CodeSystem/v2-0301"
                }
              ]
            }
          }
        ]
      },
      "request": {
        "method": "PUT",
        "url": "Organization/b3ad3a9f-d4f6-4638-0a09-2da771733488"
      }
    },
    {
      "fullUrl": "urn:uuid:f3954ae4-dec6-f114-1b9e-3a8a85d93f99",
      "resource": {
        "resourceType": "Organization",
        "id": "f3954ae4-dec6-f114-1b9e-3a8a85d93f99",
        "identifier": [
          {
            "value": "NTH",
            "system": "http://example.com/v2-to-fhir-converter/assigning-authority-local-system-NTH"
          },
          {
            "value": "rt23",
            "system": "http://example.com/v2-to-fhir-converter/assigning-authority-universal-system-HCD",
            "type": {
              "coding": [
                {
                  "code": "HCD",
                  "display": "The CEN Healthcare Coding Scheme Designator",
                  "system": "http://terminology.hl7.org/CodeSystem/v2-0301"
                }
              ]
            }
          }
        ]
      },
      "request": {
        "method": "PUT",
        "url": "Organization/f3954ae4-dec6-f114-1b9e-3a8a85d93f99"
      }
    },
    {
      "fullUrl": "urn:uuid:62b2e1ee-a272-4ffe-692e-a1fbfd49af6a",
      "resource": {
        "resourceType": "RelatedPerson",
        "id": "62b2e1ee-a272-4ffe-692e-a1fbfd49af6a",
        "identifier": [
          {
            "value": "1212121",
            "type": {
              "coding": [
                {
                  "code": "AND",
                  "system": "http://terminology.hl7.org/CodeSystem/v2-0203",
                  "display": "Account number debitor"
                }
              ]
            },
            "system": "http://example.com/v2-to-fhir-converter/assigning-authority-universal-system-HCD",
            "assigner": {
              "reference": "Organization/f3954ae4-dec6-f114-1b9e-3a8a85d93f99"
            },
            "period": {
              "start": "1924-10-11",
              "end": "1924-10-12"
            }
          }
        ],
        "relationship": [
          {
            "coding": [
              {
                "code": "MTH",
                "system": "http://terminology.hl7.org/CodeSystem/v3-RoleCode"
              }
            ]
          }
        ],
        "patient": {
          "reference": "Patient/9e909e52-61a1-be50-1878-a12ef8c36346"
        }
      },
      "request": {
        "method": "PUT",
        "url": "RelatedPerson/62b2e1ee-a272-4ffe-692e-a1fbfd49af6a"
      }
    },
    {
      "fullUrl": "urn:uuid:d00df304-17fa-8d9a-bd02-3276b1781ea1",
      "resource": {
        "resourceType": "Practitioner",
        "id": "d00df304-17fa-8d9a-bd02-3276b1781ea1",
        "identifier": [
          {
            "value": "0210"
          }
        ],
        "name": [
          {
            "family": "ATTEND",
            "given": [
              "AARON",
              "A"
            ]
          }
        ]
      },
      "request": {
        "method": "PUT",
        "url": "Practitioner/d00df304-17fa-8d9a-bd02-3276b1781ea1"
      }
    },
    {
      "fullUrl": "urn:uuid:21d5ab8b-8f3d-4fd9-f1c4-6f32568b0ae9",
      "resource": {
        "resourceType": "Practitioner",
        "id": "21d5ab8b-8f3d-4fd9-f1c4-6f32568b0ae9",
        "identifier": [
          {
            "value": "0310"
          }
        ],
        "name": [
          {
            "family": "REFER",
            "given": [
              "LINDA",
              "C"
            ]
          }
        ]
      },
      "request": {
        "method": "PUT",
        "url": "Practitioner/21d5ab8b-8f3d-4fd9-f1c4-6f32568b0ae9"
      }
    },
    {
      "fullUrl": "urn:uuid:6c138e7c-e841-af07-8948-d01692bd2739",
      "resource": {
        "resourceType": "Practitioner",
        "id": "6c138e7c-e841-af07-8948-d01692bd2739",
        "identifier": [
          {
            "value": "03410"
          }
        ],
        "name": [
          {
            "family": "ADMIT",
            "given": [
              "LINDA",
              "C"
            ]
          }
        ]
      },
      "request": {
        "method": "PUT",
        "url": "Practitioner/6c138e7c-e841-af07-8948-d01692bd2739"
      }
    },
    {
      "fullUrl": "urn:uuid:578b3a9e-69b0-7046-701d-3aadf2ba2022",
      "resource": {
        "resourceType": "Location",
        "id": "578b3a9e-69b0-7046-701d-3aadf2ba2022",
        "name": "RADUnit01",
        "mode": "instance",
        "description": "RADUnit01--Room01--GHH",
        "physicalType": {
          "coding": [
            {
              "system": "http://terminology.hl7.org/CodeSystem/location-physical-type",
              "code": "lvl"
            }
          ]
        }
      },
      "request": {
        "method": "PUT",
        "url": "Location/578b3a9e-69b0-7046-701d-3aadf2ba2022"
      }
    },
    {
      "fullUrl": "urn:uuid:11e72a8d-af9d-fb24-34e9-ba222b8d3815",
      "resource": {
        "resourceType": "Location",
        "id": "11e72a8d-af9d-fb24-34e9-ba222b8d3815",
        "partOf": {
          "reference": "Location/578b3a9e-69b0-7046-701d-3aadf2ba2022"
        },
        "name": "Room01",
        "mode": "instance",
        "description": "RADUnit01--Room01--GHH",
        "physicalType": {
          "coding": [
            {
              "system": "http://terminology.hl7.org/CodeSystem/location-physical-type",
              "code": "ro"
            }
          ]
        }
      },
      "request": {
        "method": "PUT",
        "url": "Location/11e72a8d-af9d-fb24-34e9-ba222b8d3815"
      }
    },
    {
      "fullUrl": "urn:uuid:48ad86fa-8ca5-e5a5-0179-caaa5005e4a3",
      "resource": {
        "resourceType": "Location",
        "id": "48ad86fa-8ca5-e5a5-0179-caaa5005e4a3",
        "name": "GHH",
        "mode": "instance",
        "description": "RADUnit01--Room01--GHH",
        "physicalType": {
          "coding": [
            {
              "system": "http://terminology.hl7.org/CodeSystem/location-physical-type",
              "code": "si"
            }
          ]
        }
      },
      "request": {
        "method": "PUT",
        "url": "Location/48ad86fa-8ca5-e5a5-0179-caaa5005e4a3"
      }
    },
    {
      "fullUrl": "urn:uuid:b3e7e8ab-7696-b555-ad2d-db9566b2a249",
      "resource": {
        "resourceType": "Location",
        "id": "b3e7e8ab-7696-b555-ad2d-db9566b2a249",
        "name": "TraumaCentre",
        "mode": "instance",
        "description": "TraumaCentre--ROOM1--2.16.840.1.113883.4.642.1.1108--ISO--GHH1",
        "physicalType": {
          "coding": [
            {
              "system": "http://terminology.hl7.org/CodeSystem/location-physical-type",
              "code": "lvl"
            }
          ]
        }
      },
      "request": {
        "method": "PUT",
        "url": "Location/b3e7e8ab-7696-b555-ad2d-db9566b2a249"
      }
    },
    {
      "fullUrl": "urn:uuid:a84e4df0-81ee-5e6e-3cf5-8ae8e203702c",
      "resource": {
        "resourceType": "Location",
        "id": "a84e4df0-81ee-5e6e-3cf5-8ae8e203702c",
        "partOf": {
          "reference": "Location/b3e7e8ab-7696-b555-ad2d-db9566b2a249"
        },
        "name": "ROOM1",
        "identifier": [
          {
            "value": "urn:oid:2.16.840.1.113883.4.642.1.1108",
            "system": "urn:ietf:rfc:3986"
          }
        ],
        "mode": "instance",
        "description": "TraumaCentre--ROOM1--2.16.840.1.113883.4.642.1.1108--ISO--GHH1",
        "physicalType": {
          "coding": [
            {
              "system": "http://terminology.hl7.org/CodeSystem/location-physical-type",
              "code": "ro"
            }
          ]
        }
      },
      "request": {
        "method": "PUT",
        "url": "Location/a84e4df0-81ee-5e6e-3cf5-8ae8e203702c"
      }
    },
    {
      "fullUrl": "urn:uuid:ac02d40f-1a1d-6502-6fd4-80c4432fded9",
      "resource": {
        "resourceType": "Location",
        "id": "ac02d40f-1a1d-6502-6fd4-80c4432fded9",
        "name": "GHH1",
        "mode": "instance",
        "description": "TraumaCentre--ROOM1--2.16.840.1.113883.4.642.1.1108--ISO--GHH1",
        "physicalType": {
          "coding": [
            {
              "system": "http://terminology.hl7.org/CodeSystem/location-physical-type",
              "code": "si"
            }
          ]
        }
      },
      "request": {
        "method": "PUT",
        "url": "Location/ac02d40f-1a1d-6502-6fd4-80c4432fded9"
      }
    },
    {
      "fullUrl": "urn:uuid:da6f322f-ef5e-4f2c-c1f8-6e38dffbf995",
      "resource": {
        "resourceType": "Encounter",
        "id": "da6f322f-ef5e-4f2c-c1f8-6e38dffbf995",
        "class": {
          "code": "AMB",
          "display": "ambulatory",
          "system": "http://terminology.hl7.org/CodeSystem/v3-ActCode"
        },
        "status": "in-progress",
        "location": [
          {
            "status": "active",
            "location": {
              "reference": "Location/578b3a9e-69b0-7046-701d-3aadf2ba2022"
            }
          },
          {
            "status": "completed",
            "location": {
              "reference": "Location/b3e7e8ab-7696-b555-ad2d-db9566b2a249"
            }
          }
        ],
        "participant": [
          {
            "type": [
              {
                "coding": [
                  {
                    "code": "ATND",
                    "system": "http://terminology.hl7.org/CodeSystem/v3-ParticipationType",
                    "display": "attender"
                  }
                ]
              }
            ],
            "individual": {
              "reference": "Practitioner/d00df304-17fa-8d9a-bd02-3276b1781ea1"
            }
          },
          {
            "type": [
              {
                "coding": [
                  {
                    "code": "REF",
                    "system": "http://terminology.hl7.org/CodeSystem/v3-ParticipationType"
                  }
                ],
                "text": "referrer"
              }
            ],
            "individual": {
              "reference": "Practitioner/21d5ab8b-8f3d-4fd9-f1c4-6f32568b0ae9"
            }
          },
          {
            "type": [
              {
                "coding": [
                  {
                    "code": "ADM",
                    "system": "http://terminology.hl7.org/CodeSystem/v3-ParticipationType"
                  }
                ],
                "text": "admitter"
              }
            ],
            "individual": {
              "reference": "Practitioner/6c138e7c-e841-af07-8948-d01692bd2739"
            }
          }
        ],
        "identifier": [
          {
            "value": "5001",
            "system": "http://example.com/v2-to-fhir-converter/assigning-authority-local-system-AccMgr",
            "type": {
              "coding": [
                {
                  "code": "VN",
                  "system": "http://terminology.hl7.org/CodeSystem/v2-0203"
                }
              ],
              "text": "visit number"
            }
          }
        ],
        "period": {
          "start": "2021-10-20T12:00:00+02:15"
        },
        "text": {
          "status": "generated",
          "div": "<div xmlns=\"http://www.w3.org/1999/xhtml\"><p><span>Visit Description: </span></p></div>"
        },
        "account": [
          {
            "reference": "Account/4ad7c7d0-b69a-0653-9ea9-0979b8a66b39"
          }
        ],
        "subject": {
          "reference": "Patient/9e909e52-61a1-be50-1878-a12ef8c36346"
        },
        "diagnosis": [
          {
            "condition": {
              "reference": "Condition/97303ad2-9731-b8ac-465e-560ad9ac67ec"
            },
            "use": {
              "coding": [
                {
                  "code": "DD",
                  "display": "Discharge Diagnosis",
                  "system": "http://terminology.hl7.org/CodeSystem/diagnosis-role"
                }
              ]
            },
            "rank": 1
          }
        ]
      },
      "request": {
        "method": "PUT",
        "url": "Encounter/da6f322f-ef5e-4f2c-c1f8-6e38dffbf995"
      }
    },
    {
      "fullUrl": "urn:uuid:a0adcda8-0b28-d089-1955-c04308d5fe28",
      "resource": {
        "resourceType": "AllergyIntolerance",
        "id": "a0adcda8-0b28-d089-1955-c04308d5fe28",
        "category": [
          "environment"
        ],
        "type": "allergy",
        "code": {
          "coding": [
            {
              "code": "P",
              "display": "PENICILLIN",
              "system": "http://terminology.hl7.org/CodeSystem/icd-o"
            }
          ]
        },
        "reaction": [
          {
            "manifestation": [
              {
                "text": "CODE16"
              }
            ],
            "onset": "2021-08-24"
          }
        ],
        "criticality": "low",
        "clinicalStatus": {
          "coding": [
            {
              "code": "active",
              "display": "Active",
              "system": "http://terminology.hl7.org/CodeSystem/allergyintolerance-clinical"
            }
          ]
        },
        "patient": {
          "reference": "Patient/9e909e52-61a1-be50-1878-a12ef8c36346"
        }
      },
      "request": {
        "method": "PUT",
        "url": "AllergyIntolerance/a0adcda8-0b28-d089-1955-c04308d5fe28"
      }
    },
    {
      "fullUrl": "urn:uuid:593d8946-c0ad-b912-332a-2993c02ccae5",
      "resource": {
        "resourceType": "ServiceRequest",
        "id": "593d8946-c0ad-b912-332a-2993c02ccae5",
        "status": "active",
        "intent": "order",
        "identifier": [
          {
            "value": "1101",
            "system": "http://example.com/v2-to-fhir-converter/local-entity-identifier-GHHPlacer",
            "type": {
              "coding": [
                {
                  "code": "PLAC",
                  "system": "http://terminology.hl7.org/CodeSystem/v2-0203"
                }
              ]
            }
          },
          {
            "value": "1201",
            "system": "http://example.com/v2-to-fhir-converter/local-entity-identifier-GHHFiller",
            "type": {
              "coding": [
                {
                  "code": "FILL",
                  "system": "http://terminology.hl7.org/CodeSystem/v2-0203"
                }
              ]
            }
          }
        ],
        "authoredOn": "2021-10-20T11:26:00+02:15",
        "basedOn": [
          {
            "type": "ServiceRequest",
            "identifier": {
              "value": "FAI-29",
              "type": {
                "coding": [
                  {
                    "code": "FILL",
                    "system": "http://terminology.hl7.org/CodeSystem/v2-0203"
                  }
                ]
              }
            }
          }
        ],
        "locationCode": [
          {
            "coding": [
              {
                "code": "OF",
                "display": "Outpatient facility",
                "system": "http://terminology.hl7.org/CodeSystem/v3-RoleCode"
              }
            ]
          }
        ],
        "note": [
          {
            "text": "Annotation text"
          }
        ],
        "quantityQuantity": {
          "value": 12,
          "unit": "lb"
        },
        "occurrenceTiming": {
          "code": {
            "coding": [
              {
                "code": "BID"
              }
            ]
          },
          "repeat": {
            "duration": 50,
            "durationUnit": "s",
            "count": 21,
            "timeOfDay": [
              "12:30:05"
            ],
            "boundsPeriod": {
              "start": "2002-03-15",
              "end": "2003-03-15"
            }
          }
        },
        "code": {
          "coding": [
            {
              "code": "24725-4",
              "display": "CT Head",
              "system": "http://loinc.org"
            }
          ]
        },
        "subject": {
          "reference": "Patient/9e909e52-61a1-be50-1878-a12ef8c36346"
        },
        "requester": {
          "reference": "PractitionerRole/d47a42cd-ee8d-858a-81ba-093cd6c2b737"
        },
        "specimen": [
          {
            "reference": "Specimen/6158edb0-9ff7-8872-c1ec-a897e3af065b"
          }
        ],
        "reasonReference": [
          {
            "reference": "Condition/97303ad2-9731-b8ac-465e-560ad9ac67ec"
          }
        ]
      },
      "request": {
        "method": "PUT",
        "url": "ServiceRequest/593d8946-c0ad-b912-332a-2993c02ccae5"
      }
    },
    {
      "fullUrl": "urn:uuid:98f6382a-649f-0339-4fa8-982d9760cf42",
      "resource": {
        "resourceType": "Practitioner",
        "id": "98f6382a-649f-0339-4fa8-982d9760cf42",
        "identifier": [
          {
            "value": "005454"
          }
        ],
        "name": [
          {
            "family": "RAD",
            "given": [
              "ROBIN",
              "B"
            ]
          }
        ]
      },
      "request": {
        "method": "PUT",
        "url": "Practitioner/98f6382a-649f-0339-4fa8-982d9760cf42"
      }
    },
    {
      "fullUrl": "urn:uuid:d47a42cd-ee8d-858a-81ba-093cd6c2b737",
      "resource": {
        "resourceType": "PractitionerRole",
        "id": "d47a42cd-ee8d-858a-81ba-093cd6c2b737",
        "code": [
          {
            "coding": [
              {
                "code": "ordering-provider",
                "display": "Ordering Provider",
                "system": "http://example.com/v2-to-fhir-converter/CodeSystem/PractitionerRole"
              }
            ]
          }
        ],
        "practitioner": {
          "reference": "Practitioner/98f6382a-649f-0339-4fa8-982d9760cf42"
        }
      },
      "request": {
        "method": "PUT",
        "url": "PractitionerRole/d47a42cd-ee8d-858a-81ba-093cd6c2b737"
      }
    },
    {
      "fullUrl": "urn:uuid:6158edb0-9ff7-8872-c1ec-a897e3af065b",
      "resource": {
        "resourceType": "Specimen",
        "id": "6158edb0-9ff7-8872-c1ec-a897e3af065b",
        "collection": {
          "collectedDateTime": "2021-10-20T12:00:00+02:15"
        }
      },
      "request": {
        "method": "PUT",
        "url": "Specimen/6158edb0-9ff7-8872-c1ec-a897e3af065b"
      }
    },
    {
      "fullUrl": "urn:uuid:97303ad2-9731-b8ac-465e-560ad9ac67ec",
      "resource": {
        "resourceType": "Condition",
        "id": "97303ad2-9731-b8ac-465e-560ad9ac67ec",
        "code": {
          "coding": [
            {
              "code": "S06.9",
              "display": "TBI(traumatic brain injury",
              "system": "http://hl7.org/fhir/sid/icd-10"
            }
          ],
          "text": "Traumatic brain injury"
        },
        "onsetDateTime": "2020-05-01T12:30:09+02:15",
        "identifier": [
          {
            "value": "DG1002"
          }
        ],
        "asserter": {
          "reference": "Practitioner/98f6382a-649f-0339-4fa8-982d9760cf42"
        },
        "subject": {
          "reference": "Patient/9e909e52-61a1-be50-1878-a12ef8c36346"
        },
        "extension": [
          {
            "url": "http://hl7.org/fhir/StructureDefinition/condition-assertedDate",
            "valueDateTime": "2020-05-01T13:30:15+02:15"
          }
        ]
      },
      "request": {
        "method": "PUT",
        "url": "Condition/97303ad2-9731-b8ac-465e-560ad9ac67ec"
      }
    }
  ]
}