{
    "resourceType": "Bundle",
    "type": "batch",
    "timestamp": "1989-08-18T14:41:00+05:30",
    "identifier": {
        "value": "MSG00001"
    },
    "id": "513a3d06-5e87-6fbc-ad1b-170ab430499f",
    "entry": [
        {
            "fullUrl": "urn:uuid:b4ca189b-51ae-33df-cbe2-559b4423a321",
            "resource": {
                "resourceType": "MessageHeader",
                "id": "b4ca189b-51ae-33df-cbe2-559b4423a321",
                "source": {
                    "name": "24GHH",
                    "endpoint": "urn:oid:2.16.840.1.114884.10.20"
                },
                "destination": [
                    {
                        "name": "25GHH",
                        "endpoint": "urn:oid:2.16.840.1.114884.10.23",
                        "receiver": {
                            "reference": "Organization/527280c1-34d1-c639-e9ba-61986d28e266"
                        }
                    }
                ],
                "meta": {
                    "security": [
                        {
                            "display": "SECURITY",
                            "system": "http://example.com/v2-to-fhirconverter/security-label"
                        }
                    ],
                    "tag": [
                        {
                            "code": "P",
                            "system": "http://terminology.hl7.org/CodeSystem/v2-0103"
                        }
                    ]
                },
                "eventCoding": {
                    "code": "A08",
                    "system": "http://terminology.hl7.org/CodeSystem/v2-0003",
                    "display": "ADT^A08^ADT_A08"
                },
                "language": "en-US",
                "sender": {
                    "reference": "Organization/4356fb81-6ecd-2d70-57b1-47812638e785"
                },
                "responsible": {
                    "reference": "Organization/33532a82-d220-4c0d-1abe-53e48951c201"
                }
            },
            "request": {
                "method": "PUT",
                "url": "MessageHeader/b4ca189b-51ae-33df-cbe2-559b4423a321"
            }
        },
        {
            "fullUrl": "urn:uuid:f65d2168-02c8-1897-210d-361176172856",
            "resource": {
                "resourceType": "Provenance",
                "id": "f65d2168-02c8-1897-210d-361176172856",
                "text": {
                    "status": "generated",
                    "div": "<div xmlns=\"http://www.w3.org/1999/xhtml\"><p><span>Resource bundle generated on 2021-10-07T13:01:37.828Z using Microsoft FHIR Converter.</span><span>Template Version: TEMPLATE_VERSION_PLACEHOLDER.</span><span>Template URL: https://github.com/microsoft/FHIR-Converter/releases/download/vTEMPLATE_VERSION_PLACEHOLDER/Hl7v2DefaultTemplates.tar.gz.</span><span>Root template: ADT_A08.</span></p></div>"
                },
                "occurredDateTime": "1989-08-18T14:41:00+05:30",
                "recorded": "1989-08-18T14:41:00+05:30",
                "agent": [
                    {
                        "type": {
                            "coding": [
                                {
                                    "code": "author",
                                    "system": "http://terminology.hl7.org/CodeSystem/provenance-participant-type"
                                }
                            ]
                        },
                        "who": {
                            "reference": "Organization/33532a82-d220-4c0d-1abe-53e48951c201"
                        }
                    }
                ],
                "activity": {
                    "coding": [
                        {
                            "display": "ADT^A08^ADT_A08"
                        }
                    ]
                },
                "entity": [
                    {
                        "role": "source",
                        "what": {
                            "reference": "Device/503eb873-22fb-8199-ae28-3604ad59fe13"
                        }
                    }
                ],
                "target": [
                    {
                        "reference": "Bundle/513a3d06-5e87-6fbc-ad1b-170ab430499f"
                    }
                ]
            },
            "request": {
                "method": "PUT",
                "url": "Provenance/f65d2168-02c8-1897-210d-361176172856"
            }
        },
        {
            "fullUrl": "urn:uuid:4356fb81-6ecd-2d70-57b1-47812638e785",
            "resource": {
                "resourceType": "Organization",
                "id": "4356fb81-6ecd-2d70-57b1-47812638e785",
                "identifier": [
                    {
                        "value": "GHHSFacility",
                        "system": "http://example.com/v2-to-fhir-converter/assigning-authority-local-system-GHHSFacility"
                    },
                    {
                        "value": "urn:oid:2.16.840.1.122848.1.30",
                        "system": "urn:ietf:rfc:3986",
                        "type": {
                            "coding": [
                                {
                                    "code": "ISO",
                                    "display": "An International Standards Organization Object Identifier (OID), in accordance with ISO/IEC 8824. Formatted as decimal digits separated by periods; recommended limit of 64 characters",
                                    "system": "http://terminology.hl7.org/CodeSystem/v2-0301"
                                }
                            ]
                        }
                    }
                ],
                "partOf": {
                    "reference": "Organization/33532a82-d220-4c0d-1abe-53e48951c201"
                },
                "address": [
                    {
                        "country": "USA"
                    }
                ]
            },
            "request": {
                "method": "PUT",
                "url": "Organization/4356fb81-6ecd-2d70-57b1-47812638e785"
            }
        },
        {
            "fullUrl": "urn:uuid:62781ad6-3896-cb63-0178-ead0c4a432b5",
            "resource": {
                "resourceType": "Organization",
                "id": "62781ad6-3896-cb63-0178-ead0c4a432b5",
                "identifier": [
                    {
                        "value": "GHHRFacility",
                        "system": "http://example.com/v2-to-fhir-converter/assigning-authority-local-system-GHHRFacility"
                    },
                    {
                        "value": "urn:oid:2.16.840.1.1122848.1.32",
                        "system": "urn:ietf:rfc:3986",
                        "type": {
                            "coding": [
                                {
                                    "code": "ISO",
                                    "display": "An International Standards Organization Object Identifier (OID), in accordance with ISO/IEC 8824. Formatted as decimal digits separated by periods; recommended limit of 64 characters",
                                    "system": "http://terminology.hl7.org/CodeSystem/v2-0301"
                                }
                            ]
                        }
                    }
                ],
                "partOf": {
                    "reference": "Organization/527280c1-34d1-c639-e9ba-61986d28e266"
                },
                "address": [
                    {
                        "country": "USA"
                    }
                ]
            },
            "request": {
                "method": "PUT",
                "url": "Organization/62781ad6-3896-cb63-0178-ead0c4a432b5"
            }
        },
        {
            "fullUrl": "urn:uuid:33532a82-d220-4c0d-1abe-53e48951c201",
            "resource": {
                "resourceType": "Organization",
                "id": "33532a82-d220-4c0d-1abe-53e48951c201",
                "name": "22 GHH Inc."
            },
            "request": {
                "method": "PUT",
                "url": "Organization/33532a82-d220-4c0d-1abe-53e48951c201"
            }
        },
        {
            "fullUrl": "urn:uuid:527280c1-34d1-c639-e9ba-61986d28e266",
            "resource": {
                "resourceType": "Organization",
                "id": "527280c1-34d1-c639-e9ba-61986d28e266",
                "name": "23 GHH Inc."
            },
            "request": {
                "method": "PUT",
                "url": "Organization/527280c1-34d1-c639-e9ba-61986d28e266"
            }
        },
        {
            "fullUrl": "urn:uuid:503eb873-22fb-8199-ae28-3604ad59fe13",
            "resource": {
                "resourceType": "Device",
                "id": "503eb873-22fb-8199-ae28-3604ad59fe13",
                "identifier": [
                    {
                        "value": "ADTApp"
                    }
                ]
            },
            "request": {
                "method": "PUT",
                "url": "Device/503eb873-22fb-8199-ae28-3604ad59fe13"
            }
        },
        {
            "fullUrl": "urn:uuid:9e909e52-61a1-be50-1878-a12ef8c36346",
            "resource": {
                "resourceType": "Patient",
                "id": "9e909e52-61a1-be50-1878-a12ef8c36346",
                "identifier": [
                    {
                        "value": "1234567",
                        "type": {
                            "coding": [
                                {
                                    "code": "MR",
                                    "system": "http://terminology.hl7.org/CodeSystem/v2-0203",
                                    "display": "Medical record number"
                                }
                            ]
                        },
                        "system": "http://example.com/v2-to-fhir-converter/assigning-authority-local-system-test",
                        "period": {
                            "start": "1924-10-11",
                            "end": "1924-10-12"
                        }
                    },
                    {
                        "value": "PATID1234",
                        "type": {
                            "coding": [
                                {
                                    "code": "MR",
                                    "system": "http://terminology.hl7.org/CodeSystem/v2-0203",
                                    "display": "Medical record number"
                                }
                            ]
                        },
                        "system": "http://example.com/v2-to-fhir-converter/assigning-authority-universal-system-HCD",
                        "assigner": {
                            "reference": "Organization/b3ad3a9f-d4f6-4638-0a09-2da771733488"
                        }
                    },
                    {
                        "value": "123456789",
                        "type": {
                            "coding": [
                                {
                                    "code": "SS",
                                    "system": "http://terminology.hl7.org/CodeSystem/v2-0203",
                                    "display": "Social Security number"
                                }
                            ]
                        },
                        "system": "http://example.com/v2-to-fhir-converter/assigning-authority-local-system-USSSA"
                    },
                    {
                        "value": "PATID567",
                        "system": "http://example.com/v2-to-fhir-converter/assigning-authority-local-system-test2"
                    },
                    {
                        "value": "PSSN123121234",
                        "type": {
                            "coding": [
                                {
                                    "code": "SB",
                                    "system": "http://terminology.hl7.org/CodeSystem/v2-0203"
                                }
                            ]
                        },
                        "system": "http://hl7.org/fhir/sid/us-ssn"
                    },
                    {
                        "value": "DLN-123",
                        "type": {
                            "coding": [
                                {
                                    "code": "DL"
                                }
                            ]
                        },
                        "system": "http://example.com/v2-to-fhir-converter/CodeSystem/US",
                        "period": {
                            "end": "2001-01-23"
                        }
                    }
                ],
                "name": [
                    {
                        "family": "EVERYMAN",
                        "given": [
                            "ADAM",
                            "A",
                            "Addsm"
                        ],
                        "suffix": [
                            "III",
                            "MD",
                            "PF"
                        ],
                        "prefix": [
                            "Dr."
                        ],
                        "use": "usual",
                        "period": {
                            "start": "1924-10-12"
                        }
                    },
                    {
                        "family": "Josh",
                        "given": [
                            "stanley"
                        ],
                        "use": "official",
                        "period": {
                            "start": "1924-10-10",
                            "end": "1924-10-15"
                        }
                    },
                    {
                        "family": "elbert",
                        "given": [
                            "Son"
                        ]
                    }
                ],
                "birthDate": "1988-08-18",
                "_birthDate": {
                    "extension": [
                        {
                            "url": "http://hl7.org/fhir/StructureDefinition/patient-birthTime",
                            "valueDateTime": "1988-08-18T14:41:00+05:30"
                        }
                    ]
                },
                "gender": "male",
                "address": [
                    {
                        "line": [
                            "1000",
                            "Hospital Lane",
                            "Ste. 123",
                            "Near Highway"
                        ],
                        "city": "Ann Arbor ",
                        "state": "MI",
                        "postalCode": "99999",
                        "country": "USA",
                        "type": "postal",
                        "district": "W",
                        "period": {
                            "start": "2000-01-10",
                            "end": "2000-01-20"
                        }
                    }
                ],
                "telecom": [
                    {
                        "value": "2222",
                        "system": "phone",
                        "period": {
                            "start": "2001-01-10",
                            "end": "2002-01-10"
                        },
                        "rank": 18,
                        "use": "home"
                    },
                    {
                        "value": "12121212",
                        "system": "phone",
                        "use": "home"
                    },
                    {
                        "value": "7777",
                        "system": "phone",
                        "use": "work"
                    },
                    {
                        "value": "1111",
                        "system": "other",
                        "use": "work"
                    },
                    {
                        "value": "89898989",
                        "use": "work",
                        "system": "email"
                    }
                ],
                "communication": [
                    {
                        "language": {
                            "coding": [
                                {
                                    "code": "ar",
                                    "display": "Arabic",
                                    "system": "urn:ietf:bcp:47",
                                    "version": "v2"
                                },
                                {
                                    "code": "en",
                                    "display": "English",
                                    "system": "urn:ietf:bcp:47",
                                    "version": "v2.1"
                                }
                            ],
                            "text": "TextInEnglish"
                        },
                        "preferred": true
                    }
                ],
                "maritalStatus": {
                    "coding": [
                        {
                            "code": "M",
                            "display": "Married",
                            "system": "http://terminology.hl7.org/CodeSystem/v3-MaritalStatus"
                        }
                    ]
                },
                "multipleBirthInteger": 2,
                "deceasedDateTime": "2008-08-25T15:31:30+05:30",
                "meta": {
                    "lastUpdated": "2005-01-10T04:05:14+05:30"
                },
                "extension": [
                    {
                        "url": "http://hl7.org/fhir/us/core/StructureDefinition/us-core-race",
                        "extension": [
                            {
                                "url": "ombCategory",
                                "valueCoding": {
                                    "code": "2106-3",
                                    "display": "White",
                                    "system": "urn:oid:2.16.840.1.113883.6.238"
                                }
                            },
                            {
                                "url": "ombCategory",
                                "valueCoding": {
                                    "code": "2028-9",
                                    "display": "Asian",
                                    "system": "urn:oid:2.16.840.1.113883.6.238"
                                }
                            },
                            {
                                "url": "text",
                                "valueString": "White+Asian"
                            }
                        ]
                    },
                    {
                        "url": "http://hl7.org/fhir/StructureDefinition/patient-mothersMaidenName",
                        "valueString": "SMITH--Angela--L"
                    },
                    {
                        "url": "http://hl7.org/fhir/StructureDefinition/patient-birthPlace",
                        "valueAddress": {
                            "text": "St. Francis Community Hospital of Lower South Side"
                        }
                    },
                    {
                        "url": "http://hl7.org/fhir/StructureDefinition/patient-religion",
                        "valueCodeableConcept": {
                            "coding": [
                                {
                                    "code": "1002",
                                    "display": "African Religions",
                                    "system": "http://terminology.hl7.org/CodeSystem/v3-ReligiousAffiliation"
                                }
                            ]
                        }
                    },
                    {
                        "url": "http://hl7.org/fhir/us/core/StructureDefinition/us-core-ethnicity",
                        "extension": [
                            {
                                "url": "ombCategory",
                                "valueCoding": {
                                    "code": "2186-5",
                                    "display": "Non Hispanic or Latino",
                                    "system": "urn:oid:2.16.840.1.113883.6.238"
                                }
                            },
                            {
                                "url": "text",
                                "valueString": "Non Hispanic or Latino"
                            }
                        ]
                    },
                    {
                        "url": "http://example.com/v2-to-fhir-converter/StructureDefinition/VeteranMilitaryStatus",
                        "valueCodeableConcept": {
                            "coding": [
                                {
                                    "code": "Vet123",
                                    "display": "retired",
                                    "system": "http://example.com/v2-to-fhir-converter/CodeSystem/ART"
                                }
                            ],
                            "text": "retired"
                        }
                    },
                    {
                        "url": "http://hl7.org/fhir/StructureDefinition/patient-animal",
                        "extension": [
                            {
                                "url": "species",
                                "valueCodeableConcept": {
                                    "coding": [
                                        {
                                            "code": "125097000",
                                            "display": "Goat",
                                            "system": "http://snomed.info/sct"
                                        }
                                    ],
                                    "text": "Goat"
                                }
                            },
                            {
                                "url": "breed",
                                "valueCodeableConcept": {
                                    "coding": [
                                        {
                                            "code": "4880003",
                                            "display": "Beagle",
                                            "system": "http://snomed.info/sct"
                                        }
                                    ],
                                    "text": "Beagle"
                                }
                            }
                        ]
                    },
                    {
                        "url": "http://hl7.org/fhir/StructureDefinition/patient-citizenship",
                        "extension": [
                            {
                                "url": "code",
                                "valueCodeableConcept": {
                                    "coding": [
                                        {
                                            "code": "US",
                                            "display": "United States of America",
                                            "system": "urn:iso:std:iso:3166"
                                        }
                                    ],
                                    "text": "United States of America"
                                }
                            }
                        ]
                    },
                    {
                        "url": "http://hl7.org/fhir/StructureDefinition/patient-citizenship",
                        "extension": [
                            {
                                "url": "code",
                                "valueCodeableConcept": {
                                    "coding": [
                                        {
                                            "code": "CA",
                                            "display": "Canada",
                                            "system": "urn:iso:std:iso:3166"
                                        }
                                    ],
                                    "text": "Canada"
                                }
                            }
                        ]
                    },
                    {
                        "url": "http://hl7.org/fhir/StructureDefinition/patient-nationality",
                        "extension": [
                            {
                                "url": "code",
                                "valueCodeableConcept": {
                                    "coding": [
                                        {
                                            "code": "BT",
                                            "display": "Bhutan",
                                            "system": "urn:iso:std:iso:3166"
                                        }
                                    ],
                                    "text": "Bhutan"
                                }
                            }
                        ]
                    },
                    {
                        "url": "http://hl7.org/fhir/StructureDefinition/patient-importance",
                        "valueCodeableConcept": {
                            "coding": [
                                {
                                    "code": "VIP",
                                    "display": "Very Important Person",
                                    "system": "http://example.com/v2-to-fhir-converter/CodeSystem/L",
                                    "version": "v1.1"
                                },
                                {
                                    "code": "IMP",
                                    "system": "http://example.com/v2-to-fhir-converter/CodeSystem/DCM",
                                    "version": "v1.2"
                                }
                            ],
                            "text": "Inportant Person"
                        }
                    }
                ]
            },
            "request": {
                "method": "PUT",
                "url": "Patient/9e909e52-61a1-be50-1878-a12ef8c36346"
            }
        },
        {
            "fullUrl": "urn:uuid:78295402-9b84-4829-b945-502ab3402de5",
            "resource": {
                "resourceType": "Account",
                "id": "78295402-9b84-4829-b945-502ab3402de5",
                "identifier": [
                    {
                        "value": "4000776",
                        "type": {
                            "coding": [
                                {
                                    "code": "VN",
                                    "system": "http://terminology.hl7.org/CodeSystem/v2-0203",
                                    "display": "Visit number"
                                }
                            ]
                        },
                        "system": "urn:oid:2.4",
                        "assigner": {
                            "reference": "Organization/9d4c8327-8a28-8152-1898-8251baa707b7"
                        },
                        "period": {
                            "start": "1924-10-11",
                            "end": "1924-10-12"
                        }
                    }
                ],
                "status": "active",
                "subject": [
                    {
                        "reference": "Patient/9e909e52-61a1-be50-1878-a12ef8c36346"
                    }
                ]
            },
            "request": {
                "method": "PUT",
                "url": "Account/78295402-9b84-4829-b945-502ab3402de5"
            }
        },
        {
            "fullUrl": "urn:uuid:9d4c8327-8a28-8152-1898-8251baa707b7",
            "resource": {
                "resourceType": "Organization",
                "id": "9d4c8327-8a28-8152-1898-8251baa707b7",
                "identifier": [
                    {
                        "value": "AccMgr",
                        "system": "http://example.com/v2-to-fhir-converter/assigning-authority-local-system-AccMgr"
                    },
                    {
                        "value": "urn:oid:2.4",
                        "system": "urn:ietf:rfc:3986",
                        "type": {
                            "coding": [
                                {
                                    "code": "ISO",
                                    "display": "An International Standards Organization Object Identifier (OID), in accordance with ISO/IEC 8824. Formatted as decimal digits separated by periods; recommended limit of 64 characters",
                                    "system": "http://terminology.hl7.org/CodeSystem/v2-0301"
                                }
                            ]
                        }
                    }
                ]
            },
            "request": {
                "method": "PUT",
                "url": "Organization/9d4c8327-8a28-8152-1898-8251baa707b7"
            }
        },
        {
            "fullUrl": "urn:uuid:b3ad3a9f-d4f6-4638-0a09-2da771733488",
            "resource": {
                "resourceType": "Organization",
                "id": "b3ad3a9f-d4f6-4638-0a09-2da771733488",
                "identifier": [
                    {
                        "value": "test1",
                        "system": "http://example.com/v2-to-fhir-converter/assigning-authority-local-system-test1"
                    },
                    {
                        "value": "2.16.1",
                        "system": "http://example.com/v2-to-fhir-converter/assigning-authority-universal-system-HCD",
                        "type": {
                            "coding": [
                                {
                                    "code": "HCD",
                                    "display": "The CEN Healthcare Coding Scheme Designator",
                                    "system": "http://terminology.hl7.org/CodeSystem/v2-0301"
                                }
                            ]
                        }
                    }
                ]
            },
            "request": {
                "method": "PUT",
                "url": "Organization/b3ad3a9f-d4f6-4638-0a09-2da771733488"
            }
        },
        {
            "fullUrl": "urn:uuid:f3954ae4-dec6-f114-1b9e-3a8a85d93f99",
            "resource": {
                "resourceType": "Organization",
                "id": "f3954ae4-dec6-f114-1b9e-3a8a85d93f99",
                "identifier": [
                    {
                        "value": "NTH",
                        "system": "http://example.com/v2-to-fhir-converter/assigning-authority-local-system-NTH"
                    },
                    {
                        "value": "rt23",
                        "system": "http://example.com/v2-to-fhir-converter/assigning-authority-universal-system-HCD",
                        "type": {
                            "coding": [
                                {
                                    "code": "HCD",
                                    "display": "The CEN Healthcare Coding Scheme Designator",
                                    "system": "http://terminology.hl7.org/CodeSystem/v2-0301"
                                }
                            ]
                        }
                    }
                ]
            },
            "request": {
                "method": "PUT",
                "url": "Organization/f3954ae4-dec6-f114-1b9e-3a8a85d93f99"
            }
        },
        {
            "fullUrl": "urn:uuid:62b2e1ee-a272-4ffe-692e-a1fbfd49af6a",
            "resource": {
                "resourceType": "RelatedPerson",
                "id": "62b2e1ee-a272-4ffe-692e-a1fbfd49af6a",
                "identifier": [
                    {
                        "value": "1212121",
                        "type": {
                            "coding": [
                                {
                                    "code": "AND",
                                    "system": "http://terminology.hl7.org/CodeSystem/v2-0203",
                                    "display": "Account number debitor"
                                }
                            ]
                        },
                        "system": "http://example.com/v2-to-fhir-converter/assigning-authority-universal-system-HCD",
                        "assigner": {
                            "reference": "Organization/f3954ae4-dec6-f114-1b9e-3a8a85d93f99"
                        },
                        "period": {
                            "start": "1924-10-11",
                            "end": "1924-10-12"
                        }
                    }
                ],
                "relationship": [
                    {
                        "coding": [
                            {
                                "code": "MTH",
                                "system": "http://terminology.hl7.org/CodeSystem/v3-RoleCode"
                            }
                        ]
                    }
                ],
                "patient": {
                    "reference": "Patient/9e909e52-61a1-be50-1878-a12ef8c36346"
                }
            },
            "request": {
                "method": "PUT",
                "url": "RelatedPerson/62b2e1ee-a272-4ffe-692e-a1fbfd49af6a"
            }
        },
        {
            "fullUrl": "urn:uuid:11967e28-8dd4-a112-0fdc-377866bf12a0",
            "resource": {
                "resourceType": "Organization",
                "id": "11967e28-8dd4-a112-0fdc-377866bf12a0",
                "identifier": [
                    {
                        "value": "t",
                        "system": "http://example.com/v2-to-fhir-converter/assigning-authority-local-system-t"
                    },
                    {
                        "value": "2.16.840.1.113883.19",
                        "system": "http://example.com/v2-to-fhir-converter/assigning-authority-universal-system-HCD",
                        "type": {
                            "coding": [
                                {
                                    "code": "HCD",
                                    "display": "The CEN Healthcare Coding Scheme Designator",
                                    "system": "http://terminology.hl7.org/CodeSystem/v2-0301"
                                }
                            ]
                        }
                    }
                ]
            },
            "request": {
                "method": "PUT",
                "url": "Organization/11967e28-8dd4-a112-0fdc-377866bf12a0"
            }
        },
        {
            "fullUrl": "urn:uuid:7452d91f-ae92-d8ce-5b4a-148be5b6538e",
            "resource": {
                "resourceType": "Organization",
                "id": "7452d91f-ae92-d8ce-5b4a-148be5b6538e",
                "identifier": [
                    {
                        "value": "AccMng",
                        "system": "http://example.com/v2-to-fhir-converter/assigning-authority-local-system-AccMng"
                    },
                    {
                        "value": "1.2",
                        "system": "http://example.com/v2-to-fhir-converter/assigning-authority-universal-system-HCD",
                        "type": {
                            "coding": [
                                {
                                    "code": "HCD",
                                    "display": "The CEN Healthcare Coding Scheme Designator",
                                    "system": "http://terminology.hl7.org/CodeSystem/v2-0301"
                                }
                            ]
                        }
                    }
                ]
            },
            "request": {
                "method": "PUT",
                "url": "Organization/7452d91f-ae92-d8ce-5b4a-148be5b6538e"
            }
        },
        {
            "fullUrl": "urn:uuid:0ccb76ca-b97e-1c86-4617-912a6d65c1f9",
            "resource": {
                "resourceType": "Organization",
                "id": "0ccb76ca-b97e-1c86-4617-912a6d65c1f9",
                "identifier": [
                    {
                        "value": "PERSONNELt",
                        "system": "http://example.com/v2-to-fhir-converter/assigning-authority-local-system-PERSONNELt"
                    },
                    {
                        "value": "1.23",
                        "system": "http://example.com/v2-to-fhir-converter/assigning-authority-universal-system-HCD",
                        "type": {
                            "coding": [
                                {
                                    "code": "HCD",
                                    "display": "The CEN Healthcare Coding Scheme Designator",
                                    "system": "http://terminology.hl7.org/CodeSystem/v2-0301"
                                }
                            ]
                        }
                    }
                ]
            },
            "request": {
                "method": "PUT",
                "url": "Organization/0ccb76ca-b97e-1c86-4617-912a6d65c1f9"
            }
        },
        {
            "fullUrl": "urn:uuid:f6775f99-5279-be04-bf81-0906c81f7443",
            "resource": {
                "resourceType": "Practitioner",
                "id": "f6775f99-5279-be04-bf81-0906c81f7443",
                "identifier": [
                    {
                        "value": "1122334",
                        "system": "http://example.com/v2-to-fhir-converter/assigning-authority-universal-system-HCD",
                        "assigner": {
                            "reference": "Organization/0ccb76ca-b97e-1c86-4617-912a6d65c1f9"
                        },
                        "type": {
                            "coding": [
                                {
                                    "code": "BR",
                                    "display": "Birth registry number",
                                    "system": "http://terminology.hl7.org/CodeSystem/v2-0203"
                                }
                            ]
                        }
                    }
                ],
                "name": [
                    {
                        "family": "Alaz",
                        "given": [
                            "Mohammed",
                            "Mahi"
                        ],
                        "suffix": [
                            "JR",
                            "MD",
                            "Al"
                        ],
                        "prefix": [
                            "Dr."
                        ],
                        "period": {
                            "start": "1924-10-10",
                            "end": "1924-10-15"
                        }
                    }
                ]
            },
            "request": {
                "method": "PUT",
                "url": "Practitioner/f6775f99-5279-be04-bf81-0906c81f7443"
            }
        },
        {
            "fullUrl": "urn:uuid:c613d7b2-525f-8c08-a7ac-b2b91486e257",
            "resource": {
                "resourceType": "Organization",
                "id": "c613d7b2-525f-8c08-a7ac-b2b91486e257",
                "identifier": [
                    {
                        "value": "TEST",
                        "system": "http://example.com/v2-to-fhir-converter/assigning-authority-local-system-TEST"
                    },
                    {
                        "value": "23.2",
                        "system": "http://example.com/v2-to-fhir-converter/assigning-authority-universal-system-HCD",
                        "type": {
                            "coding": [
                                {
                                    "code": "HCD",
                                    "display": "The CEN Healthcare Coding Scheme Designator",
                                    "system": "http://terminology.hl7.org/CodeSystem/v2-0301"
                                }
                            ]
                        }
                    }
                ]
            },
            "request": {
                "method": "PUT",
                "url": "Organization/c613d7b2-525f-8c08-a7ac-b2b91486e257"
            }
        },
        {
            "fullUrl": "urn:uuid:04f8cfc8-62ca-12df-63ce-6304ef577d44",
            "resource": {
                "resourceType": "Practitioner",
                "id": "04f8cfc8-62ca-12df-63ce-6304ef577d44",
                "identifier": [
                    {
                        "value": "C006",
                        "system": "http://example.com/v2-to-fhir-converter/assigning-authority-universal-system-HCD",
                        "assigner": {
                            "reference": "Organization/c613d7b2-525f-8c08-a7ac-b2b91486e257"
                        },
                        "type": {
                            "coding": [
                                {
                                    "code": "BA",
                                    "display": "Bank Account Number",
                                    "system": "http://terminology.hl7.org/CodeSystem/v2-0203"
                                }
                            ]
                        }
                    }
                ],
                "name": [
                    {
                        "family": "Woolfson",
                        "given": [
                            "Kathleen"
                        ],
                        "prefix": [
                            "Dr"
                        ],
                        "use": "anonymous"
                    }
                ]
            },
            "request": {
                "method": "PUT",
                "url": "Practitioner/04f8cfc8-62ca-12df-63ce-6304ef577d44"
            }
        },
        {
            "fullUrl": "urn:uuid:99edcabd-fbeb-7e25-f823-11da8d8ed342",
            "resource": {
                "resourceType": "Practitioner",
                "id": "99edcabd-fbeb-7e25-f823-11da8d8ed342",
                "identifier": [
                    {
                        "value": "C008",
                        "system": "urn:oid:2.8",
                        "type": {
                            "coding": [
                                {
                                    "code": "BR",
                                    "display": "Birth registry number",
                                    "system": "http://terminology.hl7.org/CodeSystem/v2-0203"
                                }
                            ]
                        }
                    }
                ],
                "name": [
                    {
                        "family": "Condoc",
                        "given": [
                            "leen"
                        ],
                        "prefix": [
                            "Dr"
                        ],
                        "use": "temp"
                    }
                ]
            },
            "request": {
                "method": "PUT",
                "url": "Practitioner/99edcabd-fbeb-7e25-f823-11da8d8ed342"
            }
        },
        {
            "fullUrl": "urn:uuid:b065b233-8738-f1ec-1314-d61e4aac2c9e",
            "resource": {
                "resourceType": "Practitioner",
                "id": "b065b233-8738-f1ec-1314-d61e4aac2c9e",
                "identifier": [
                    {
                        "value": "37",
                        "system": "http://example.com/v2-to-fhir-converter/assigning-authority-local-system-AccMgr",
                        "type": {
                            "coding": [
                                {
                                    "code": "ANC",
                                    "display": "Account number Creditor",
                                    "system": "http://terminology.hl7.org/CodeSystem/v2-0203"
                                }
                            ]
                        }
                    }
                ],
                "name": [
                    {
                        "family": "DISNEY",
                        "given": [
                            "WALT"
                        ]
                    }
                ]
            },
            "request": {
                "method": "PUT",
                "url": "Practitioner/b065b233-8738-f1ec-1314-d61e4aac2c9e"
            }
        },
        {
            "fullUrl": "urn:uuid:9f974d4f-47e8-21a6-e549-4de4599c3764",
            "resource": {
                "resourceType": "Organization",
                "id": "9f974d4f-47e8-21a6-e549-4de4599c3764",
                "identifier": [
                    {
                        "value": "T123",
                        "system": "http://example.com/v2-to-fhir-converter/assigning-authority-local-system-T123"
                    },
                    {
                        "value": "urn:oid:r2.3",
                        "system": "urn:ietf:rfc:3986",
                        "type": {
                            "coding": [
                                {
                                    "code": "ISO",
                                    "display": "An International Standards Organization Object Identifier (OID), in accordance with ISO/IEC 8824. Formatted as decimal digits separated by periods; recommended limit of 64 characters",
                                    "system": "http://terminology.hl7.org/CodeSystem/v2-0301"
                                }
                            ]
                        }
                    }
                ]
            },
            "request": {
                "method": "PUT",
                "url": "Organization/9f974d4f-47e8-21a6-e549-4de4599c3764"
            }
        },
        {
            "fullUrl": "urn:uuid:84aa3f43-eefe-c16a-90e0-8ebf2306a77d",
            "resource": {
                "resourceType": "Practitioner",
                "id": "84aa3f43-eefe-c16a-90e0-8ebf2306a77d",
                "identifier": [
                    {
                        "value": "Othhel",
                        "system": "http://example.com/v2-to-fhir-converter/assigning-authority-universal-system-HCD"
                    }
                ]
            },
            "request": {
                "method": "PUT",
                "url": "Practitioner/84aa3f43-eefe-c16a-90e0-8ebf2306a77d"
            }
        },
        {
            "fullUrl": "urn:uuid:9172e4a0-1ca5-646d-2183-b179f4daa737",
            "resource": {
                "resourceType": "Location",
                "id": "9172e4a0-1ca5-646d-2183-b179f4daa737",
                "partOf": {
                    "reference": "Location/7e38808c-44a8-cb0c-4709-9d6092abc32c"
                },
                "name": "HUH AE OMU",
                "identifier": [
                    {
                        "value": "urn:oid:9.8",
                        "system": "urn:ietf:rfc:3986"
                    }
                ],
                "mode": "instance",
                "physicalType": {
                    "coding": [
                        {
                            "system": "http://terminology.hl7.org/CodeSystem/location-physical-type",
                            "code": "lvl"
                        }
                    ]
                }
            },
            "request": {
                "method": "PUT",
                "url": "Location/9172e4a0-1ca5-646d-2183-b179f4daa737"
            }
        },
        {
            "fullUrl": "urn:uuid:3913ec4d-6576-5e1a-ac31-e8280583371c",
            "resource": {
                "resourceType": "Location",
                "id": "3913ec4d-6576-5e1a-ac31-e8280583371c",
                "partOf": {
                    "reference": "Location/9172e4a0-1ca5-646d-2183-b179f4daa737"
                },
                "name": "OMU B",
                "mode": "instance",
                "physicalType": {
                    "coding": [
                        {
                            "system": "http://terminology.hl7.org/CodeSystem/location-physical-type",
                            "code": "ro"
                        }
                    ]
                }
            },
            "request": {
                "method": "PUT",
                "url": "Location/3913ec4d-6576-5e1a-ac31-e8280583371c"
            }
        },
        {
            "fullUrl": "urn:uuid:804a03f1-4eb5-d01d-82f9-0d4b52a9ea3b",
            "resource": {
                "resourceType": "Location",
                "id": "804a03f1-4eb5-d01d-82f9-0d4b52a9ea3b",
                "partOf": {
                    "reference": "Location/3913ec4d-6576-5e1a-ac31-e8280583371c"
                },
                "name": "Bed 03",
                "mode": "instance",
                "physicalType": {
                    "coding": [
                        {
                            "system": "http://terminology.hl7.org/CodeSystem/location-physical-type",
                            "code": "bd"
                        }
                    ]
                }
            },
            "request": {
                "method": "PUT",
                "url": "Location/804a03f1-4eb5-d01d-82f9-0d4b52a9ea3b"
            }
        },
        {
            "fullUrl": "urn:uuid:c043880b-0fab-1cb8-14f7-0475282c4d0e",
            "resource": {
                "resourceType": "Location",
                "id": "c043880b-0fab-1cb8-14f7-0475282c4d0e",
                "name": "HOMERTON UNIVER",
                "mode": "instance",
                "physicalType": {
                    "coding": [
                        {
                            "system": "http://terminology.hl7.org/CodeSystem/location-physical-type",
                            "code": "si"
                        }
                    ]
                }
            },
            "request": {
                "method": "PUT",
                "url": "Location/c043880b-0fab-1cb8-14f7-0475282c4d0e"
            }
        },
        {
            "fullUrl": "urn:uuid:f7ef3d02-a5d5-a361-e9d9-b316ba1ff78c",
            "resource": {
                "resourceType": "Location",
                "id": "f7ef3d02-a5d5-a361-e9d9-b316ba1ff78c",
                "partOf": {
                    "reference": "Location/c043880b-0fab-1cb8-14f7-0475282c4d0e"
                },
                "name": "Homerton UH",
                "mode": "instance",
                "physicalType": {
                    "coding": [
                        {
                            "system": "http://terminology.hl7.org/CodeSystem/location-physical-type",
                            "code": "bu"
                        }
                    ]
                }
            },
            "request": {
                "method": "PUT",
                "url": "Location/f7ef3d02-a5d5-a361-e9d9-b316ba1ff78c"
            }
        },
        {
            "fullUrl": "urn:uuid:7e38808c-44a8-cb0c-4709-9d6092abc32c",
            "resource": {
                "resourceType": "Location",
                "id": "7e38808c-44a8-cb0c-4709-9d6092abc32c",
                "partOf": {
                    "reference": "Location/f7ef3d02-a5d5-a361-e9d9-b316ba1ff78c"
                },
                "name": "Floor5",
                "mode": "instance",
                "physicalType": {
                    "coding": [
                        {
                            "system": "http://terminology.hl7.org/CodeSystem/location-physical-type",
                            "code": "lvl"
                        }
                    ]
                }
            },
            "request": {
                "method": "PUT",
                "url": "Location/7e38808c-44a8-cb0c-4709-9d6092abc32c"
            }
        },
        {
            "fullUrl": "urn:uuid:59de4aa7-44c6-860a-88ad-53ae51ef49e8",
            "resource": {
                "resourceType": "Location",
                "id": "59de4aa7-44c6-860a-88ad-53ae51ef49e8",
                "name": "4 East, room 136, bed B 4E",
                "mode": "instance",
                "physicalType": {
                    "coding": [
                        {
                            "system": "http://terminology.hl7.org/CodeSystem/location-physical-type",
                            "code": "lvl"
                        }
                    ]
                }
            },
            "request": {
                "method": "PUT",
                "url": "Location/59de4aa7-44c6-860a-88ad-53ae51ef49e8"
            }
        },
        {
            "fullUrl": "urn:uuid:d5dd2e32-efbc-854a-cf3c-2bd6a7ff075e",
            "resource": {
                "resourceType": "Location",
                "id": "d5dd2e32-efbc-854a-cf3c-2bd6a7ff075e",
                "partOf": {
                    "reference": "Location/59de4aa7-44c6-860a-88ad-53ae51ef49e8"
                },
                "name": "136",
                "mode": "instance",
                "physicalType": {
                    "coding": [
                        {
                            "system": "http://terminology.hl7.org/CodeSystem/location-physical-type",
                            "code": "ro"
                        }
                    ]
                }
            },
            "request": {
                "method": "PUT",
                "url": "Location/d5dd2e32-efbc-854a-cf3c-2bd6a7ff075e"
            }
        },
        {
            "fullUrl": "urn:uuid:5783dafa-c6c0-e673-cca4-42087ee1831b",
            "resource": {
                "resourceType": "Location",
                "id": "5783dafa-c6c0-e673-cca4-42087ee1831b",
                "partOf": {
                    "reference": "Location/d5dd2e32-efbc-854a-cf3c-2bd6a7ff075e"
                },
                "name": "B",
                "mode": "instance",
                "physicalType": {
                    "coding": [
                        {
                            "system": "http://terminology.hl7.org/CodeSystem/location-physical-type",
                            "code": "bd"
                        }
                    ]
                }
            },
            "request": {
                "method": "PUT",
                "url": "Location/5783dafa-c6c0-e673-cca4-42087ee1831b"
            }
        },
        {
            "fullUrl": "urn:uuid:8b39e6e5-78cd-63ab-2441-f43ca5554096",
            "resource": {
                "resourceType": "Location",
                "id": "8b39e6e5-78cd-63ab-2441-f43ca5554096",
                "name": "CommunityHospital",
                "mode": "instance",
                "physicalType": {
                    "coding": [
                        {
                            "system": "http://terminology.hl7.org/CodeSystem/location-physical-type",
                            "code": "si"
                        }
                    ]
                }
            },
            "request": {
                "method": "PUT",
                "url": "Location/8b39e6e5-78cd-63ab-2441-f43ca5554096"
            }
        },
        {
            "fullUrl": "urn:uuid:42b81572-ebb4-3f14-7a91-e1f9a9c70460",
            "resource": {
                "resourceType": "Location",
                "id": "42b81572-ebb4-3f14-7a91-e1f9a9c70460",
                "name": "Homes",
                "identifier": [
                    {
                        "value": "22",
                        "system": "http://example.com/v2-to-fhir-converter/CodeSystem/FDK"
                    }
                ],
                "physicalType": {
                    "coding": [
                        {
                            "code": "si",
                            "system": "http://terminology.hl7.org/CodeSystem/location-physical-type"
                        }
                    ]
                }
            },
            "request": {
                "method": "PUT",
                "url": "Location/42b81572-ebb4-3f14-7a91-e1f9a9c70460"
            }
        },
        {
            "fullUrl": "urn:uuid:84634858-74aa-5cdb-4547-60ec27339ac6",
            "resource": {
                "resourceType": "Location",
                "id": "84634858-74aa-5cdb-4547-60ec27339ac6",
                "name": "POC",
                "mode": "instance",
                "physicalType": {
                    "coding": [
                        {
                            "system": "http://terminology.hl7.org/CodeSystem/location-physical-type",
                            "code": "lvl"
                        }
                    ]
                }
            },
            "request": {
                "method": "PUT",
                "url": "Location/84634858-74aa-5cdb-4547-60ec27339ac6"
            }
        },
        {
            "fullUrl": "urn:uuid:9bbd3aa6-8cb1-1abe-2b2a-9f320c263b42",
            "resource": {
                "resourceType": "Location",
                "id": "9bbd3aa6-8cb1-1abe-2b2a-9f320c263b42",
                "partOf": {
                    "reference": "Location/84634858-74aa-5cdb-4547-60ec27339ac6"
                },
                "name": "Room-2",
                "mode": "instance",
                "physicalType": {
                    "coding": [
                        {
                            "system": "http://terminology.hl7.org/CodeSystem/location-physical-type",
                            "code": "ro"
                        }
                    ]
                }
            },
            "request": {
                "method": "PUT",
                "url": "Location/9bbd3aa6-8cb1-1abe-2b2a-9f320c263b42"
            }
        },
        {
            "fullUrl": "urn:uuid:35353f20-6254-e794-98ed-8007490447e3",
            "resource": {
                "resourceType": "Location",
                "id": "35353f20-6254-e794-98ed-8007490447e3",
                "partOf": {
                    "reference": "Location/9bbd3aa6-8cb1-1abe-2b2a-9f320c263b42"
                },
                "name": "Bed-103",
                "mode": "instance",
                "physicalType": {
                    "coding": [
                        {
                            "system": "http://terminology.hl7.org/CodeSystem/location-physical-type",
                            "code": "bd"
                        }
                    ]
                }
            },
            "request": {
                "method": "PUT",
                "url": "Location/35353f20-6254-e794-98ed-8007490447e3"
            }
        },
        {
            "fullUrl": "urn:uuid:055e10f1-222e-df73-2325-0e4396db1a55",
            "resource": {
                "resourceType": "Location",
                "id": "055e10f1-222e-df73-2325-0e4396db1a55",
                "name": "Greenland",
                "mode": "instance",
                "physicalType": {
                    "coding": [
                        {
                            "system": "http://terminology.hl7.org/CodeSystem/location-physical-type",
                            "code": "bu"
                        }
                    ]
                }
            },
            "request": {
                "method": "PUT",
                "url": "Location/055e10f1-222e-df73-2325-0e4396db1a55"
            }
        },
        {
            "fullUrl": "urn:uuid:1154e6b2-b022-b3be-7dce-2b940ab5376d",
            "resource": {
                "resourceType": "Location",
                "id": "1154e6b2-b022-b3be-7dce-2b940ab5376d",
                "name": "Nursing home",
                "mode": "instance",
                "physicalType": {
                    "coding": [
                        {
                            "system": "http://terminology.hl7.org/CodeSystem/location-physical-type",
                            "code": "lvl"
                        }
                    ]
                }
            },
            "request": {
                "method": "PUT",
                "url": "Location/1154e6b2-b022-b3be-7dce-2b940ab5376d"
            }
        },
        {
            "fullUrl": "urn:uuid:08b7f694-ec03-e35a-d0b0-2fae5940fe37",
            "resource": {
                "resourceType": "Location",
                "id": "08b7f694-ec03-e35a-d0b0-2fae5940fe37",
                "name": "Rosewood",
                "mode": "instance",
                "physicalType": {
                    "coding": [
                        {
                            "system": "http://terminology.hl7.org/CodeSystem/location-physical-type",
                            "code": "bu"
                        }
                    ]
                }
            },
            "request": {
                "method": "PUT",
                "url": "Location/08b7f694-ec03-e35a-d0b0-2fae5940fe37"
            }
        },
        {
            "fullUrl": "urn:uuid:08314073-410a-3dc7-512c-0f2d206fb59d",
            "resource": {
                "resourceType": "Organization",
                "id": "08314073-410a-3dc7-512c-0f2d206fb59d",
                "identifier": [
                    {
                        "value": "Etest",
                        "system": "http://example.com/v2-to-fhir-converter/assigning-authority-local-system-Etest"
                    },
                    {
                        "value": "2.16.1",
                        "system": "http://example.com/v2-to-fhir-converter/assigning-authority-universal-system-HCD",
                        "type": {
                            "coding": [
                                {
                                    "code": "HCD",
                                    "display": "The CEN Healthcare Coding Scheme Designator",
                                    "system": "http://terminology.hl7.org/CodeSystem/v2-0301"
                                }
                            ]
                        }
                    }
                ]
            },
            "request": {
                "method": "PUT",
                "url": "Organization/08314073-410a-3dc7-512c-0f2d206fb59d"
            }
        },
        {
            "fullUrl": "urn:uuid:919a86bd-c9a1-86a7-2c9d-e34ae2559ffb",
            "resource": {
                "resourceType": "EpisodeOfCare",
                "id": "919a86bd-c9a1-86a7-2c9d-e34ae2559ffb",
                "status": "planned",
                "identifier": [
                    {
                        "value": "EOC124",
                        "type": {
                            "coding": [
                                {
                                    "code": "MR",
                                    "system": "http://terminology.hl7.org/CodeSystem/v2-0203",
                                    "display": "Medical record number"
                                }
                            ]
                        },
                        "system": "http://example.com/v2-to-fhir-converter/assigning-authority-universal-system-HCD",
                        "assigner": {
                            "reference": "Organization/08314073-410a-3dc7-512c-0f2d206fb59d"
                        }
                    }
                ],
                "patient": {
                    "reference": "Patient/9e909e52-61a1-be50-1878-a12ef8c36346"
                }
            },
            "request": {
                "method": "PUT",
                "url": "EpisodeOfCare/919a86bd-c9a1-86a7-2c9d-e34ae2559ffb"
            }
        },
        {
            "fullUrl": "urn:uuid:4b192760-03d2-aec4-b0a6-fde323912e1e",
            "resource": {
                "resourceType": "Encounter",
                "id": "4b192760-03d2-aec4-b0a6-fde323912e1e",
                "class": {
                    "code": "PRENC",
                    "display": "pre-admission",
                    "system": "http://terminology.hl7.org/CodeSystem/v3-ActCode"
                },
                "status": "planned",
                "location": [
                    {
                        "status": "planned",
                        "location": {
                            "reference": "Location/9172e4a0-1ca5-646d-2183-b179f4daa737"
                        }
                    },
                    {
                        "status": "planned",
                        "location": {
                            "reference": "Location/3913ec4d-6576-5e1a-ac31-e8280583371c"
                        }
                    },
                    {
                        "status": "planned",
                        "location": {
                            "reference": "Location/804a03f1-4eb5-d01d-82f9-0d4b52a9ea3b"
                        }
                    },
                    {
                        "status": "planned",
                        "location": {
                            "reference": "Location/c043880b-0fab-1cb8-14f7-0475282c4d0e"
                        }
                    },
                    {
                        "status": "planned",
                        "location": {
                            "reference": "Location/f7ef3d02-a5d5-a361-e9d9-b316ba1ff78c"
                        }
                    },
                    {
                        "status": "planned",
                        "location": {
                            "reference": "Location/7e38808c-44a8-cb0c-4709-9d6092abc32c"
                        }
                    },
                    {
                        "status": "completed",
                        "location": {
                            "reference": "Location/59de4aa7-44c6-860a-88ad-53ae51ef49e8"
                        },
                        "extension": [
                            {
                                "url": "http://hl7.org/fhir/uv/v2mappings/StructureDefinition/temporary-location",
                                "valueBoolean": false
                            }
                        ]
                    },
                    {
                        "status": "completed",
                        "location": {
                            "reference": "Location/d5dd2e32-efbc-854a-cf3c-2bd6a7ff075e"
                        },
                        "extension": [
                            {
                                "url": "http://hl7.org/fhir/uv/v2mappings/StructureDefinition/temporary-location",
                                "valueBoolean": false
                            }
                        ]
                    },
                    {
                        "status": "completed",
                        "location": {
                            "reference": "Location/5783dafa-c6c0-e673-cca4-42087ee1831b"
                        },
                        "extension": [
                            {
                                "url": "http://hl7.org/fhir/uv/v2mappings/StructureDefinition/temporary-location",
                                "valueBoolean": false
                            }
                        ]
                    },
                    {
                        "status": "completed",
                        "location": {
                            "reference": "Location/8b39e6e5-78cd-63ab-2441-f43ca5554096"
                        },
                        "extension": [
                            {
                                "url": "http://hl7.org/fhir/uv/v2mappings/StructureDefinition/temporary-location",
                                "valueBoolean": false
                            }
                        ]
                    },
                    {
                        "status": "planned",
                        "location": {
                            "reference": "Location/84634858-74aa-5cdb-4547-60ec27339ac6"
                        },
                        "extension": [
                            {
                                "url": "http://hl7.org/fhir/uv/v2mappings/StructureDefinition/temporary-location",
                                "valueBoolean": false
                            }
                        ]
                    },
                    {
                        "status": "planned",
                        "location": {
                            "reference": "Location/9bbd3aa6-8cb1-1abe-2b2a-9f320c263b42"
                        },
                        "extension": [
                            {
                                "url": "http://hl7.org/fhir/uv/v2mappings/StructureDefinition/temporary-location",
                                "valueBoolean": false
                            }
                        ]
                    },
                    {
                        "status": "planned",
                        "location": {
                            "reference": "Location/35353f20-6254-e794-98ed-8007490447e3"
                        },
                        "extension": [
                            {
                                "url": "http://hl7.org/fhir/uv/v2mappings/StructureDefinition/temporary-location",
                                "valueBoolean": false
                            }
                        ]
                    },
                    {
                        "status": "planned",
                        "location": {
                            "reference": "Location/055e10f1-222e-df73-2325-0e4396db1a55"
                        },
                        "extension": [
                            {
                                "url": "http://hl7.org/fhir/uv/v2mappings/StructureDefinition/temporary-location",
                                "valueBoolean": false
                            }
                        ]
                    },
                    {
                        "status": "completed",
                        "location": {
                            "reference": "Location/1154e6b2-b022-b3be-7dce-2b940ab5376d"
                        },
                        "extension": [
                            {
                                "url": "http://hl7.org/fhir/uv/v2mappings/StructureDefinition/temporary-location",
                                "valueBoolean": true
                            }
                        ]
                    },
                    {
                        "status": "completed",
                        "location": {
                            "reference": "Location/08b7f694-ec03-e35a-d0b0-2fae5940fe37"
                        },
                        "extension": [
                            {
                                "url": "http://hl7.org/fhir/uv/v2mappings/StructureDefinition/temporary-location",
                                "valueBoolean": true
                            }
                        ]
                    }
                ],
                "type": [
                    {
                        "coding": [
                            {
                                "code": "E",
                                "display": "Emergency",
                                "system": "http://terminology.hl7.org/CodeSystem/v2-0007"
                            }
                        ]
                    }
                ],
                "hospitalization": {
                    "preAdmissionIdentifier": {
                        "value": "1234567",
                        "type": {
                            "coding": [
                                {
                                    "code": "ANON",
                                    "system": "http://terminology.hl7.org/CodeSystem/v2-0203",
                                    "display": "Anonymous identifier"
                                }
                            ]
                        },
                        "system": "http://example.com/v2-to-fhir-converter/assigning-authority-universal-system-HCD",
                        "assigner": {
                            "reference": "Organization/11967e28-8dd4-a112-0fdc-377866bf12a0"
                        },
                        "period": {
                            "start": "1924-10-11",
                            "end": "1924-10-12"
                        }
                    },
                    "reAdmission": {
                        "coding": [
                            {
                                "code": "R",
                                "display": "Re-admission",
                                "system": "http://terminology.hl7.org/CodeSystem/v2-0092"
                            }
                        ]
                    },
                    "admitSource": {
                        "coding": [
                            {
                                "code": "NHS Provider-General (inc.A&E-this Hosp)"
                            }
                        ]
                    },
                    "dischargeDisposition": {
                        "coding": [
                            {
                                "code": "Admitted as Inpatient",
                                "display": "Sample",
                                "system": "http://example.com/v2-to-fhir-converter/CodeSystem/ACR"
                            }
                        ]
                    },
                    "dietPreference": [
                        {
                            "coding": [
                                {
                                    "code": "Vegan",
                                    "display": "Vegetarian"
                                }
                            ]
                        }
                    ],
                    "destination": {
                        "reference": "Location/42b81572-ebb4-3f14-7a91-e1f9a9c70460"
                    }
                },
                "episodeOfCare": [
                    {
                        "reference": "EpisodeOfCare/919a86bd-c9a1-86a7-2c9d-e34ae2559ffb"
                    }
                ],
                "participant": [
                    {
                        "type": [
                            {
                                "coding": [
                                    {
                                        "code": "ATND",
                                        "system": "http://terminology.hl7.org/CodeSystem/v3-ParticipationType",
                                        "display": "attender"
                                    }
                                ]
                            }
                        ],
                        "individual": {
                            "reference": "Practitioner/f6775f99-5279-be04-bf81-0906c81f7443"
                        }
                    },
                    {
                        "type": [
                            {
                                "coding": [
                                    {
                                        "code": "REF",
                                        "system": "http://terminology.hl7.org/CodeSystem/v3-ParticipationType"
                                    }
                                ],
                                "text": "referrer"
                            }
                        ],
                        "individual": {
                            "reference": "Practitioner/04f8cfc8-62ca-12df-63ce-6304ef577d44"
                        }
                    },
                    {
                        "type": [
                            {
                                "coding": [
                                    {
                                        "code": "CON",
                                        "system": "http://terminology.hl7.org/CodeSystem/v3-ParticipationType"
                                    }
                                ],
                                "text": "consultant"
                            }
                        ],
                        "individual": {
                            "reference": "Practitioner/99edcabd-fbeb-7e25-f823-11da8d8ed342"
                        }
                    },
                    {
                        "type": [
                            {
                                "coding": [
                                    {
                                        "code": "ADM",
                                        "system": "http://terminology.hl7.org/CodeSystem/v3-ParticipationType"
                                    }
                                ],
                                "text": "admitter"
                            }
                        ],
                        "individual": {
                            "reference": "Practitioner/b065b233-8738-f1ec-1314-d61e4aac2c9e"
                        }
                    },
                    {
                        "type": [
                            {
                                "coding": [
                                    {
                                        "code": "PART",
                                        "system": "http://terminology.hl7.org/CodeSystem/v3-ParticipationType"
                                    }
                                ],
                                "text": "Participation"
                            }
                        ],
                        "individual": {
                            "reference": "Practitioner/84aa3f43-eefe-c16a-90e0-8ebf2306a77d"
                        }
                    }
                ],
                "serviceType": {
                    "coding": [
                        {
                            "code": "SUR"
                        }
                    ]
                },
                "identifier": [
                    {
                        "value": "40007716",
                        "system": "http://example.com/v2-to-fhir-converter/assigning-authority-universal-system-HCD",
                        "assigner": {
                            "reference": "Organization/7452d91f-ae92-d8ce-5b4a-148be5b6538e"
                        },
                        "type": {
                            "coding": [
                                {
                                    "code": "VN",
                                    "system": "http://terminology.hl7.org/CodeSystem/v2-0203"
                                }
                            ],
                            "text": "visit number"
                        }
                    },
                    {
                        "value": "50",
                        "type": {
                            "coding": [
                                {
                                    "code": "MR",
                                    "system": "http://terminology.hl7.org/CodeSystem/v2-0203",
                                    "display": "Medical record number"
                                }
                            ]
                        },
                        "system": "urn:oid:r2.3",
                        "assigner": {
                            "reference": "Organization/9f974d4f-47e8-21a6-e549-4de4599c3764"
                        }
                    }
                ],
                "period": {
                    "start": "2015-02-08T15:54:19+05:30"
                },
                "text": {
                    "status": "generated",
                    "div": "<div xmlns=\"http://www.w3.org/1999/xhtml\"><p><span>Visit Description: </span></p></div>"
                },
                "subject": {
                    "reference": "Patient/9e909e52-61a1-be50-1878-a12ef8c36346"
                }
            },
            "request": {
                "method": "PUT",
                "url": "Encounter/4b192760-03d2-aec4-b0a6-fde323912e1e"
            }
        },
        {
            "fullUrl": "urn:uuid:9f6be243-c2fa-f8c8-0a7a-d168e98bdd4c",
            "resource": {
                "resourceType": "Provenance",
                "id": "9f6be243-c2fa-f8c8-0a7a-d168e98bdd4c",
                "occurredDateTime": "2021-08-17T18:49:43.004+05:30",
                "recorded": "2029-08-01T11:21:24+05:30",
                "reason": [
                    {
                        "coding": [
                            {
                                "code": "PATRQT",
                                "display": "patient requested",
                                "system": "http://terminology.hl7.org/CodeSystem/v3-ActReason"
                            }
                        ]
                    }
                ],
                "agent": [
                    {
                        "who": {
                            "reference": "Practitioner/95aea53b-8d49-d57f-d16f-4d14b914f992"
                        }
                    }
                ],
                "activity": {
                    "text": "ADT^A08^ADT_A08"
                },
                "location": {
                    "reference": "Location/59d5e519-0108-5dd8-adfa-1eef5658009e"
                },
                "target": [
                    {
                        "reference": "Bundle/513a3d06-5e87-6fbc-ad1b-170ab430499f"
                    }
                ]
            },
            "request": {
                "method": "PUT",
                "url": "Provenance/9f6be243-c2fa-f8c8-0a7a-d168e98bdd4c"
            }
        },
        {
            "fullUrl": "urn:uuid:ef39f581-5e8f-3917-35a9-3443303d9eee",
            "resource": {
                "resourceType": "Organization",
                "id": "ef39f581-5e8f-3917-35a9-3443303d9eee",
                "identifier": [
                    {
                        "value": "DRNBR",
                        "system": "http://example.com/v2-to-fhir-converter/assigning-authority-local-system-DRNBR"
                    },
                    {
                        "value": "urn:oid:W1.2",
                        "system": "urn:ietf:rfc:3986",
                        "type": {
                            "coding": [
                                {
                                    "code": "ISO",
                                    "display": "An International Standards Organization Object Identifier (OID), in accordance with ISO/IEC 8824. Formatted as decimal digits separated by periods; recommended limit of 64 characters",
                                    "system": "http://terminology.hl7.org/CodeSystem/v2-0301"
                                }
                            ]
                        }
                    }
                ]
            },
            "request": {
                "method": "PUT",
                "url": "Organization/ef39f581-5e8f-3917-35a9-3443303d9eee"
            }
        },
        {
            "fullUrl": "urn:uuid:95aea53b-8d49-d57f-d16f-4d14b914f992",
            "resource": {
                "resourceType": "Practitioner",
                "id": "95aea53b-8d49-d57f-d16f-4d14b914f992",
                "identifier": [
                    {
                        "value": "C08",
                        "system": "urn:oid:W1.2",
                        "assigner": {
                            "reference": "Organization/ef39f581-5e8f-3917-35a9-3443303d9eee"
                        },
                        "type": {
                            "coding": [
                                {
                                    "code": "ANON",
                                    "display": "Anonymous identifier",
                                    "system": "http://terminology.hl7.org/CodeSystem/v2-0203"
                                }
                            ]
                        }
                    }
                ],
                "name": [
                    {
                        "family": "Woolfson",
                        "given": [
                            "Kathleen",
                            "2ndname"
                        ],
                        "suffix": [
                            "Jr",
                            "MD"
                        ],
                        "prefix": [
                            "Dr"
                        ],
                        "use": "official"
                    }
                ]
            },
            "request": {
                "method": "PUT",
                "url": "Practitioner/95aea53b-8d49-d57f-d16f-4d14b914f992"
            }
        },
        {
            "fullUrl": "urn:uuid:59d5e519-0108-5dd8-adfa-1eef5658009e",
            "resource": {
                "resourceType": "Location",
                "id": "59d5e519-0108-5dd8-adfa-1eef5658009e",
                "name": "Cona_Health",
                "identifier": [
                    {
                        "value": "urn:oid:1.3.6.1.4.1.44750.1.4",
                        "system": "urn:ietf:rfc:3986"
                    }
                ],
                "physicalType": {
                    "coding": [
                        {
                            "code": "si",
                            "display": "site",
                            "system": "http://terminology.hl7.org/CodeSystem/location-physical-type"
                        }
                    ]
                }
            },
            "request": {
                "method": "PUT",
                "url": "Location/59d5e519-0108-5dd8-adfa-1eef5658009e"
            }
        }
    ]
}