{
    "resourceType": "Bundle",
    "type": "batch",
    "timestamp": "2008-01-31T19:15:00+05:30",
    "identifier": {
        "value": "PS1-20080131160038"
    },
    "id": "c1cfc1cf-5772-3713-5eb2-0ffdca6df60b",
    "entry": [
        {
            "fullUrl": "urn:uuid:f6276090-3778-3e87-dab9-2c9dae838d1a",
            "resource": {
                "resourceType": "MessageHeader",
                "id": "f6276090-3778-3e87-dab9-2c9dae838d1a",
                "source": {
                    "name": "PROSOLV",
                    "_endpoint": {
                        "extension": [
                            {
                                "url": "http://hl7.org/fhir/StructureDefinition/data-absent-reason",
                                "valueCode": "unknown"
                            }
                        ]
                    },
                    "version": "2.4.3.52854",
                    "software": "Rhapsody"
                },
                "destination": [
                    {
                        "name": "SYSTEM",
                        "_endpoint": {
                            "extension": [
                                {
                                    "url": "http://hl7.org/fhir/StructureDefinition/data-absent-reason",
                                    "valueCode": "unknown"
                                }
                            ]
                        },
                        "receiver": {
                            "reference": "Organization/a546f42b-2f91-c12a-4596-67ce49a595d9"
                        }
                    }
                ],
                "meta": {
                    "tag": [
                        {
                            "code": "P",
                            "system": "http://terminology.hl7.org/CodeSystem/v2-0103"
                        }
                    ]
                },
                "eventCoding": {
                    "code": "T02",
                    "system": "http://terminology.hl7.org/CodeSystem/v2-0003",
                    "display": "MDM^T02"
                },
                "sender": {
                    "reference": "Organization/a546f42b-2f91-c12a-4596-67ce49a595d9"
                }
            },
            "request": {
                "method": "PUT",
                "url": "MessageHeader/f6276090-3778-3e87-dab9-2c9dae838d1a"
            }
        },
        {
            "fullUrl": "urn:uuid:62e243a9-2299-8d17-3755-2ea9dcea5246",
            "resource": {
                "resourceType": "Provenance",
                "id": "62e243a9-2299-8d17-3755-2ea9dcea5246",
                "text": {
                    "status": "generated",
                    "div": "<div xmlns=\"http://www.w3.org/1999/xhtml\"><p><span>Resource bundle generated on 2021-10-29T09:01:41.469Z using Microsoft FHIR Converter.</span><span>Template Version: TEMPLATE_VERSION_PLACEHOLDER.</span><span>Template URL: https://github.com/microsoft/FHIR-Converter/releases/download/vTEMPLATE_VERSION_PLACEHOLDER/Hl7v2DefaultTemplates.tar.gz.</span><span>Root template: MDM_T01.</span></p></div>"
                },
                "occurredDateTime": "2008-01-31T19:15:00+05:30",
                "recorded": "2008-01-31T19:15:00+05:30",
                "agent": [
                    {
                        "type": {
                            "coding": [
                                {
                                    "code": "author",
                                    "system": "http://terminology.hl7.org/CodeSystem/provenance-participant-type"
                                }
                            ]
                        },
                        "who": {
                            "reference": "Organization/a546f42b-2f91-c12a-4596-67ce49a595d9"
                        }
                    }
                ],
                "activity": {
                    "coding": [
                        {
                            "display": "MDM^T02^"
                        }
                    ]
                },
                "target": [
                    {
                        "reference": "Bundle/c1cfc1cf-5772-3713-5eb2-0ffdca6df60b"
                    }
                ]
            },
            "request": {
                "method": "PUT",
                "url": "Provenance/62e243a9-2299-8d17-3755-2ea9dcea5246"
            }
        },
        {
            "fullUrl": "urn:uuid:a546f42b-2f91-c12a-4596-67ce49a595d9",
            "resource": {
                "resourceType": "Organization",
                "id": "a546f42b-2f91-c12a-4596-67ce49a595d9",
                "identifier": [
                    {
                        "value": "XYZHOSPITAL",
                        "system": "http://example.com/v2-to-fhir-converter/assigning-authority-local-system-XYZHOSPITAL"
                    }
                ]
            },
            "request": {
                "method": "PUT",
                "url": "Organization/a546f42b-2f91-c12a-4596-67ce49a595d9"
            }
        },
        {
            "fullUrl": "urn:uuid:4b549918-a84d-cdaf-e150-c773a5d306e5",
            "resource": {
                "resourceType": "Device",
                "id": "4b549918-a84d-cdaf-e150-c773a5d306e5",
                "manufacturer": "Orion",
                "deviceName": [
                    {
                        "name": "Rhapsody",
                        "type": "manufacturer-name"
                    }
                ],
                "version": [
                    {
                        "value": "2.4.3.52854"
                    }
                ],
                "modelNumber": "2.4.3",
                "note": [
                    {
                        "text": "Testactivity"
                    }
                ]
            },
            "request": {
                "method": "PUT",
                "url": "Device/4b549918-a84d-cdaf-e150-c773a5d306e5"
            }
        },
        {
            "fullUrl": "urn:uuid:63520aa7-562e-9367-0c96-f8f720c3a418",
            "resource": {
                "resourceType": "Provenance",
                "id": "63520aa7-562e-9367-0c96-f8f720c3a418",
                "recorded": "2008-01-31T19:15:00+05:30",
                "agent": [
                    {
                        "who": {
                            "reference": "Practitioner/983f747a-cf80-25e8-0431-719272f56adf"
                        }
                    }
                ],
                "activity": {
                    "text": "MDM^T02"
                },
                "target": [
                    {
                        "reference": "Bundle/c1cfc1cf-5772-3713-5eb2-0ffdca6df60b"
                    }
                ]
            },
            "request": {
                "method": "PUT",
                "url": "Provenance/63520aa7-562e-9367-0c96-f8f720c3a418"
            }
        },
        {
            "fullUrl": "urn:uuid:983f747a-cf80-25e8-0431-719272f56adf",
            "resource": {
                "resourceType": "Practitioner",
                "id": "983f747a-cf80-25e8-0431-719272f56adf",
                "identifier": [
                    {
                        "value": "C08"
                    }
                ],
                "name": [
                    {
                        "family": "Woolfson",
                        "given": [
                            "Kathleen"
                        ]
                    }
                ]
            },
            "request": {
                "method": "PUT",
                "url": "Practitioner/983f747a-cf80-25e8-0431-719272f56adf"
            }
        },
        {
            "fullUrl": "urn:uuid:073b77fa-7722-30cf-cd8f-218a179da613",
            "resource": {
                "resourceType": "Patient",
                "id": "073b77fa-7722-30cf-cd8f-218a179da613",
                "identifier": [
                    {
                        "value": "987654321"
                    },
                    {
                        "value": "987654321"
                    },
                    {
                        "value": "111-22-3333",
                        "type": {
                            "coding": [
                                {
                                    "code": "SB",
                                    "system": "http://terminology.hl7.org/CodeSystem/v2-0203"
                                }
                            ]
                        },
                        "system": "http://hl7.org/fhir/sid/us-ssn"
                    }
                ],
                "name": [
                    {
                        "family": "PROSOLV",
                        "given": [
                            "SAMPLE"
                        ]
                    }
                ],
                "birthDate": "1972-12-01",
                "gender": "male"
            },
            "request": {
                "method": "PUT",
                "url": "Patient/073b77fa-7722-30cf-cd8f-218a179da613"
            }
        },
        {
            "fullUrl": "urn:uuid:53abf53e-4d5f-9ac3-01fc-1c57fbc8ff1b",
            "resource": {
                "resourceType": "Account",
                "id": "53abf53e-4d5f-9ac3-01fc-1c57fbc8ff1b",
                "identifier": [
                    {
                        "value": "10000001"
                    }
                ],
                "status": "active",
                "subject": [
                    {
                        "reference": "Patient/073b77fa-7722-30cf-cd8f-218a179da613"
                    }
                ]
            },
            "request": {
                "method": "PUT",
                "url": "Account/53abf53e-4d5f-9ac3-01fc-1c57fbc8ff1b"
            }
        },
        {
            "fullUrl": "urn:uuid:f91b9450-5b30-513c-e992-770d60ebccca",
            "resource": {
                "resourceType": "Practitioner",
                "id": "f91b9450-5b30-513c-e992-770d60ebccca",
                "identifier": [
                    {
                        "value": "1234"
                    }
                ],
                "name": [
                    {
                        "family": "HIPPOCRATES",
                        "given": [
                            "KOS"
                        ]
                    }
                ]
            },
            "request": {
                "method": "PUT",
                "url": "Practitioner/f91b9450-5b30-513c-e992-770d60ebccca"
            }
        },
        {
            "fullUrl": "urn:uuid:3ff52588-4f70-e5f9-bd2e-3ff770b6bc16",
            "resource": {
                "resourceType": "Practitioner",
                "id": "3ff52588-4f70-e5f9-bd2e-3ff770b6bc16",
                "identifier": [
                    {
                        "value": "9099"
                    }
                ],
                "name": [
                    {
                        "family": "KEVORKIAN",
                        "given": [
                            "JACK"
                        ]
                    }
                ]
            },
            "request": {
                "method": "PUT",
                "url": "Practitioner/3ff52588-4f70-e5f9-bd2e-3ff770b6bc16"
            }
        },
        {
            "fullUrl": "urn:uuid:39dfc508-b0aa-36f2-de51-5ff7aee0bc62",
            "resource": {
                "resourceType": "Practitioner",
                "id": "39dfc508-b0aa-36f2-de51-5ff7aee0bc62",
                "identifier": [
                    {
                        "value": "8888"
                    }
                ],
                "name": [
                    {
                        "family": "HOUSE",
                        "given": [
                            "GREGORY"
                        ]
                    }
                ]
            },
            "request": {
                "method": "PUT",
                "url": "Practitioner/39dfc508-b0aa-36f2-de51-5ff7aee0bc62"
            }
        },
        {
            "fullUrl": "urn:uuid:b4c8d42e-dbcb-9290-7593-7586f4b5d0c9",
            "resource": {
                "resourceType": "Location",
                "id": "b4c8d42e-dbcb-9290-7593-7586f4b5d0c9",
                "name": "CCU",
                "mode": "instance",
                "description": "CCU--2003--1",
                "physicalType": {
                    "coding": [
                        {
                            "system": "http://terminology.hl7.org/CodeSystem/location-physical-type",
                            "code": "lvl"
                        }
                    ]
                }
            },
            "request": {
                "method": "PUT",
                "url": "Location/b4c8d42e-dbcb-9290-7593-7586f4b5d0c9"
            }
        },
        {
            "fullUrl": "urn:uuid:55fb6bcf-59d7-2cc4-2ddc-d38ba31ff1d2",
            "resource": {
                "resourceType": "Location",
                "id": "55fb6bcf-59d7-2cc4-2ddc-d38ba31ff1d2",
                "partOf": {
                    "reference": "Location/b4c8d42e-dbcb-9290-7593-7586f4b5d0c9"
                },
                "name": "2000",
                "mode": "instance",
                "description": "CCU--2000--1",
                "physicalType": {
                    "coding": [
                        {
                            "system": "http://terminology.hl7.org/CodeSystem/location-physical-type",
                            "code": "ro"
                        }
                    ]
                }
            },
            "request": {
                "method": "PUT",
                "url": "Location/55fb6bcf-59d7-2cc4-2ddc-d38ba31ff1d2"
            }
        },
        {
            "fullUrl": "urn:uuid:b2d5327c-354a-b91d-541d-c6b0fe91a841",
            "resource": {
                "resourceType": "Location",
                "id": "b2d5327c-354a-b91d-541d-c6b0fe91a841",
                "partOf": {
                    "reference": "Location/66fd3f3f-1ed8-35f5-002d-40ca03271177"
                },
                "name": "1",
                "mode": "instance",
                "description": "CCU--2003--1",
                "physicalType": {
                    "coding": [
                        {
                            "system": "http://terminology.hl7.org/CodeSystem/location-physical-type",
                            "code": "bd"
                        }
                    ]
                }
            },
            "request": {
                "method": "PUT",
                "url": "Location/b2d5327c-354a-b91d-541d-c6b0fe91a841"
            }
        },
        {
            "fullUrl": "urn:uuid:66fd3f3f-1ed8-35f5-002d-40ca03271177",
            "resource": {
                "resourceType": "Location",
                "id": "66fd3f3f-1ed8-35f5-002d-40ca03271177",
                "partOf": {
                    "reference": "Location/b4c8d42e-dbcb-9290-7593-7586f4b5d0c9"
                },
                "name": "2003",
                "mode": "instance",
                "description": "CCU--2003--1",
                "physicalType": {
                    "coding": [
                        {
                            "system": "http://terminology.hl7.org/CodeSystem/location-physical-type",
                            "code": "ro"
                        }
                    ]
                }
            },
            "request": {
                "method": "PUT",
                "url": "Location/66fd3f3f-1ed8-35f5-002d-40ca03271177"
            }
        },
        {
            "fullUrl": "urn:uuid:8bc99636-4bdf-d4be-5661-f77f4f3a7ff6",
            "resource": {
                "resourceType": "Encounter",
                "id": "8bc99636-4bdf-d4be-5661-f77f4f3a7ff6",
                "class": {
                    "code": "IMP",
                    "display": "inpatient encounter",
                    "system": "http://terminology.hl7.org/CodeSystem/v3-ActCode"
                },
                "status": "in-progress",
                "location": [
                    {
                        "status": "active",
                        "location": {
                            "reference": "Location/b4c8d42e-dbcb-9290-7593-7586f4b5d0c9"
                        }
                    },
                    {
                        "status": "completed",
                        "location": {
                            "reference": "Location/b4c8d42e-dbcb-9290-7593-7586f4b5d0c9"
                        },
                        "extension": [
                            {
                                "url": "http://hl7.org/fhir/uv/v2mappings/StructureDefinition/temporary-location",
                                "valueBoolean": false
                            }
                        ]
                    }
                ],
                "participant": [
                    {
                        "type": [
                            {
                                "coding": [
                                    {
                                        "code": "ATND",
                                        "system": "http://terminology.hl7.org/CodeSystem/v3-ParticipationType",
                                        "display": "attender"
                                    }
                                ]
                            }
                        ],
                        "individual": {
                            "reference": "Practitioner/f91b9450-5b30-513c-e992-770d60ebccca"
                        }
                    },
                    {
                        "type": [
                            {
                                "coding": [
                                    {
                                        "code": "REF",
                                        "system": "http://terminology.hl7.org/CodeSystem/v3-ParticipationType"
                                    }
                                ],
                                "text": "referrer"
                            }
                        ],
                        "individual": {
                            "reference": "Practitioner/3ff52588-4f70-e5f9-bd2e-3ff770b6bc16"
                        }
                    },
                    {
                        "type": [
                            {
                                "coding": [
                                    {
                                        "code": "CON",
                                        "system": "http://terminology.hl7.org/CodeSystem/v3-ParticipationType"
                                    }
                                ],
                                "text": "consultant"
                            }
                        ],
                        "individual": {
                            "reference": "Practitioner/39dfc508-b0aa-36f2-de51-5ff7aee0bc62"
                        }
                    }
                ],
                "identifier": [
                    {
                        "value": "10000001",
                        "type": {
                            "coding": [
                                {
                                    "code": "VN",
                                    "system": "http://terminology.hl7.org/CodeSystem/v2-0203"
                                }
                            ],
                            "text": "visit number"
                        }
                    }
                ],
                "text": {
                    "status": "generated",
                    "div": "<div xmlns=\"http://www.w3.org/1999/xhtml\"><p><span>Visit Description: </span></p></div>"
                },
                "subject": {
                    "reference": "Patient/073b77fa-7722-30cf-cd8f-218a179da613"
                }
            },
            "request": {
                "method": "PUT",
                "url": "Encounter/8bc99636-4bdf-d4be-5661-f77f4f3a7ff6"
            }
        },
        {
            "fullUrl": "urn:uuid:0bd32673-66cf-0e3e-61df-803590588758",
            "resource": {
                "resourceType": "DocumentReference",
                "id": "0bd32673-66cf-0e3e-61df-803590588758",
                "type": {
                    "coding": [
                        {
                            "code": "DI"
                        }
                    ]
                },
                "context": {
                    "period": {
                        "start": "2008-01-31T19:10:00+05:30"
                    }
                },
                "content": [
                    {
                        "attachment": {
                            "creation": "2008-01-31T19:15:00+05:30"
                        }
                    }
                ],
                "author": [
                    {
                        "reference": "PractitionerRole/5b91be6c-bce1-d67a-0ac5-3b0d36640a38"
                    }
                ],
                "masterIdentifier": {
                    "value": "1.2.840.317.5947431.51.20080131160038"
                },
                "relatesTo": [
                    {
                        "code": "appends",
                        "target": {
                            "identifier": {
                                "value": "1.2.840.317.5947431.51.20080131155715"
                            }
                        }
                    }
                ],
                "docStatus": "preliminary",
                "status": "current"
            },
            "request": {
                "method": "PUT",
                "url": "DocumentReference/0bd32673-66cf-0e3e-61df-803590588758"
            }
        },
        {
            "fullUrl": "urn:uuid:4b1a16a4-4caa-c86f-791b-56cd3dcd5489",
            "resource": {
                "resourceType": "Practitioner",
                "id": "4b1a16a4-4caa-c86f-791b-56cd3dcd5489",
                "identifier": [
                    {
                        "value": "IvanDoctorovich"
                    }
                ]
            },
            "request": {
                "method": "PUT",
                "url": "Practitioner/4b1a16a4-4caa-c86f-791b-56cd3dcd5489"
            }
        },
        {
            "fullUrl": "urn:uuid:5b91be6c-bce1-d67a-0ac5-3b0d36640a38",
            "resource": {
                "resourceType": "PractitionerRole",
                "id": "5b91be6c-bce1-d67a-0ac5-3b0d36640a38",
                "practitioner": {
                    "reference": "Practitioner/4b1a16a4-4caa-c86f-791b-56cd3dcd5489"
                }
            },
            "request": {
                "method": "PUT",
                "url": "PractitionerRole/5b91be6c-bce1-d67a-0ac5-3b0d36640a38"
            }
        },
        {
            "fullUrl": "urn:uuid:759e7d81-3fa3-111c-8580-9c4c71176dc2",
            "resource": {
                "resourceType": "ServiceRequest",
                "id": "759e7d81-3fa3-111c-8580-9c4c71176dc2",
                "status": "active",
                "intent": "order",
                "identifier": [
                    {
                        "value": "00012345",
                        "type": {
                            "coding": [
                                {
                                    "code": "PLAC",
                                    "system": "http://terminology.hl7.org/CodeSystem/v2-0203"
                                }
                            ]
                        }
                    },
                    {
                        "value": "1-1",
                        "type": {
                            "coding": [
                                {
                                    "code": "FILL",
                                    "system": "http://terminology.hl7.org/CodeSystem/v2-0203"
                                }
                            ]
                        }
                    }
                ],
                "code": {
                    "coding": [
                        {
                            "code": "02585",
                            "display": "TransthoracicEcho",
                            "system": "http://example.com/v2-to-fhir-converter/CodeSystem/PCV4"
                        }
                    ]
                },
                "reasonCode": [
                    {
                        "coding": [
                            {
                                "code": "796.4",
                                "system": "http://example.com/v2-to-fhir-converter/CodeSystem/I9M"
                            }
                        ]
                    },
                    {
                        "coding": [
                            {
                                "code": "786.09",
                                "system": "http://example.com/v2-to-fhir-converter/CodeSystem/I9M"
                            }
                        ]
                    },
                    {
                        "coding": [
                            {
                                "code": "414.8",
                                "system": "http://example.com/v2-to-fhir-converter/CodeSystem/I9M"
                            }
                        ]
                    }
                ],
                "subject": {
                    "reference": "Patient/073b77fa-7722-30cf-cd8f-218a179da613"
                },
                "reasonReference": [
                    {
                        "reference": "DocumentReference/0bd32673-66cf-0e3e-61df-803590588758"
                    }
                ],
                "specimen": [
                    {
                        "reference": "Specimen/465cc454-0c8c-9470-e96a-75c3d662e760"
                    }
                ],
                "note": [
                    {
                        "text": "No Antibodies Detected",
                        "time": "2020-10-10T18:15:00+05:30",
                        "authorReference": {
                            "reference": "Practitioner/ca6d10cc-e8a7-9d21-bd61-ec6d1db557c2"
                        }
                    },
                    {
                        "text": "Please follow the text instructions"
                    }
                ],
                "asNeededCodeableConcept": {
                    "text": "This is condition text"
                },
                "quantityQuantity": {
                    "value": 54,
                    "unit": "lbs"
                },
                "occurrenceTiming": {
                    "code": {
                        "coding": [
                            {
                                "code": "ACM",
                                "display": "Before Breakfast",
                                "system": "http://example.com/v2-to-fhir-converter/CodeSystem/HL7xxx"
                            }
                        ]
                    },
                    "repeat": {
                        "period": 12,
                        "periodUnit": "min",
                        "when": [
                            "ACM"
                        ],
                        "offset": 2,
                        "boundsPeriod": {
                            "start": "2021-10-10T05:30:00+05:30",
                            "end": "2021-11-10T05:30:00+05:30"
                        },
                        "duration": 2,
                        "durationUnit": "h",
                        "count": 5
                    }
                },
                "priority": "asap"
            },
            "request": {
                "method": "PUT",
                "url": "ServiceRequest/759e7d81-3fa3-111c-8580-9c4c71176dc2"
            }
        },
        {
            "fullUrl": "urn:uuid:ca6d10cc-e8a7-9d21-bd61-ec6d1db557c2",
            "resource": {
                "resourceType": "Practitioner",
                "id": "ca6d10cc-e8a7-9d21-bd61-ec6d1db557c2",
                "identifier": [
                    {
                        "value": "MLEE"
                    }
                ],
                "name": [
                    {
                        "family": "ATTEND",
                        "given": [
                            "AARON",
                            "A"
                        ],
                        "suffix": [
                            "MD"
                        ]
                    }
                ]
            },
            "request": {
                "method": "PUT",
                "url": "Practitioner/ca6d10cc-e8a7-9d21-bd61-ec6d1db557c2"
            }
        },
        {
            "fullUrl": "urn:uuid:465cc454-0c8c-9470-e96a-75c3d662e760",
            "resource": {
                "resourceType": "Specimen",
                "id": "465cc454-0c8c-9470-e96a-75c3d662e760",
                "collection": {
                    "collectedDateTime": "2008-01-31T19:10:00+05:30"
                },
                "identifier": [
                    {
                        "value": "00012345",
                        "type": {
                            "coding": [
                                {
                                    "code": "PLAC",
                                    "system": "http://terminology.hl7.org/CodeSystem/v2-0203"
                                }
                            ]
                        }
                    },
                    {
                        "value": "1-1",
                        "type": {
                            "coding": [
                                {
                                    "code": "FILL",
                                    "system": "http://terminology.hl7.org/CodeSystem/v2-0203"
                                }
                            ]
                        }
                    }
                ]
            },
            "request": {
                "method": "PUT",
                "url": "Specimen/465cc454-0c8c-9470-e96a-75c3d662e760"
            }
        }
    ]
}