{
  "resourceType": "Bundle",
  "type": "batch",
  "timestamp": "2021-01-15T19:35:00+05:30",
  "identifier": {
      "value": "MSG00007"
  },
  "id": "873317fc-55d2-ab3b-3bbc-a2b4e80847de",
  "entry": [
      {
          "fullUrl": "urn:uuid:5e14e4ba-dfeb-6ea7-86b8-9cc37528bbab",
          "resource": {
              "resourceType": "MessageHeader",
              "id": "5e14e4ba-dfeb-6ea7-86b8-9cc37528bbab",
              "source": {
                  "name": "24GHH",
                  "endpoint": "urn:oid:2.16.840.1.114884.10.20",
                  "version": "2.4.3.52854",
                  "software": "Rhapsody"
              },
              "destination": [
                  {
                      "name": "25GHH",
                      "endpoint": "urn:oid:2.16.840.1.114884.10.23",
                      "receiver": {
                          "reference": "Organization/527280c1-34d1-c639-e9ba-61986d28e266"
                      }
                  }
              ],
              "meta": {
                  "security": [
                      {
                          "display": "SECURITY"
                      }
                  ],
                  "tag": [
                      {
                          "code": "P",
                          "system": "http://terminology.hl7.org/CodeSystem/v2-0103"
                      }
                  ]
              },
              "eventCoding": {
                  "code": "A07",
                  "system": "http://terminology.hl7.org/CodeSystem/v2-0003",
                  "display": "ADT^A07^ADT_A07"
              },
              "language": "en-US",
              "sender": {
                  "reference": "Organization/4356fb81-6ecd-2d70-57b1-47812638e785"
              },
              "responsible": {
                  "reference": "Organization/33532a82-d220-4c0d-1abe-53e48951c201"
              }
          },
          "request": {
              "method": "PUT",
              "url": "MessageHeader/5e14e4ba-dfeb-6ea7-86b8-9cc37528bbab"
          }
      },
      {
          "fullUrl": "urn:uuid:aaf37d11-5d66-af8d-c286-16b46b7f9ada",
          "resource": {
              "resourceType": "Provenance",
              "id": "aaf37d11-5d66-af8d-c286-16b46b7f9ada",
              "text": {
                  "status": "generated",
                  "div": "<div xmlns=\"http://www.w3.org/1999/xhtml\"><p><span>Resource bundle generated on 2022-03-28T07:15:08.428Z using Microsoft FHIR Converter.</span><span>Template Version: TEMPLATE_VERSION_PLACEHOLDER.</span><span>Template URL: https://github.com/microsoft/FHIR-Converter/releases/download/vTEMPLATE_VERSION_PLACEHOLDER/Hl7v2DefaultTemplates.tar.gz.</span><span>Root template: ADT_A07.</span></p></div>"
              },
              "occurredDateTime": "2021-01-15T19:35:00+05:30",
              "recorded": "2021-01-15T19:35:00+05:30",
              "agent": [
                  {
                      "type": {
                          "coding": [
                              {
                                  "code": "author",
                                  "system": "http://terminology.hl7.org/CodeSystem/provenance-participant-type"
                              }
                          ]
                      },
                      "who": {
                          "reference": "Organization/33532a82-d220-4c0d-1abe-53e48951c201"
                      }
                  }
              ],
              "activity": {
                  "coding": [
                      {
                          "display": "ADT^A07^ADT_A07"
                      }
                  ]
              },
              "entity": [
                  {
                      "role": "source",
                      "what": {
                          "reference": "Device/de4a0e37-220f-608a-1333-2640637851e9"
                      }
                  }
              ],
              "target": [
                  {
                      "reference": "Bundle/873317fc-55d2-ab3b-3bbc-a2b4e80847de"
                  }
              ]
          },
          "request": {
              "method": "PUT",
              "url": "Provenance/aaf37d11-5d66-af8d-c286-16b46b7f9ada"
          }
      },
      {
          "fullUrl": "urn:uuid:4356fb81-6ecd-2d70-57b1-47812638e785",
          "resource": {
              "resourceType": "Organization",
              "id": "4356fb81-6ecd-2d70-57b1-47812638e785",
              "identifier": [
                  {
                      "value": "GHHSFacility",
                      "system": "http://example.com/v2-to-fhir-converter/Identifier/GHHSFacility"
                  },
                  {
                      "value": "urn:oid:2.16.840.1.122848.1.30",
                      "system": "urn:ietf:rfc:3986",
                      "type": {
                          "coding": [
                              {
                                  "code": "ISO",
                                  "display": "An International Standards Organization Object Identifier (OID), in accordance with ISO/IEC 8824. Formatted as decimal digits separated by periods; recommended limit of 64 characters",
                                  "system": "http://terminology.hl7.org/CodeSystem/v2-0301"
                              }
                          ]
                      }
                  }
              ],
              "partOf": {
                  "reference": "Organization/33532a82-d220-4c0d-1abe-53e48951c201"
              },
              "address": [
                  {
                      "country": "USA"
                  }
              ]
          },
          "request": {
              "method": "PUT",
              "url": "Organization/4356fb81-6ecd-2d70-57b1-47812638e785"
          }
      },
      {
          "fullUrl": "urn:uuid:62781ad6-3896-cb63-0178-ead0c4a432b5",
          "resource": {
              "resourceType": "Organization",
              "id": "62781ad6-3896-cb63-0178-ead0c4a432b5",
              "identifier": [
                  {
                      "value": "GHHRFacility",
                      "system": "http://example.com/v2-to-fhir-converter/Identifier/GHHRFacility"
                  },
                  {
                      "value": "urn:oid:2.16.840.1.1122848.1.32",
                      "system": "urn:ietf:rfc:3986",
                      "type": {
                          "coding": [
                              {
                                  "code": "ISO",
                                  "display": "An International Standards Organization Object Identifier (OID), in accordance with ISO/IEC 8824. Formatted as decimal digits separated by periods; recommended limit of 64 characters",
                                  "system": "http://terminology.hl7.org/CodeSystem/v2-0301"
                              }
                          ]
                      }
                  }
              ],
              "partOf": {
                  "reference": "Organization/527280c1-34d1-c639-e9ba-61986d28e266"
              },
              "address": [
                  {
                      "country": "USA"
                  }
              ]
          },
          "request": {
              "method": "PUT",
              "url": "Organization/62781ad6-3896-cb63-0178-ead0c4a432b5"
          }
      },
      {
          "fullUrl": "urn:uuid:33532a82-d220-4c0d-1abe-53e48951c201",
          "resource": {
              "resourceType": "Organization",
              "id": "33532a82-d220-4c0d-1abe-53e48951c201",
              "name": "22 GHH Inc."
          },
          "request": {
              "method": "PUT",
              "url": "Organization/33532a82-d220-4c0d-1abe-53e48951c201"
          }
      },
      {
          "fullUrl": "urn:uuid:527280c1-34d1-c639-e9ba-61986d28e266",
          "resource": {
              "resourceType": "Organization",
              "id": "527280c1-34d1-c639-e9ba-61986d28e266",
              "name": "23 GHH Inc."
          },
          "request": {
              "method": "PUT",
              "url": "Organization/527280c1-34d1-c639-e9ba-61986d28e266"
          }
      },
      {
          "fullUrl": "urn:uuid:de4a0e37-220f-608a-1333-2640637851e9",
          "resource": {
              "resourceType": "Device",
              "id": "de4a0e37-220f-608a-1333-2640637851e9",
              "identifier": [
                  {
                      "value": "ADT1"
                  }
              ]
          },
          "request": {
              "method": "PUT",
              "url": "Device/de4a0e37-220f-608a-1333-2640637851e9"
          }
      },
      {
          "fullUrl": "urn:uuid:4b549918-a84d-cdaf-e150-c773a5d306e5",
          "resource": {
              "resourceType": "Device",
              "id": "4b549918-a84d-cdaf-e150-c773a5d306e5",
              "manufacturer": "Orion Health",
              "deviceName": [
                  {
                      "name": "Rhapsody",
                      "type": "manufacturer-name"
                  }
              ],
              "version": [
                  {
                      "value": "2.4.3.52854"
                  }
              ],
              "modelNumber": "2.4.3.52854",
              "note": [
                  {
                      "text": "RAP234 Text"
                  }
              ]
          },
          "request": {
              "method": "PUT",
              "url": "Device/4b549918-a84d-cdaf-e150-c773a5d306e5"
          }
      },
      {
          "fullUrl": "urn:uuid:d5fe6802-a680-e762-8f43-9659340b00ac",
          "resource": {
              "resourceType": "Patient",
              "id": "d5fe6802-a680-e762-8f43-9659340b00ac",
              "identifier": [
                  {
                      "value": "PATID1234",
                      "type": {
                          "coding": [
                              {
                                  "code": "GOOD HEALTH HOSPITAL",
                                  "display": "GOOD HEALTH HOSPITAL"
                              }
                          ]
                      },
                      "system": "http://example.com/v2-to-fhir-converter/Identifier/ADT1"
                  },
                  {
                      "value": "123456789"
                  },
                  {
                      "value": "220917255",
                      "type": {
                          "coding": [
                              {
                                  "code": "SB",
                                  "system": "http://terminology.hl7.org/CodeSystem/v2-0203"
                              }
                          ]
                      },
                      "system": "http://hl7.org/fhir/sid/us-ssn"
                  },
                  {
                      "value": "DL",
                      "type": {
                          "coding": [
                              {
                                  "code": "DL"
                              }
                          ]
                      },
                      "system": "http://example.com/v2-to-fhir-converter/CodeSystem/T05349638"
                  },
                  {
                      "value": "DB1456"
                  },
                  {
                      "value": "Medicare-12345",
                      "type": {
                          "coding": [
                              {
                                  "code": "MC",
                                  "display": "Patient's Medicare number",
                                  "system": "http://terminology.hl7.org/CodeSystem/v2-0203"
                              }
                          ]
                      },
                      "system": "http://hl7.org/fhir/sid/us-medicare"
                  },
                  {
                      "value": "MI-12345",
                      "type": {
                          "coding": [
                              {
                                  "code": "MI",
                                  "display": "Military ID number",
                                  "system": "http://terminology.hl7.org/CodeSystem/v2-0203"
                              }
                          ]
                      },
                      "system": "http://example.com/v2-to-fhir-converter/sid/us-military"
                  },
                  {
                      "value": "MB-12345",
                      "type": {
                          "coding": [
                              {
                                  "code": "MB",
                                  "system": "http://terminology.hl7.org/CodeSystem/v2-0203",
                                  "display": "Member Number"
                              }
                          ]
                      },
                      "system": "urn:oid:2.16.840.1.113883.1.5"
                  }
              ],
              "name": [
                  {
                      "family": "EVERYMAN",
                      "given": [
                          "ADAM",
                          "A"
                      ],
                      "suffix": [
                          "III"
                      ]
                  },
                  {
                      "family": "SMITH",
                      "given": [
                          "JOHN"
                      ]
                  }
              ],
              "birthDate": "1961-06-15",
              "gender": "male",
              "address": [
                  {
                      "line": [
                          "115 MAINSTREET"
                      ],
                      "city": "GOODTOWN",
                      "state": "KY",
                      "postalCode": "42010",
                      "country": "USA"
                  }
              ],
              "telecom": [
                  {
                      "use": "home",
                      "system": "phone"
                  },
                  {
                      "value": "89898989",
                      "use": "work",
                      "system": "email"
                  }
              ],
              "communication": [
                  {
                      "language": {
                          "coding": [
                              {
                                  "code": "EN",
                                  "display": "ENGLISH",
                                  "system": "http://example.com/v2-to-fhir-converter/CodeSystem/HL70296"
                              }
                          ]
                      },
                      "preferred": true
                  }
              ],
              "maritalStatus": {
                  "coding": [
                      {
                          "code": "M",
                          "display": "Married",
                          "system": "http://terminology.hl7.org/CodeSystem/v3-MaritalStatus"
                      }
                  ]
              },
              "multipleBirthInteger": 1,
              "deceasedBoolean": false,
              "meta": {
                  "lastUpdated": "2021-01-10T04:05:14+05:30",
                  "security": [
                      {
                          "code": "LABEL",
                          "display": "assign security label",
                          "system": "http://terminology.hl7.org/CodeSystem/v3-ActCode"
                      },
                      {
                          "code": "DEMO",
                          "display": "all demographic information sensitivity",
                          "system": "http://terminology.hl7.org/CodeSystem/v3-ActCode"
                      },
                      {
                          "code": "PRS",
                          "display": "patient requested information sensitivity",
                          "system": "http://terminology.hl7.org/CodeSystem/v3-ActCode"
                      },
                      {
                          "system": "http://example.com/v2-to-fhir-converter/CodeSystem/additional-security-label",
                          "code": "special-access-restriction-instructions",
                          "display": "Access restricted to clinicians other than the consulting clinician"
                      },
                      {
                          "extension": [
                              {
                                  "url": "http://hl7.org/fhir/uv/v2mappings/StructureDefinition/access-restriction-range",
                                  "valuePeriod": {
                                      "start": "2021-11-18T13:45:00+05:30",
                                      "end": "2022-11-18T13:45:00+05:30"
                                  }
                              }
                          ]
                      }
                  ]
              },
              "active": true,
              "generalPractitioner": [
                  {
                      "reference": "Organization/719266ca-c272-9569-a797-c0b3fe3b2c91"
                  },
                  {
                      "reference": "Practitioner/864cd641-6bf0-9def-ae05-da0239bb20a7"
                  },
                  {
                      "reference": "PractitionerRole/9e4cb75e-9ce8-9e54-8753-35aa8553792b"
                  }
              ],
              "extension": [
                  {
                      "url": "http://hl7.org/fhir/us/core/StructureDefinition/us-core-race",
                      "extension": [
                          {
                              "url": "ombCategory",
                              "valueCoding": {
                                  "code": "2106-3",
                                  "display": "White",
                                  "system": "urn:oid:2.16.840.1.113883.6.238"
                              }
                          },
                          {
                              "url": "text",
                              "valueString": "White"
                          }
                      ]
                  },
                  {
                      "url": "http://hl7.org/fhir/StructureDefinition/patient-mothersMaidenName",
                      "valueString": "Davis"
                  },
                  {
                      "url": "http://hl7.org/fhir/StructureDefinition/patient-birthPlace",
                      "valueAddress": {
                          "text": "St. Francis Community Hospital of Lower South Side"
                      }
                  },
                  {
                      "url": "http://hl7.org/fhir/StructureDefinition/patient-religion",
                      "valueCodeableConcept": {
                          "coding": [
                              {
                                  "code": "1009",
                                  "display": "Baptist",
                                  "system": "http://terminology.hl7.org/CodeSystem/v3-ReligiousAffiliation"
                              }
                          ]
                      }
                  },
                  {
                      "url": "http://hl7.org/fhir/us/core/StructureDefinition/us-core-ethnicity",
                      "extension": [
                          {
                              "url": "ombCategory",
                              "valueCoding": {
                                  "code": "2186-5",
                                  "display": "Non Hispanic or Latino",
                                  "system": "urn:oid:2.16.840.1.113883.6.238"
                              }
                          },
                          {
                              "url": "text",
                              "valueString": "Non Hispanic or Latino"
                          }
                      ]
                  },
                  {
                      "url": "http://hl7.org/fhir/StructureDefinition/patient-citizenship",
                      "extension": [
                          {
                              "url": "code",
                              "valueCodeableConcept": {
                                  "coding": [
                                      {
                                          "code": "US",
                                          "display": "United States of America",
                                          "system": "urn:iso:std:iso:3166"
                                      }
                                  ],
                                  "text": "United States of America"
                              }
                          }
                      ]
                  },
                  {
                      "url": "http://hl7.org/fhir/StructureDefinition/patient-congregation",
                      "valueString": "Church"
                  },
                  {
                      "url": "http://example.com/v2-to-fhir-converter/StructureDefinition/patient-disabilityIndicator",
                      "valueBoolean": true
                  },
                  {
                      "url": "http://example.com/v2-to-fhir-converter/StructureDefinition/DisabilityPeriod",
                      "valuePeriod": {
                          "start": "2021-08-30",
                          "end": "2021-09-30"
                      }
                  }
              ],
              "contact": [
                  {
                      "organization": {
                          "reference": "Organization/9cfda40d-ffa1-3bb5-2627-0c0cb5825847"
                      }
                  },
                  {
                      "name": {
                          "family": "DOE",
                          "given": [
                              "MARY"
                          ]
                      },
                      "address": {
                          "line": [
                              "115 MAINSTREET"
                          ],
                          "city": "GOODTOWN",
                          "state": "KY",
                          "postalCode": "42010",
                          "country": "USA"
                      },
                      "telecom": [
                          {
                              "value": "(555) 555-2004",
                              "system": "email",
                              "use": "home"
                          },
                          {
                              "value": "(555)555-2005",
                              "system": "phone",
                              "use": "work"
                          },
                          {
                              "value": "5493275904",
                              "system": "phone"
                          },
                          {
                              "value": "5492308914",
                              "system": "phone"
                          }
                      ],
                      "period": {
                          "start": "2021-01-01",
                          "end": "2021-02-01"
                      },
                      "gender": "female"
                  }
              ]
          },
          "request": {
              "method": "PUT",
              "url": "Patient/d5fe6802-a680-e762-8f43-9659340b00ac"
          }
      },
      {
          "fullUrl": "urn:uuid:4d89d103-815b-6284-c821-c995368a2aeb",
          "resource": {
              "resourceType": "Account",
              "id": "4d89d103-815b-6284-c821-c995368a2aeb",
              "identifier": [
                  {
                      "value": "PACCT110"
                  }
              ],
              "status": "active",
              "subject": [
                  {
                      "reference": "Patient/d5fe6802-a680-e762-8f43-9659340b00ac"
                  }
              ],
              "guarantor": [
                  {
                      "party": {
                          "reference": "RelatedPerson/52ec3248-d648-ffa7-bf59-dd09f09a3a6a"
                      },
                      "onHold": false,
                      "period": {
                          "start": "2001-04-10",
                          "end": "2001-04-15"
                      }
                  }
              ],
              "coverage": [
                  {
                      "coverage": {
                          "reference": "Coverage/dfab6985-a691-c4f5-d2b2-6481fdfd59e4"
                      }
                  }
              ]
          },
          "request": {
              "method": "PUT",
              "url": "Account/4d89d103-815b-6284-c821-c995368a2aeb"
          }
      },
      {
          "fullUrl": "urn:uuid:52ec3248-d648-ffa7-bf59-dd09f09a3a6a",
          "resource": {
              "resourceType": "RelatedPerson",
              "id": "52ec3248-d648-ffa7-bf59-dd09f09a3a6a",
              "identifier": [
                  {
                      "value": "1516",
                      "type": {
                          "coding": [
                              {
                                  "code": "MR",
                                  "system": "http://terminology.hl7.org/CodeSystem/v2-0203",
                                  "display": "Medical record number"
                              }
                          ]
                      },
                      "system": "http://example.com/v2-to-fhir-converter/Identifier/test",
                      "period": {
                          "start": "1924-10-11",
                          "end": "1924-10-12"
                      }
                  },
                  {
                      "value": "55121",
                      "type": {
                          "coding": [
                              {
                                  "code": "FI",
                                  "system": "http://terminology.hl7.org/CodeSystem/v2-0203",
                                  "display": "Facility ID"
                              }
                          ]
                      }
                  },
                  {
                      "value": "G-SSN-12",
                      "type": {
                          "coding": [
                              {
                                  "code": "SB",
                                  "system": "http://terminology.hl7.org/CodeSystem/v2-0203",
                                  "display": "Social Beneficiary Identifier"
                              }
                          ]
                      },
                      "system": "http://hl7.org/fhir/sid/us-ssn"
                  }
              ],
              "relationship": [
                  {
                      "coding": [
                          {
                              "code": "BRO",
                              "display": "brother",
                              "system": "http://terminology.hl7.org/CodeSystem/v3-RoleCode"
                          }
                      ]
                  }
              ],
              "address": [
                  {
                      "line": [
                          "1619 SOUTH UNIVERSITY"
                      ],
                      "city": "MADISON",
                      "state": "WI",
                      "postalCode": "53703",
                      "country": "US"
                  }
              ],
              "telecom": [
                  {
                      "value": "8484",
                      "system": "email",
                      "use": "home"
                  },
                  {
                      "value": "717171",
                      "system": "phone",
                      "use": "home"
                  },
                  {
                      "value": "021212",
                      "system": "other",
                      "use": "work"
                  }
              ],
              "name": [
                  {
                      "family": "RADIANT",
                      "given": [
                          "LUCY"
                      ]
                  }
              ],
              "gender": "male",
              "birthDate": "2001-04-12",
              "communication": [
                  {
                      "language": {
                          "coding": [
                              {
                                  "code": "de",
                                  "display": "German",
                                  "system": "urn:ietf:bcp:47"
                              }
                          ]
                      },
                      "preferred": true
                  }
              ],
              "patient": {
                  "reference": "Patient/d5fe6802-a680-e762-8f43-9659340b00ac"
              }
          },
          "request": {
              "method": "PUT",
              "url": "RelatedPerson/52ec3248-d648-ffa7-bf59-dd09f09a3a6a"
          }
      },
      {
          "fullUrl": "urn:uuid:719266ca-c272-9569-a797-c0b3fe3b2c91",
          "resource": {
              "resourceType": "Organization",
              "id": "719266ca-c272-9569-a797-c0b3fe3b2c91",
              "name": "LINDAS TEST ORGANIZATION",
              "identifier": [
                  {
                      "value": "SIISCLIENT818"
                  }
              ]
          },
          "request": {
              "method": "PUT",
              "url": "Organization/719266ca-c272-9569-a797-c0b3fe3b2c91"
          }
      },
      {
          "fullUrl": "urn:uuid:864cd641-6bf0-9def-ae05-da0239bb20a7",
          "resource": {
              "resourceType": "Practitioner",
              "id": "864cd641-6bf0-9def-ae05-da0239bb20a7",
              "identifier": [
                  {
                      "type": {
                          "coding": [
                              {
                                  "code": "MR",
                                  "display": "Medical record number",
                                  "system": "http://terminology.hl7.org/CodeSystem/v2-0203"
                              }
                          ]
                      }
                  }
              ]
          },
          "request": {
              "method": "PUT",
              "url": "Practitioner/864cd641-6bf0-9def-ae05-da0239bb20a7"
          }
      },
      {
          "fullUrl": "urn:uuid:d00df304-17fa-8d9a-bd02-3276b1781ea1",
          "resource": {
              "resourceType": "Practitioner",
              "id": "d00df304-17fa-8d9a-bd02-3276b1781ea1",
              "identifier": [
                  {
                      "value": "0210"
                  }
              ],
              "name": [
                  {
                      "family": "ATTEND",
                      "given": [
                          "AARON",
                          "A"
                      ]
                  }
              ]
          },
          "request": {
              "method": "PUT",
              "url": "Practitioner/d00df304-17fa-8d9a-bd02-3276b1781ea1"
          }
      },
      {
          "fullUrl": "urn:uuid:21d5ab8b-8f3d-4fd9-f1c4-6f32568b0ae9",
          "resource": {
              "resourceType": "Practitioner",
              "id": "21d5ab8b-8f3d-4fd9-f1c4-6f32568b0ae9",
              "identifier": [
                  {
                      "value": "0310"
                  }
              ],
              "name": [
                  {
                      "family": "REFER",
                      "given": [
                          "LINDA",
                          "C"
                      ]
                  }
              ]
          },
          "request": {
              "method": "PUT",
              "url": "Practitioner/21d5ab8b-8f3d-4fd9-f1c4-6f32568b0ae9"
          }
      },
      {
          "fullUrl": "urn:uuid:43abcbc7-4a4f-99f7-0ac9-06d5d45f2df5",
          "resource": {
              "resourceType": "Practitioner",
              "id": "43abcbc7-4a4f-99f7-0ac9-06d5d45f2df5",
              "identifier": [
                  {
                      "value": "005454"
                  }
              ],
              "name": [
                  {
                      "family": "REFSRC",
                      "given": [
                          "ROBIN",
                          "B"
                      ]
                  }
              ]
          },
          "request": {
              "method": "PUT",
              "url": "Practitioner/43abcbc7-4a4f-99f7-0ac9-06d5d45f2df5"
          }
      },
      {
          "fullUrl": "urn:uuid:221b9db9-1de9-90d1-9fbf-9523a06e427c",
          "resource": {
              "resourceType": "Location",
              "id": "221b9db9-1de9-90d1-9fbf-9523a06e427c",
              "name": "OPD",
              "mode": "instance",
              "description": "OPD--0001--01--GOOD HEALTH HOSPITAL",
              "physicalType": {
                  "coding": [
                      {
                          "system": "http://terminology.hl7.org/CodeSystem/location-physical-type",
                          "code": "lvl"
                      }
                  ]
              }
          },
          "request": {
              "method": "PUT",
              "url": "Location/221b9db9-1de9-90d1-9fbf-9523a06e427c"
          }
      },
      {
          "fullUrl": "urn:uuid:680e3787-2fea-c526-fddc-fe7799c0dbf8",
          "resource": {
              "resourceType": "Location",
              "id": "680e3787-2fea-c526-fddc-fe7799c0dbf8",
              "partOf": {
                  "reference": "Location/221b9db9-1de9-90d1-9fbf-9523a06e427c"
              },
              "name": "0001",
              "mode": "instance",
              "description": "OPD--0001--01--GOOD HEALTH HOSPITAL",
              "physicalType": {
                  "coding": [
                      {
                          "system": "http://terminology.hl7.org/CodeSystem/location-physical-type",
                          "code": "ro"
                      }
                  ]
              }
          },
          "request": {
              "method": "PUT",
              "url": "Location/680e3787-2fea-c526-fddc-fe7799c0dbf8"
          }
      },
      {
          "fullUrl": "urn:uuid:75e3808c-5e3e-9ab9-7124-2fb485353fba",
          "resource": {
              "resourceType": "Location",
              "id": "75e3808c-5e3e-9ab9-7124-2fb485353fba",
              "partOf": {
                  "reference": "Location/680e3787-2fea-c526-fddc-fe7799c0dbf8"
              },
              "name": "01",
              "mode": "instance",
              "description": "OPD--0001--01--GOOD HEALTH HOSPITAL",
              "physicalType": {
                  "coding": [
                      {
                          "system": "http://terminology.hl7.org/CodeSystem/location-physical-type",
                          "code": "bd"
                      }
                  ]
              }
          },
          "request": {
              "method": "PUT",
              "url": "Location/75e3808c-5e3e-9ab9-7124-2fb485353fba"
          }
      },
      {
          "fullUrl": "urn:uuid:f3a48419-5674-2456-0237-ea79a6293066",
          "resource": {
              "resourceType": "Location",
              "id": "f3a48419-5674-2456-0237-ea79a6293066",
              "name": "GOOD HEALTH HOSPITAL",
              "mode": "instance",
              "description": "OPD--0001--01--GOOD HEALTH HOSPITAL",
              "physicalType": {
                  "coding": [
                      {
                          "system": "http://terminology.hl7.org/CodeSystem/location-physical-type",
                          "code": "si"
                      }
                  ]
              }
          },
          "request": {
              "method": "PUT",
              "url": "Location/f3a48419-5674-2456-0237-ea79a6293066"
          }
      },
      {
          "fullUrl": "urn:uuid:e24d4c31-6af3-46fb-1887-a7ff3887f565",
          "resource": {
              "resourceType": "Location",
              "id": "e24d4c31-6af3-46fb-1887-a7ff3887f565",
              "partOf": {
                  "reference": "Location/f174a0b5-a5ab-7323-0c10-2d7c76bcc824"
              },
              "name": "SPROOM",
              "mode": "instance",
              "description": "SPROOM--ROOM2--2.16.840.1.113883.4.642.1.1108--ISO--BED-1--FACILITY-1--BUILDING-1--FLOOR-1",
              "physicalType": {
                  "coding": [
                      {
                          "system": "http://terminology.hl7.org/CodeSystem/location-physical-type",
                          "code": "lvl"
                      }
                  ]
              }
          },
          "request": {
              "method": "PUT",
              "url": "Location/e24d4c31-6af3-46fb-1887-a7ff3887f565"
          }
      },
      {
          "fullUrl": "urn:uuid:0184e7e6-b0c3-f512-ae3d-9c3a0fa59e2b",
          "resource": {
              "resourceType": "Location",
              "id": "0184e7e6-b0c3-f512-ae3d-9c3a0fa59e2b",
              "partOf": {
                  "reference": "Location/e24d4c31-6af3-46fb-1887-a7ff3887f565"
              },
              "name": "ROOM2",
              "identifier": [
                  {
                      "value": "urn:oid:2.16.840.1.113883.4.642.1.1108",
                      "system": "urn:ietf:rfc:3986"
                  }
              ],
              "mode": "instance",
              "description": "SPROOM--ROOM2--2.16.840.1.113883.4.642.1.1108--ISO--BED-1--FACILITY-1--BUILDING-1--FLOOR-1",
              "physicalType": {
                  "coding": [
                      {
                          "system": "http://terminology.hl7.org/CodeSystem/location-physical-type",
                          "code": "ro"
                      }
                  ]
              }
          },
          "request": {
              "method": "PUT",
              "url": "Location/0184e7e6-b0c3-f512-ae3d-9c3a0fa59e2b"
          }
      },
      {
          "fullUrl": "urn:uuid:dedb52d9-ed65-f40e-627b-1c66a9fd4b08",
          "resource": {
              "resourceType": "Location",
              "id": "dedb52d9-ed65-f40e-627b-1c66a9fd4b08",
              "partOf": {
                  "reference": "Location/0184e7e6-b0c3-f512-ae3d-9c3a0fa59e2b"
              },
              "name": "BED-1",
              "mode": "instance",
              "description": "SPROOM--ROOM2--2.16.840.1.113883.4.642.1.1108--ISO--BED-1--FACILITY-1--BUILDING-1--FLOOR-1",
              "physicalType": {
                  "coding": [
                      {
                          "system": "http://terminology.hl7.org/CodeSystem/location-physical-type",
                          "code": "bd"
                      }
                  ]
              }
          },
          "request": {
              "method": "PUT",
              "url": "Location/dedb52d9-ed65-f40e-627b-1c66a9fd4b08"
          }
      },
      {
          "fullUrl": "urn:uuid:8d2c2e8a-26cf-1784-226e-a6a938d5a263",
          "resource": {
              "resourceType": "Location",
              "id": "8d2c2e8a-26cf-1784-226e-a6a938d5a263",
              "name": "FACILITY-1",
              "mode": "instance",
              "description": "SPROOM--ROOM2--2.16.840.1.113883.4.642.1.1108--ISO--BED-1--FACILITY-1--BUILDING-1--FLOOR-1",
              "physicalType": {
                  "coding": [
                      {
                          "system": "http://terminology.hl7.org/CodeSystem/location-physical-type",
                          "code": "si"
                      }
                  ]
              }
          },
          "request": {
              "method": "PUT",
              "url": "Location/8d2c2e8a-26cf-1784-226e-a6a938d5a263"
          }
      },
      {
          "fullUrl": "urn:uuid:24814560-09cc-3f38-f5e9-9b6106970a8f",
          "resource": {
              "resourceType": "Location",
              "id": "24814560-09cc-3f38-f5e9-9b6106970a8f",
              "partOf": {
                  "reference": "Location/8d2c2e8a-26cf-1784-226e-a6a938d5a263"
              },
              "name": "BUILDING-1",
              "mode": "instance",
              "description": "SPROOM--ROOM2--2.16.840.1.113883.4.642.1.1108--ISO--BED-1--FACILITY-1--BUILDING-1--FLOOR-1",
              "physicalType": {
                  "coding": [
                      {
                          "system": "http://terminology.hl7.org/CodeSystem/location-physical-type",
                          "code": "bu"
                      }
                  ]
              }
          },
          "request": {
              "method": "PUT",
              "url": "Location/24814560-09cc-3f38-f5e9-9b6106970a8f"
          }
      },
      {
          "fullUrl": "urn:uuid:f174a0b5-a5ab-7323-0c10-2d7c76bcc824",
          "resource": {
              "resourceType": "Location",
              "id": "f174a0b5-a5ab-7323-0c10-2d7c76bcc824",
              "partOf": {
                  "reference": "Location/24814560-09cc-3f38-f5e9-9b6106970a8f"
              },
              "name": "FLOOR-1",
              "mode": "instance",
              "description": "SPROOM--ROOM2--2.16.840.1.113883.4.642.1.1108--ISO--BED-1--FACILITY-1--BUILDING-1--FLOOR-1",
              "physicalType": {
                  "coding": [
                      {
                          "system": "http://terminology.hl7.org/CodeSystem/location-physical-type",
                          "code": "lvl"
                      }
                  ]
              }
          },
          "request": {
              "method": "PUT",
              "url": "Location/f174a0b5-a5ab-7323-0c10-2d7c76bcc824"
          }
      },
      {
          "fullUrl": "urn:uuid:19f93d0c-778a-6a5d-4816-504675827c1e",
          "resource": {
              "resourceType": "Encounter",
              "id": "19f93d0c-778a-6a5d-4816-504675827c1e",
              "class": {
                  "code": "AMB",
                  "display": "ambulatory",
                  "system": "http://terminology.hl7.org/CodeSystem/v3-ActCode"
              },
              "status": "in-progress",
              "location": [
                  {
                      "status": "active",
                      "location": {
                          "reference": "Location/221b9db9-1de9-90d1-9fbf-9523a06e427c"
                      }
                  },
                  {
                      "status": "completed",
                      "location": {
                          "reference": "Location/e24d4c31-6af3-46fb-1887-a7ff3887f565"
                      }
                  },
                  {
                      "status": "planned",
                      "location": {
                          "reference": "Location/e24d4c31-6af3-46fb-1887-a7ff3887f565"
                      }
                  }
              ],
              "participant": [
                  {
                      "type": [
                          {
                              "coding": [
                                  {
                                      "code": "ATND",
                                      "system": "http://terminology.hl7.org/CodeSystem/v3-ParticipationType",
                                      "display": "attender"
                                  }
                              ]
                          }
                      ],
                      "individual": {
                          "reference": "Practitioner/d00df304-17fa-8d9a-bd02-3276b1781ea1"
                      }
                  },
                  {
                      "type": [
                          {
                              "coding": [
                                  {
                                      "code": "REF",
                                      "system": "http://terminology.hl7.org/CodeSystem/v3-ParticipationType"
                                  }
                              ],
                              "text": "referrer"
                          }
                      ],
                      "individual": {
                          "reference": "Practitioner/21d5ab8b-8f3d-4fd9-f1c4-6f32568b0ae9"
                      }
                  },
                  {
                      "type": [
                          {
                              "coding": [
                                  {
                                      "code": "REF",
                                      "system": "http://terminology.hl7.org/CodeSystem/v3-ParticipationType"
                                  }
                              ],
                              "text": "referrer"
                          }
                      ],
                      "individual": {
                          "reference": "Practitioner/43abcbc7-4a4f-99f7-0ac9-06d5d45f2df5"
                      }
                  },
                  {
                      "individual": {
                          "reference": "PractitionerRole/9e4cb75e-9ce8-9e54-8753-35aa8553792b"
                      }
                  }
              ],
              "identifier": [
                  {
                      "value": "5001",
                      "system": "http://example.com/v2-to-fhir-converter/Identifier/AccMgr",
                      "type": {
                          "coding": [
                              {
                                  "code": "VN",
                                  "system": "http://terminology.hl7.org/CodeSystem/v2-0203"
                              }
                          ],
                          "text": "visit number"
                      }
                  }
              ],
              "period": {
                  "start": "2021-01-15T19:15:10+05:30"
              },
              "reasonCode": [
                  {
                      "coding": [
                          {
                              "code": "140004",
                              "display": "Chronic pharyngitis",
                              "system": "http://example.com/v2-to-fhir-converter/CodeSystem/sct"
                          }
                      ]
                  }
              ],
              "text": {
                  "status": "generated",
                  "div": "<div xmlns=\"http://www.w3.org/1999/xhtml\"><p><span>Visit Description: </span></p></div>"
              },
              "account": [
                  {
                      "reference": "Account/4d89d103-815b-6284-c821-c995368a2aeb"
                  },
                  {
                      "reference": "Account/c3891656-5fe0-31ba-65c6-d43f69f9459f"
                  }
              ],
              "subject": {
                  "reference": "Patient/d5fe6802-a680-e762-8f43-9659340b00ac"
              },
              "meta": {
                  "security": [
                      {
                          "code": "PERSISTLABEL",
                          "display": "persist security label",
                          "system": "http://terminology.hl7.org/CodeSystem/v3-ActCode"
                      },
                      {
                          "code": "LOCIS",
                          "display": "location information sensitivity",
                          "system": "http://terminology.hl7.org/CodeSystem/v3-ActCode"
                      },
                      {
                          "code": "PHY",
                          "display": "physician requested information sensitivity",
                          "system": "http://terminology.hl7.org/CodeSystem/v3-ActCode"
                      },
                      {
                          "system": "http://example.com/v2-to-fhir-converter/CodeSystem/additional-security-label",
                          "code": "special-access-restriction-instructions",
                          "display": "No disclosure of patient location"
                      },
                      {
                          "extension": [
                              {
                                  "url": "http://hl7.org/fhir/uv/v2mappings/StructureDefinition/access-restriction-range",
                                  "valuePeriod": {
                                      "start": "2021-11-18T13:45:00+05:30",
                                      "end": "2022-11-18T13:45:00+05:30"
                                  }
                              }
                          ]
                      }
                  ]
              },
              "diagnosis": [
                  {
                      "condition": {
                          "reference": "Condition/aec42ae9-bf55-717a-0728-35b8eb475264"
                      },
                      "use": {
                          "coding": [
                              {
                                  "code": "AD",
                                  "display": "Admission Diagnosis",
                                  "system": "http://terminology.hl7.org/CodeSystem/diagnosis-role"
                              }
                          ]
                      },
                      "rank": 1
                  }
              ]
          },
          "request": {
              "method": "PUT",
              "url": "Encounter/19f93d0c-778a-6a5d-4816-504675827c1e"
          }
      },
      {
          "fullUrl": "urn:uuid:f63d3422-af5c-03f8-aa55-5f20d0d11aef",
          "resource": {
              "resourceType": "Provenance",
              "id": "f63d3422-af5c-03f8-aa55-5f20d0d11aef",
              "occurredDateTime": "2021-01-15T19:15:10+05:30",
              "recorded": "2021-01-15T19:15:10+05:30",
              "reason": [
                  {
                      "coding": [
                          {
                              "code": "HOPERAT",
                              "display": "healthcare operations",
                              "system": "http://terminology.hl7.org/CodeSystem/v3-ActReason"
                          }
                      ]
                  }
              ],
              "agent": [
                  {
                      "who": {
                          "reference": "Practitioner/6c9ea0f5-1b45-04f9-e07d-bae5096b7a4a"
                      }
                  }
              ],
              "activity": {
                  "text": "ADT^A07^ADT_A07"
              },
              "location": {
                  "reference": "Location/9b7cb9bd-a061-04d1-4757-24dbda8f72b2"
              },
              "target": [
                  {
                      "reference": "Bundle/873317fc-55d2-ab3b-3bbc-a2b4e80847de"
                  }
              ]
          },
          "request": {
              "method": "PUT",
              "url": "Provenance/f63d3422-af5c-03f8-aa55-5f20d0d11aef"
          }
      },
      {
          "fullUrl": "urn:uuid:df03b003-6818-1abd-209e-0889025aad16",
          "resource": {
              "resourceType": "Organization",
              "id": "df03b003-6818-1abd-209e-0889025aad16",
              "identifier": [
                  {
                      "value": "NPIID",
                      "system": "http://example.com/v2-to-fhir-converter/Identifier/NPIID"
                  },
                  {
                      "value": "urn:oid:2.16.840.1.113883.4.6",
                      "system": "urn:ietf:rfc:3986",
                      "type": {
                          "coding": [
                              {
                                  "code": "ISO",
                                  "display": "An International Standards Organization Object Identifier (OID), in accordance with ISO/IEC 8824. Formatted as decimal digits separated by periods; recommended limit of 64 characters",
                                  "system": "http://terminology.hl7.org/CodeSystem/v2-0301"
                              }
                          ]
                      }
                  }
              ]
          },
          "request": {
              "method": "PUT",
              "url": "Organization/df03b003-6818-1abd-209e-0889025aad16"
          }
      },
      {
          "fullUrl": "urn:uuid:6c9ea0f5-1b45-04f9-e07d-bae5096b7a4a",
          "resource": {
              "resourceType": "Practitioner",
              "id": "6c9ea0f5-1b45-04f9-e07d-bae5096b7a4a",
              "identifier": [
                  {
                      "value": "9941339108",
                      "system": "urn:oid:2.16.840.1.113883.4.6",
                      "assigner": {
                          "reference": "Organization/df03b003-6818-1abd-209e-0889025aad16"
                      },
                      "type": {
                          "coding": [
                              {
                                  "code": "NPI",
                                  "display": "National provider identifier",
                                  "system": "http://terminology.hl7.org/CodeSystem/v2-0203"
                              }
                          ]
                      }
                  }
              ],
              "name": [
                  {
                      "family": "Smith",
                      "given": [
                          "Adam",
                          "Mellie"
                      ],
                      "suffix": [
                          "Jr",
                          "MD",
                          "GP"
                      ],
                      "prefix": [
                          "Dr"
                      ],
                      "use": "official",
                      "period": {
                          "start": "2010-01-15T19:15:10+05:30",
                          "end": "2020-01-15T19:15:10+05:30"
                      }
                  }
              ]
          },
          "request": {
              "method": "PUT",
              "url": "Practitioner/6c9ea0f5-1b45-04f9-e07d-bae5096b7a4a"
          }
      },
      {
          "fullUrl": "urn:uuid:9b7cb9bd-a061-04d1-4757-24dbda8f72b2",
          "resource": {
              "resourceType": "Location",
              "id": "9b7cb9bd-a061-04d1-4757-24dbda8f72b2",
              "name": "Good Health Hospital",
              "identifier": [
                  {
                      "value": "urn:oid:1.3.6.1.4.1.44750.1.4",
                      "system": "urn:ietf:rfc:3986"
                  }
              ],
              "physicalType": {
                  "coding": [
                      {
                          "code": "si",
                          "display": "site",
                          "system": "http://terminology.hl7.org/CodeSystem/location-physical-type"
                      }
                  ]
              }
          },
          "request": {
              "method": "PUT",
              "url": "Location/9b7cb9bd-a061-04d1-4757-24dbda8f72b2"
          }
      },
      {
          "fullUrl": "urn:uuid:9e4cb75e-9ce8-9e54-8753-35aa8553792b",
          "resource": {
              "resourceType": "PractitionerRole",
              "id": "9e4cb75e-9ce8-9e54-8753-35aa8553792b",
              "code": [
                  {
                      "coding": [
                          {
                              "code": "PP",
                              "display": "Primary Care Provider",
                              "system": "http://terminology.hl7.org/CodeSystem/v2-0443"
                          }
                      ]
                  }
              ],
              "telecom": [
                  {
                      "value": "fred@nnnn.com",
                      "system": "email"
                  }
              ],
              "location": [
                  {
                      "reference": "Location/7e8c8f5b-e366-6646-d2c0-e943bd9d1145"
                  }
              ],
              "specialty": [
                  {
                      "coding": [
                          {
                              "code": "408443003",
                              "display": "General practice",
                              "system": "http://example.com/v2-to-fhir-converter/CodeSystem/SNOMED"
                          }
                      ]
                  }
              ],
              "practitioner": {
                  "reference": "Practitioner/0ca009a9-f147-6543-1371-3e5cb0997cb6"
              },
              "organization": {
                  "reference": "Organization/87ba6593-8c91-6188-d3e3-b6618cc27c54"
              }
          },
          "request": {
              "method": "PUT",
              "url": "PractitionerRole/9e4cb75e-9ce8-9e54-8753-35aa8553792b"
          }
      },
      {
          "fullUrl": "urn:uuid:0ccb76ca-b97e-1c86-4617-912a6d65c1f9",
          "resource": {
              "resourceType": "Organization",
              "id": "0ccb76ca-b97e-1c86-4617-912a6d65c1f9",
              "identifier": [
                  {
                      "value": "PERSONNELt",
                      "system": "http://example.com/v2-to-fhir-converter/Identifier/PERSONNELt"
                  },
                  {
                      "value": "1.23",
                      "system": "http://example.com/v2-to-fhir-converter/Identifier/HCD",
                      "type": {
                          "coding": [
                              {
                                  "code": "HCD",
                                  "display": "The CEN Healthcare Coding Scheme Designator",
                                  "system": "http://terminology.hl7.org/CodeSystem/v2-0301"
                              }
                          ]
                      }
                  }
              ]
          },
          "request": {
              "method": "PUT",
              "url": "Organization/0ccb76ca-b97e-1c86-4617-912a6d65c1f9"
          }
      },
      {
          "fullUrl": "urn:uuid:0ca009a9-f147-6543-1371-3e5cb0997cb6",
          "resource": {
              "resourceType": "Practitioner",
              "id": "0ca009a9-f147-6543-1371-3e5cb0997cb6",
              "identifier": [
                  {
                      "value": "12377H87",
                      "system": "http://example.com/v2-to-fhir-converter/Identifier/HCD",
                      "assigner": {
                          "reference": "Organization/0ccb76ca-b97e-1c86-4617-912a6d65c1f9"
                      },
                      "type": {
                          "coding": [
                              {
                                  "code": "BR",
                                  "display": "Birth registry number",
                                  "system": "http://terminology.hl7.org/CodeSystem/v2-0203"
                              }
                          ]
                      }
                  }
              ],
              "name": [
                  {
                      "family": "Smith",
                      "given": [
                          "John",
                          "A"
                      ],
                      "suffix": [
                          "III",
                          "PHD",
                          "Al"
                      ],
                      "prefix": [
                          "DR"
                      ],
                      "period": {
                          "start": "1924-10-10",
                          "end": "1924-10-15"
                      }
                  }
              ]
          },
          "request": {
              "method": "PUT",
              "url": "Practitioner/0ca009a9-f147-6543-1371-3e5cb0997cb6"
          }
      },
      {
          "fullUrl": "urn:uuid:7e8c8f5b-e366-6646-d2c0-e943bd9d1145",
          "resource": {
              "resourceType": "Location",
              "id": "7e8c8f5b-e366-6646-d2c0-e943bd9d1145",
              "partOf": {
                  "reference": "Location/ff93044f-a48c-31c6-e7bd-f400aff947e3"
              },
              "name": "HUH AE OMU",
              "identifier": [
                  {
                      "value": "urn:oid:9.8",
                      "system": "urn:ietf:rfc:3986"
                  }
              ],
              "mode": "instance",
              "description": "HUH AE OMU--9.8--ISO--OMU B--Bed 03--HOMERTON UNIVER--C--Homerton UH--Floor5",
              "physicalType": {
                  "coding": [
                      {
                          "system": "http://terminology.hl7.org/CodeSystem/location-physical-type",
                          "code": "lvl"
                      }
                  ]
              }
          },
          "request": {
              "method": "PUT",
              "url": "Location/7e8c8f5b-e366-6646-d2c0-e943bd9d1145"
          }
      },
      {
          "fullUrl": "urn:uuid:21db7463-3dcf-df06-09f7-657d2a3149da",
          "resource": {
              "resourceType": "Location",
              "id": "21db7463-3dcf-df06-09f7-657d2a3149da",
              "partOf": {
                  "reference": "Location/7e8c8f5b-e366-6646-d2c0-e943bd9d1145"
              },
              "name": "OMU B",
              "mode": "instance",
              "description": "HUH AE OMU--9.8--ISO--OMU B--Bed 03--HOMERTON UNIVER--C--Homerton UH--Floor5",
              "physicalType": {
                  "coding": [
                      {
                          "system": "http://terminology.hl7.org/CodeSystem/location-physical-type",
                          "code": "ro"
                      }
                  ]
              }
          },
          "request": {
              "method": "PUT",
              "url": "Location/21db7463-3dcf-df06-09f7-657d2a3149da"
          }
      },
      {
          "fullUrl": "urn:uuid:8c9f471c-25cf-4f9d-a67a-da6dccc64c88",
          "resource": {
              "resourceType": "Location",
              "id": "8c9f471c-25cf-4f9d-a67a-da6dccc64c88",
              "partOf": {
                  "reference": "Location/21db7463-3dcf-df06-09f7-657d2a3149da"
              },
              "name": "Bed 03",
              "mode": "instance",
              "description": "HUH AE OMU--9.8--ISO--OMU B--Bed 03--HOMERTON UNIVER--C--Homerton UH--Floor5",
              "physicalType": {
                  "coding": [
                      {
                          "system": "http://terminology.hl7.org/CodeSystem/location-physical-type",
                          "code": "bd"
                      }
                  ]
              }
          },
          "request": {
              "method": "PUT",
              "url": "Location/8c9f471c-25cf-4f9d-a67a-da6dccc64c88"
          }
      },
      {
          "fullUrl": "urn:uuid:35c140b2-668e-8d32-7516-6ec7d7edecc7",
          "resource": {
              "resourceType": "Location",
              "id": "35c140b2-668e-8d32-7516-6ec7d7edecc7",
              "name": "HOMERTON UNIVER",
              "mode": "instance",
              "description": "HUH AE OMU--9.8--ISO--OMU B--Bed 03--HOMERTON UNIVER--C--Homerton UH--Floor5",
              "physicalType": {
                  "coding": [
                      {
                          "system": "http://terminology.hl7.org/CodeSystem/location-physical-type",
                          "code": "si"
                      }
                  ]
              }
          },
          "request": {
              "method": "PUT",
              "url": "Location/35c140b2-668e-8d32-7516-6ec7d7edecc7"
          }
      },
      {
          "fullUrl": "urn:uuid:7fce0afa-27f7-3408-86ef-838840491ff0",
          "resource": {
              "resourceType": "Location",
              "id": "7fce0afa-27f7-3408-86ef-838840491ff0",
              "partOf": {
                  "reference": "Location/35c140b2-668e-8d32-7516-6ec7d7edecc7"
              },
              "name": "Homerton UH",
              "mode": "instance",
              "description": "HUH AE OMU--9.8--ISO--OMU B--Bed 03--HOMERTON UNIVER--C--Homerton UH--Floor5",
              "physicalType": {
                  "coding": [
                      {
                          "system": "http://terminology.hl7.org/CodeSystem/location-physical-type",
                          "code": "bu"
                      }
                  ]
              }
          },
          "request": {
              "method": "PUT",
              "url": "Location/7fce0afa-27f7-3408-86ef-838840491ff0"
          }
      },
      {
          "fullUrl": "urn:uuid:ff93044f-a48c-31c6-e7bd-f400aff947e3",
          "resource": {
              "resourceType": "Location",
              "id": "ff93044f-a48c-31c6-e7bd-f400aff947e3",
              "partOf": {
                  "reference": "Location/7fce0afa-27f7-3408-86ef-838840491ff0"
              },
              "name": "Floor5",
              "mode": "instance",
              "description": "HUH AE OMU--9.8--ISO--OMU B--Bed 03--HOMERTON UNIVER--C--Homerton UH--Floor5",
              "physicalType": {
                  "coding": [
                      {
                          "system": "http://terminology.hl7.org/CodeSystem/location-physical-type",
                          "code": "lvl"
                      }
                  ]
              }
          },
          "request": {
              "method": "PUT",
              "url": "Location/ff93044f-a48c-31c6-e7bd-f400aff947e3"
          }
      },
      {
          "fullUrl": "urn:uuid:87ba6593-8c91-6188-d3e3-b6618cc27c54",
          "resource": {
              "resourceType": "Organization",
              "id": "87ba6593-8c91-6188-d3e3-b6618cc27c54",
              "name": "Good Health Hospital",
              "identifier": [
                  {
                      "type": {
                          "coding": [
                              {
                                  "code": "XX",
                                  "system": "http://terminology.hl7.org/CodeSystem/v2-0203"
                              }
                          ]
                      }
                  }
              ]
          },
          "request": {
              "method": "PUT",
              "url": "Organization/87ba6593-8c91-6188-d3e3-b6618cc27c54"
          }
      },
      {
          "fullUrl": "urn:uuid:396e6ab6-624f-44a8-841c-6e1c4cebd765",
          "resource": {
              "resourceType": "Practitioner",
              "id": "396e6ab6-624f-44a8-841c-6e1c4cebd765",
              "identifier": [
                  {
                      "value": "1210"
                  }
              ],
              "name": [
                  {
                      "family": "ANES",
                      "given": [
                          "MARK",
                          "B"
                      ]
                  }
              ]
          },
          "request": {
              "method": "PUT",
              "url": "Practitioner/396e6ab6-624f-44a8-841c-6e1c4cebd765"
          }
      },
      {
          "fullUrl": "urn:uuid:48aa596d-3522-99c3-49f7-7c3f46f7e201",
          "resource": {
              "resourceType": "Practitioner",
              "id": "48aa596d-3522-99c3-49f7-7c3f46f7e201",
              "identifier": [
                  {
                      "value": "2210"
                  }
              ],
              "name": [
                  {
                      "family": "SURGEON",
                      "given": [
                          "ROBERT",
                          "M"
                      ]
                  }
              ]
          },
          "request": {
              "method": "PUT",
              "url": "Practitioner/48aa596d-3522-99c3-49f7-7c3f46f7e201"
          }
      },
      {
          "fullUrl": "urn:uuid:7d8bce1f-0d52-bf1b-d9d8-01528c67a864",
          "resource": {
              "resourceType": "Location",
              "id": "7d8bce1f-0d52-bf1b-d9d8-01528c67a864",
              "name": "OT",
              "mode": "instance",
              "description": "OT--201",
              "physicalType": {
                  "coding": [
                      {
                          "system": "http://terminology.hl7.org/CodeSystem/location-physical-type",
                          "code": "lvl"
                      }
                  ]
              }
          },
          "request": {
              "method": "PUT",
              "url": "Location/7d8bce1f-0d52-bf1b-d9d8-01528c67a864"
          }
      },
      {
          "fullUrl": "urn:uuid:f9abfa40-6028-663e-c46c-d7ba2e2c2c0d",
          "resource": {
              "resourceType": "Location",
              "id": "f9abfa40-6028-663e-c46c-d7ba2e2c2c0d",
              "partOf": {
                  "reference": "Location/7d8bce1f-0d52-bf1b-d9d8-01528c67a864"
              },
              "name": "201",
              "mode": "instance",
              "description": "OT--201",
              "physicalType": {
                  "coding": [
                      {
                          "system": "http://terminology.hl7.org/CodeSystem/location-physical-type",
                          "code": "ro"
                      }
                  ]
              }
          },
          "request": {
              "method": "PUT",
              "url": "Location/f9abfa40-6028-663e-c46c-d7ba2e2c2c0d"
          }
      },
      {
          "fullUrl": "urn:uuid:d1b54d81-5db5-59a3-820b-cc2de9328e4e",
          "resource": {
              "resourceType": "Procedure",
              "id": "d1b54d81-5db5-59a3-820b-cc2de9328e4e",
              "status": "unknown",
              "identifier": [
                  {
                      "value": "PR1001"
                  }
              ],
              "subject": {
                  "reference": "Patient/d5fe6802-a680-e762-8f43-9659340b00ac"
              }
          },
          "request": {
              "method": "PUT",
              "url": "Procedure/d1b54d81-5db5-59a3-820b-cc2de9328e4e"
          }
      },
      {
          "fullUrl": "urn:uuid:67788ddb-a883-0905-ea3a-f5cc486b7ea0",
          "resource": {
              "resourceType": "Procedure",
              "id": "67788ddb-a883-0905-ea3a-f5cc486b7ea0",
              "code": {
                  "coding": [
                      {
                          "code": "76164006",
                          "display": "Biopsy of colon (procedure)",
                          "system": "http://snomed.info/sct"
                      }
                  ],
                  "text": "Biopsy of colon, which was part of colonoscopy"
              },
              "status": "unknown",
              "performedDateTime": "2021-09-07T14:37:33+05:30",
              "category": {
                  "coding": [
                      {
                          "code": "D",
                          "display": "Diagnostic Procedure",
                          "system": "http://example.com/v2-to-fhir-converter/CodeSystem/HL70230"
                      }
                  ]
              },
              "performer": [
                  {
                      "actor": {
                          "reference": "Practitioner/396e6ab6-624f-44a8-841c-6e1c4cebd765"
                      },
                      "function": {
                          "coding": [
                              {
                                  "code": "anesthesiologist",
                                  "system": "http://example.com/v2-to-fhir-converter/CodeSystem/performer-role",
                                  "display": "Anesthesiologist"
                              }
                          ],
                          "text": "Anesthesiologist"
                      }
                  },
                  {
                      "actor": {
                          "reference": "Practitioner/48aa596d-3522-99c3-49f7-7c3f46f7e201"
                      },
                      "function": {
                          "coding": [
                              {
                                  "code": "surgeon",
                                  "system": "http://example.com/v2-to-fhir-converter/CodeSystem/performer-role",
                                  "display": "Surgeon"
                              }
                          ],
                          "text": "Surgeon"
                      }
                  },
                  {
                      "actor": {
                          "reference": "PractitionerRole/41916d1a-2ff4-b491-96cb-5f6867b164fe"
                      }
                  }
              ],
              "reasonCode": [
                  {
                      "coding": [
                          {
                              "code": "799008",
                              "display": "Sigmoid colon ulcer",
                              "system": "http://snomed.info/sct"
                          }
                      ]
                  }
              ],
              "identifier": [
                  {
                      "value": "PR1006"
                  }
              ],
              "location": {
                  "reference": "Location/7d8bce1f-0d52-bf1b-d9d8-01528c67a864"
              },
              "partOf": [
                  {
                      "reference": "Procedure/d1b54d81-5db5-59a3-820b-cc2de9328e4e"
                  }
              ],
              "subject": {
                  "reference": "Patient/d5fe6802-a680-e762-8f43-9659340b00ac"
              }
          },
          "request": {
              "method": "PUT",
              "url": "Procedure/67788ddb-a883-0905-ea3a-f5cc486b7ea0"
          }
      },
      {
          "fullUrl": "urn:uuid:41916d1a-2ff4-b491-96cb-5f6867b164fe",
          "resource": {
              "resourceType": "PractitionerRole",
              "id": "41916d1a-2ff4-b491-96cb-5f6867b164fe",
              "code": [
                  {
                      "coding": [
                          {
                              "code": "PP",
                              "display": "Primary Care Provider",
                              "system": "http://terminology.hl7.org/CodeSystem/v2-0443"
                          }
                      ]
                  }
              ],
              "telecom": [
                  {
                      "value": "Pheob@nnnn.com",
                      "system": "email"
                  }
              ],
              "location": [
                  {
                      "reference": "Location/180bdf13-40ce-aa65-9610-b29334a02d27"
                  }
              ],
              "specialty": [
                  {
                      "coding": [
                          {
                              "code": "408443003",
                              "display": "General practice",
                              "system": "http://example.com/v2-to-fhir-converter/CodeSystem/SNOMED"
                          }
                      ]
                  }
              ],
              "practitioner": {
                  "reference": "Practitioner/f7ba41e0-e8cf-3b85-fe7c-7e69a2e1c49b"
              },
              "organization": {
                  "reference": "Organization/ebf5e32a-5dbc-75ec-91c0-1dc5b21d9ecf"
              }
          },
          "request": {
              "method": "PUT",
              "url": "PractitionerRole/41916d1a-2ff4-b491-96cb-5f6867b164fe"
          }
      },
      {
          "fullUrl": "urn:uuid:f7ba41e0-e8cf-3b85-fe7c-7e69a2e1c49b",
          "resource": {
              "resourceType": "Practitioner",
              "id": "f7ba41e0-e8cf-3b85-fe7c-7e69a2e1c49b",
              "identifier": [
                  {
                      "value": "121"
                  }
              ],
              "name": [
                  {
                      "family": "Phoeb",
                      "given": [
                          "Harold",
                          "H"
                      ]
                  }
              ]
          },
          "request": {
              "method": "PUT",
              "url": "Practitioner/f7ba41e0-e8cf-3b85-fe7c-7e69a2e1c49b"
          }
      },
      {
          "fullUrl": "urn:uuid:180bdf13-40ce-aa65-9610-b29334a02d27",
          "resource": {
              "resourceType": "Location",
              "id": "180bdf13-40ce-aa65-9610-b29334a02d27",
              "partOf": {
                  "reference": "Location/8d1c1195-9db0-67e8-8ffa-722c8fc287e9"
              },
              "name": "InternalMedicine",
              "mode": "instance",
              "description": "InternalMedicine--UniversityHospitals--C--Briones--3",
              "physicalType": {
                  "coding": [
                      {
                          "system": "http://terminology.hl7.org/CodeSystem/location-physical-type",
                          "code": "lvl"
                      }
                  ]
              }
          },
          "request": {
              "method": "PUT",
              "url": "Location/180bdf13-40ce-aa65-9610-b29334a02d27"
          }
      },
      {
          "fullUrl": "urn:uuid:fd2584ee-d5fe-42f7-8626-a054c158c046",
          "resource": {
              "resourceType": "Location",
              "id": "fd2584ee-d5fe-42f7-8626-a054c158c046",
              "name": "UniversityHospitals",
              "mode": "instance",
              "description": "InternalMedicine--UniversityHospitals--C--Briones--3",
              "physicalType": {
                  "coding": [
                      {
                          "system": "http://terminology.hl7.org/CodeSystem/location-physical-type",
                          "code": "si"
                      }
                  ]
              }
          },
          "request": {
              "method": "PUT",
              "url": "Location/fd2584ee-d5fe-42f7-8626-a054c158c046"
          }
      },
      {
          "fullUrl": "urn:uuid:eca283c2-0b89-9afb-9189-efa9e21f5c9f",
          "resource": {
              "resourceType": "Location",
              "id": "eca283c2-0b89-9afb-9189-efa9e21f5c9f",
              "partOf": {
                  "reference": "Location/fd2584ee-d5fe-42f7-8626-a054c158c046"
              },
              "name": "Briones",
              "mode": "instance",
              "description": "InternalMedicine--UniversityHospitals--C--Briones--3",
              "physicalType": {
                  "coding": [
                      {
                          "system": "http://terminology.hl7.org/CodeSystem/location-physical-type",
                          "code": "bu"
                      }
                  ]
              }
          },
          "request": {
              "method": "PUT",
              "url": "Location/eca283c2-0b89-9afb-9189-efa9e21f5c9f"
          }
      },
      {
          "fullUrl": "urn:uuid:8d1c1195-9db0-67e8-8ffa-722c8fc287e9",
          "resource": {
              "resourceType": "Location",
              "id": "8d1c1195-9db0-67e8-8ffa-722c8fc287e9",
              "partOf": {
                  "reference": "Location/eca283c2-0b89-9afb-9189-efa9e21f5c9f"
              },
              "name": "3",
              "mode": "instance",
              "description": "InternalMedicine--UniversityHospitals--C--Briones--3",
              "physicalType": {
                  "coding": [
                      {
                          "system": "http://terminology.hl7.org/CodeSystem/location-physical-type",
                          "code": "lvl"
                      }
                  ]
              }
          },
          "request": {
              "method": "PUT",
              "url": "Location/8d1c1195-9db0-67e8-8ffa-722c8fc287e9"
          }
      },
      {
          "fullUrl": "urn:uuid:ebf5e32a-5dbc-75ec-91c0-1dc5b21d9ecf",
          "resource": {
              "resourceType": "Organization",
              "id": "ebf5e32a-5dbc-75ec-91c0-1dc5b21d9ecf",
              "name": "L Multispeciality Hospital",
              "identifier": [
                  {
                      "type": {
                          "coding": [
                              {
                                  "code": "XX",
                                  "system": "http://terminology.hl7.org/CodeSystem/v2-0203"
                              }
                          ]
                      }
                  }
              ]
          },
          "request": {
              "method": "PUT",
              "url": "Organization/ebf5e32a-5dbc-75ec-91c0-1dc5b21d9ecf"
          }
      },
      {
          "fullUrl": "urn:uuid:9cfda40d-ffa1-3bb5-2627-0c0cb5825847",
          "resource": {
              "resourceType": "Organization",
              "id": "9cfda40d-ffa1-3bb5-2627-0c0cb5825847",
              "name": "Bull Run Family Practice",
              "contact": [
                  {
                      "name": {
                          "family": "Smith",
                          "given": [
                              "John",
                              "L"
                          ]
                      },
                      "telecom": [
                          {
                              "value": "5426387999",
                              "system": "phone"
                          }
                      ],
                      "address": {
                          "line": [
                              "115 MAINSTREET"
                          ],
                          "city": "GOODTOWN",
                          "state": "KY",
                          "postalCode": "42010",
                          "country": "USA"
                      }
                  }
              ]
          },
          "request": {
              "method": "PUT",
              "url": "Organization/9cfda40d-ffa1-3bb5-2627-0c0cb5825847"
          }
      },
      {
          "fullUrl": "urn:uuid:a00546c4-20d0-1f02-01be-ac602d6ccfa1",
          "resource": {
              "resourceType": "RelatedPerson",
              "id": "a00546c4-20d0-1f02-01be-ac602d6ccfa1",
              "relationship": [
                  {
                      "coding": [
                          {
                              "code": "MTH",
                              "display": "mother",
                              "system": "http://terminology.hl7.org/CodeSystem/v3-RoleCode"
                          }
                      ]
                  }
              ],
              "period": {
                  "start": "2021-01-01",
                  "end": "2021-02-01"
              },
              "address": [
                  {
                      "line": [
                          "115 MAINSTREET"
                      ],
                      "city": "GOODTOWN",
                      "state": "KY",
                      "postalCode": "42010",
                      "country": "USA"
                  },
                  {
                      "line": [
                          "115 MAINSTREET"
                      ],
                      "city": "GOODTOWN",
                      "state": "KY",
                      "postalCode": "42010",
                      "country": "USA"
                  }
              ],
              "telecom": [
                  {
                      "value": "(555) 555-2004",
                      "system": "email"
                  },
                  {
                      "value": "(555)555-2005",
                      "system": "phone",
                      "use": "work"
                  },
                  {
                      "value": "5426387999",
                      "system": "phone"
                  },
                  {
                      "value": "5493275904",
                      "system": "phone"
                  },
                  {
                      "value": "5492308914",
                      "system": "phone"
                  }
              ],
              "name": [
                  {
                      "family": "DOE",
                      "given": [
                          "MARY"
                      ]
                  },
                  {
                      "family": "Smith",
                      "given": [
                          "John",
                          "L"
                      ]
                  }
              ],
              "gender": "female",
              "patient": {
                  "reference": "Patient/d5fe6802-a680-e762-8f43-9659340b00ac"
              }
          },
          "request": {
              "method": "PUT",
              "url": "RelatedPerson/a00546c4-20d0-1f02-01be-ac602d6ccfa1"
          }
      },
      {
          "fullUrl": "urn:uuid:c617f6ba-843a-e58a-f573-72f341e608d3",
          "resource": {
              "resourceType": "Practitioner",
              "id": "c617f6ba-843a-e58a-f573-72f341e608d3",
              "identifier": [
                  {
                      "type": {
                          "coding": [
                              {
                                  "code": "Research Park"
                              }
                          ]
                      }
                  }
              ]
          },
          "request": {
              "method": "PUT",
              "url": "Practitioner/c617f6ba-843a-e58a-f573-72f341e608d3"
          }
      },
      {
          "fullUrl": "urn:uuid:c30de4cb-ad91-c3b8-b7d6-918c0effbbda",
          "resource": {
              "resourceType": "PractitionerRole",
              "id": "c30de4cb-ad91-c3b8-b7d6-918c0effbbda",
              "code": [
                  {
                      "coding": [
                          {
                              "code": "MDIR",
                              "display": "Medical Director",
                              "system": "http://terminology.hl7.org/CodeSystem/v2-0443"
                          }
                      ]
                  }
              ],
              "practitioner": {
                  "reference": "Practitioner/c617f6ba-843a-e58a-f573-72f341e608d3"
              },
              "organization": {
                  "reference": "Organization/056aa7c7-6b75-3c67-63c5-cf9604f16d25"
              }
          },
          "request": {
              "method": "PUT",
              "url": "PractitionerRole/c30de4cb-ad91-c3b8-b7d6-918c0effbbda"
          }
      },
      {
          "fullUrl": "urn:uuid:056aa7c7-6b75-3c67-63c5-cf9604f16d25",
          "resource": {
              "resourceType": "Organization",
              "id": "056aa7c7-6b75-3c67-63c5-cf9604f16d25",
              "name": "FairOaks Hspital"
          },
          "request": {
              "method": "PUT",
              "url": "Organization/056aa7c7-6b75-3c67-63c5-cf9604f16d25"
          }
      },
      {
          "fullUrl": "urn:uuid:51083bfe-8942-8cc3-d9ac-f2b4cd18de54",
          "resource": {
              "resourceType": "Observation",
              "id": "51083bfe-8942-8cc3-d9ac-f2b4cd18de54",
              "status": "final",
              "code": {
                  "coding": [
                      {
                          "code": "8867-4",
                          "display": "heart rate",
                          "system": "http://loinc.org"
                      }
                  ]
              },
              "valueQuantity": {
                  "value": 44,
                  "code": "beats/min",
                  "system": "urn:iso:std:iso:3986"
              },
              "referenceRange": [
                  {
                      "text": "70-80"
                  }
              ],
              "effectiveDateTime": "1999-07-02",
              "performer": [
                  {
                      "reference": "PractitionerRole/c30de4cb-ad91-c3b8-b7d6-918c0effbbda"
                  }
              ],
              "interpretation": [
                  {
                      "coding": [
                          {
                              "code": "A",
                              "display": "Abnormal",
                              "system": "http://terminology.hl7.org/CodeSystem/v3-ObservationInterpretation"
                          }
                      ]
                  }
              ],
              "subject": {
                  "reference": "Patient/d5fe6802-a680-e762-8f43-9659340b00ac"
              },
              "encounter": {
                  "reference": "Encounter/19f93d0c-778a-6a5d-4816-504675827c1e"
              },
              "extension": [
                  {
                      "url": "http://example.com/v2-to-fhir-converter/Observation_Status",
                      "valueCodeableConcept": {
                          "coding": [
                              {
                                  "code": "F",
                                  "display": "Final",
                                  "system": "http://terminology.hl7.org/CodeSystem/v2-0085"
                              }
                          ],
                          "text": "Final"
                      }
                  }
              ]
          },
          "request": {
              "method": "PUT",
              "url": "Observation/51083bfe-8942-8cc3-d9ac-f2b4cd18de54"
          }
      },
      {
          "fullUrl": "urn:uuid:800f5a47-6496-6175-9370-2d3b09c28688",
          "resource": {
              "resourceType": "AllergyIntolerance",
              "id": "800f5a47-6496-6175-9370-2d3b09c28688",
              "category": [
                  "medication"
              ],
              "type": "allergy",
              "code": {
                  "coding": [
                      {
                          "code": "XYZallergen"
                      }
                  ]
              },
              "reaction": [
                  {
                      "manifestation": [
                          {
                              "text": "moderate"
                          }
                      ],
                      "onset": "2021-01-21"
                  }
              ],
              "criticality": "low",
              "clinicalStatus": {
                  "coding": [
                      {
                          "code": "active",
                          "display": "Active",
                          "system": "http://terminology.hl7.org/CodeSystem/allergyintolerance-clinical"
                      }
                  ]
              },
              "patient": {
                  "reference": "Patient/d5fe6802-a680-e762-8f43-9659340b00ac"
              }
          },
          "request": {
              "method": "PUT",
              "url": "AllergyIntolerance/800f5a47-6496-6175-9370-2d3b09c28688"
          }
      },
      {
          "fullUrl": "urn:uuid:14493a95-7780-ead5-89cc-ad6c3bc31d51",
          "resource": {
              "resourceType": "Practitioner",
              "id": "14493a95-7780-ead5-89cc-ad6c3bc31d51",
              "identifier": [
                  {
                      "value": "005454"
                  }
              ],
              "name": [
                  {
                      "family": "DIAG",
                      "given": [
                          "ROBIN",
                          "B"
                      ]
                  }
              ]
          },
          "request": {
              "method": "PUT",
              "url": "Practitioner/14493a95-7780-ead5-89cc-ad6c3bc31d51"
          }
      },
      {
          "fullUrl": "urn:uuid:aec42ae9-bf55-717a-0728-35b8eb475264",
          "resource": {
              "resourceType": "Condition",
              "id": "aec42ae9-bf55-717a-0728-35b8eb475264",
              "code": {
                  "coding": [
                      {
                          "code": "422504002",
                          "display": "Ischemic stroke(disorder)",
                          "system": "http://snomed.info/sct"
                      }
                  ],
                  "text": "Stroke"
              },
              "onsetDateTime": "2004-01-25T12:50:25+05:30",
              "identifier": [
                  {
                      "value": "DI20",
                      "system": "urn:oid:1.3.6.1.4.1.44750.1.2.2",
                      "type": {
                          "coding": [
                              {
                                  "code": "CLIP",
                                  "display": "Clinical laboratory Improvement Program. Allows for the ability to designate organization identifier as a “CLIP” assigned number (for labs). Used by US Department of Defense.",
                                  "system": "http://terminology.hl7.org/CodeSystem/v2-0301"
                              }
                          ]
                      }
                  }
              ],
              "asserter": {
                  "reference": "Practitioner/14493a95-7780-ead5-89cc-ad6c3bc31d51"
              },
              "subject": {
                  "reference": "Patient/d5fe6802-a680-e762-8f43-9659340b00ac"
              },
              "extension": [
                  {
                      "url": "http://hl7.org/fhir/StructureDefinition/condition-assertedDate",
                      "valueDateTime": "2020-05-01T16:45:15+05:30"
                  },
                  {
                      "url": "http://hl7.org/fhir/StructureDefinition/condition-dueTo",
                      "valueReference": {
                          "reference": "Condition/e6047303-48ff-a905-b5a9-523635534b68"
                      }
                  }
              ]
          },
          "request": {
              "method": "PUT",
              "url": "Condition/aec42ae9-bf55-717a-0728-35b8eb475264"
          }
      },
      {
          "fullUrl": "urn:uuid:e6047303-48ff-a905-b5a9-523635534b68",
          "resource": {
              "resourceType": "Condition",
              "id": "e6047303-48ff-a905-b5a9-523635534b68",
              "identifier": [
                  {
                      "system": "urn:oid:1.3.6.1.4.1.44750.1.2.2",
                      "type": {
                          "coding": [
                              {
                                  "code": "CLIP",
                                  "display": "Clinical laboratory Improvement Program. Allows for the ability to designate organization identifier as a “CLIP” assigned number (for labs). Used by US Department of Defense.",
                                  "system": "http://terminology.hl7.org/CodeSystem/v2-0301"
                              }
                          ]
                      }
                  }
              ],
              "subject": {
                  "reference": "Patient/d5fe6802-a680-e762-8f43-9659340b00ac"
              }
          },
          "request": {
              "method": "PUT",
              "url": "Condition/e6047303-48ff-a905-b5a9-523635534b68"
          }
      },
      {
          "fullUrl": "urn:uuid:dfab6985-a691-c4f5-d2b2-6481fdfd59e4",
          "resource": {
              "resourceType": "Coverage",
              "id": "dfab6985-a691-c4f5-d2b2-6481fdfd59e4",
              "class": [
                  {
                      "value": "BAV",
                      "name": "Blue Advantage HMO",
                      "type": {
                          "coding": [
                              {
                                  "system": "http://terminology.hl7.org/CodeSystem/coverage-class",
                                  "code": "plan",
                                  "display": "Plan"
                              }
                          ]
                      }
                  },
                  {
                      "value": "Grp-12345",
                      "name": "BCBS HMO",
                      "type": {
                          "coding": [
                              {
                                  "system": "http://terminology.hl7.org/CodeSystem/coverage-class",
                                  "code": "group",
                                  "display": "Group"
                              }
                          ]
                      }
                  }
              ],
              "network": "Blue Advantage HMO",
              "period": {
                  "start": "1998-11-01"
              },
              "type": {
                  "coding": [
                      {
                          "code": "HMO",
                          "display": "health maintenance organization policy",
                          "system": "http://terminology.hl7.org/CodeSystem/v3-ActCode"
                      }
                  ]
              },
              "identifier": [
                  {
                      "value": "548851236L",
                      "type": {
                          "coding": [
                              {
                                  "code": "PLN",
                                  "display": "Policy Number",
                                  "system": "http://example.com/CodeSystem/additional-identifier"
                              }
                          ]
                      },
                      "system": "http://example.com/v2-to-fhir-converter/Identifier/policy-id"
                  },
                  {
                      "value": "Medicare-12345",
                      "type": {
                          "coding": [
                              {
                                  "code": "MC",
                                  "display": "Patient's Medicare number",
                                  "system": "http://terminology.hl7.org/CodeSystem/v2-0203"
                              }
                          ]
                      },
                      "system": "http://hl7.org/fhir/sid/us-medicare"
                  },
                  {
                      "value": "MB-12345",
                      "type": {
                          "coding": [
                              {
                                  "code": "MB",
                                  "system": "http://terminology.hl7.org/CodeSystem/v2-0203",
                                  "display": "Member Number"
                              }
                          ]
                      },
                      "system": "urn:oid:2.16.840.1.113883.1.5"
                  }
              ],
              "costToBeneficiary": [
                  {
                      "type": {
                          "coding": [
                              {
                                  "code": "DC",
                                  "display": "direct unit cost",
                                  "system": "http://terminology.hl7.org/CodeSystem/v2-0205"
                              }
                          ]
                      },
                      "valueMoney": {
                          "value": 150,
                          "currency": "USD"
                      }
                  }
              ],
              "subscriberId": "HMO-12345",
              "status": "active",
              "beneficiary": {
                  "reference": "Patient/d5fe6802-a680-e762-8f43-9659340b00ac"
              },
              "subscriber": {
                  "reference": "RelatedPerson/86ff0da6-ff14-ac7d-679e-94ac8e8c3a55"
              },
              "payor": [
                  {
                      "reference": "Organization/04a2a5f2-c971-1e42-e788-250ea487a889"
                  }
              ],
              "policyHolder": {
                  "reference": "Organization/0f21af2c-9880-54cb-14a5-5493a766da42"
              },
              "relationship": {
                  "coding": [
                      {
                          "code": "spouse",
                          "display": "Spouse",
                          "system": "http://terminology.hl7.org/CodeSystem/subscriber-relationship"
                      }
                  ]
              }
          },
          "request": {
              "method": "PUT",
              "url": "Coverage/dfab6985-a691-c4f5-d2b2-6481fdfd59e4"
          }
      },
      {
          "fullUrl": "urn:uuid:04a2a5f2-c971-1e42-e788-250ea487a889",
          "resource": {
              "resourceType": "Organization",
              "id": "04a2a5f2-c971-1e42-e788-250ea487a889",
              "address": [
                  {
                      "line": [
                          "1979 MILKY WAY"
                      ],
                      "city": "VERONA",
                      "state": "WI",
                      "postalCode": "53593",
                      "country": "US"
                  }
              ],
              "contact": [
                  {
                      "name": {
                          "family": "Roger",
                          "given": [
                              "Dann"
                          ]
                      }
                  }
              ],
              "telecom": [
                  {
                      "value": "(555)555-5555",
                      "system": "phone"
                  }
              ],
              "identifier": [
                  {
                      "value": "Org-12345",
                      "type": {
                          "coding": [
                              {
                                  "code": "NIIP",
                                  "system": "http://terminology.hl7.org/CodeSystem/v2-0203",
                                  "display": "National Insurance Payor Identifier (Payor)"
                              }
                          ]
                      },
                      "system": "urn:oid:2.16.840.1.113883.1.1"
                  }
              ],
              "name": "Blue Cross Blue Shield of Texas"
          },
          "request": {
              "method": "PUT",
              "url": "Organization/04a2a5f2-c971-1e42-e788-250ea487a889"
          }
      },
      {
          "fullUrl": "urn:uuid:0f21af2c-9880-54cb-14a5-5493a766da42",
          "resource": {
              "resourceType": "Organization",
              "id": "0f21af2c-9880-54cb-14a5-5493a766da42",
              "address": [
                  {
                      "line": [
                          "2000 MILKY WAY"
                      ],
                      "city": "VERONA",
                      "state": "WI",
                      "postalCode": "53593",
                      "country": "US"
                  }
              ],
              "identifier": [
                  {
                      "value": "Tel-12345",
                      "type": {
                          "coding": [
                              {
                                  "code": "EN",
                                  "system": "http://terminology.hl7.org/CodeSystem/v2-0203",
                                  "display": "Employer number"
                              }
                          ]
                      },
                      "system": "urn:oid:2.16.840.1.113883.1.2"
                  }
              ],
              "name": "Telstra",
              "contact": [
                  {
                      "name": {
                          "family": "Richard",
                          "given": [
                              "Paul"
                          ]
                      },
                      "telecom": [
                          {
                              "value": "(555)555-1234",
                              "system": "phone"
                          }
                      ]
                  }
              ],
              "telecom": [
                  {
                      "value": "(555)123-5678",
                      "system": "phone"
                  }
              ]
          },
          "request": {
              "method": "PUT",
              "url": "Organization/0f21af2c-9880-54cb-14a5-5493a766da42"
          }
      },
      {
          "fullUrl": "urn:uuid:86ff0da6-ff14-ac7d-679e-94ac8e8c3a55",
          "resource": {
              "resourceType": "RelatedPerson",
              "id": "86ff0da6-ff14-ac7d-679e-94ac8e8c3a55",
              "identifier": [
                  {
                      "value": "HMO-12345",
                      "type": {
                          "coding": [
                              {
                                  "code": "NI",
                                  "system": "http://terminology.hl7.org/CodeSystem/v2-0203",
                                  "display": "National unique individual identifier"
                              }
                          ]
                      },
                      "system": "urn:oid:2.16.840.1.113883.1.3"
                  },
                  {
                      "value": "EI-12345",
                      "type": {
                          "coding": [
                              {
                                  "code": "EI",
                                  "system": "http://terminology.hl7.org/CodeSystem/v2-0203",
                                  "display": "Employee number"
                              }
                          ]
                      },
                      "system": "urn:oid:2.16.840.1.113883.1.4"
                  },
                  {
                      "value": "425-57-9745",
                      "type": {
                          "coding": [
                              {
                                  "code": "SS",
                                  "display": "Social Security number",
                                  "system": "http://terminology.hl7.org/CodeSystem/v2-0203"
                              }
                          ]
                      },
                      "system": "http://hl7.org/fhir/sid/us-ssn"
                  }
              ],
              "relationship": [
                  {
                      "coding": [
                          {
                              "code": "SPS",
                              "display": "spouse",
                              "system": "http://terminology.hl7.org/CodeSystem/v3-RoleCode"
                          }
                      ]
                  }
              ],
              "address": [
                  {
                      "line": [
                          "3857 Velvet Treasure Terrace"
                      ],
                      "city": "Midnight",
                      "state": "NC",
                      "postalCode": "27878",
                      "country": "US"
                  }
              ],
              "name": [
                  {
                      "family": "Doe",
                      "given": [
                          "Rosallie",
                          "John"
                      ],
                      "suffix": [
                          "III",
                          "Bachelors"
                      ],
                      "prefix": [
                          "Mrs."
                      ],
                      "use": "official"
                  }
              ],
              "gender": "female",
              "birthDate": "1975-02-28",
              "patient": {
                  "reference": "Patient/d5fe6802-a680-e762-8f43-9659340b00ac"
              },
              "telecom": [
                  {
                      "value": "(555)123-1234",
                      "system": "phone"
                  }
              ],
              "communication": [
                  {
                      "language": {
                          "coding": [
                              {
                                  "code": "en",
                                  "display": "English"
                              }
                          ]
                      },
                      "preferred": true
                  }
              ]
          },
          "request": {
              "method": "PUT",
              "url": "RelatedPerson/86ff0da6-ff14-ac7d-679e-94ac8e8c3a55"
          }
      },
      {
          "fullUrl": "urn:uuid:ae62dffe-1a0f-c68b-e7a3-e33cfce7761e",
          "resource": {
              "resourceType": "Practitioner",
              "id": "ae62dffe-1a0f-c68b-e7a3-e33cfce7761e",
              "identifier": [
                  {
                      "value": "10535",
                      "system": "http://example.com/v2-to-fhir-converter/Identifier/L",
                      "type": {
                          "coding": [
                              {
                                  "code": "MR",
                                  "display": "Medical record number",
                                  "system": "http://terminology.hl7.org/CodeSystem/v2-0203"
                              }
                          ]
                      }
                  }
              ],
              "name": [
                  {
                      "family": "Goldbergn",
                      "given": [
                          "Ludwig",
                          "A"
                      ],
                      "suffix": [
                          "III",
                          "PHD"
                      ],
                      "prefix": [
                          "Dr"
                      ],
                      "use": "official"
                  }
              ]
          },
          "request": {
              "method": "PUT",
              "url": "Practitioner/ae62dffe-1a0f-c68b-e7a3-e33cfce7761e"
          }
      },
      {
          "fullUrl": "urn:uuid:1e053838-5797-87be-de94-00f1a32db2f8",
          "resource": {
              "resourceType": "Location",
              "id": "1e053838-5797-87be-de94-00f1a32db2f8",
              "name": "Route 50 intersection",
              "address": {
                  "line": [
                      "Route 50",
                      "Fairfax",
                      "VA"
                  ],
                  "postalCode": "20324"
              }
          },
          "request": {
              "method": "PUT",
              "url": "Location/1e053838-5797-87be-de94-00f1a32db2f8"
          }
      },
      {
          "fullUrl": "urn:uuid:dfddbc26-7d75-05d7-d8e3-70e545afef70",
          "resource": {
              "resourceType": "Observation",
              "id": "dfddbc26-7d75-05d7-d8e3-70e545afef70",
              "identifier": [
                  {
                      "value": "5348"
                  }
              ],
              "status": "final",
              "code": {
                  "coding": [
                      {
                          "code": "injury-incident",
                          "display": "Injury Incident Description Narrative",
                          "system": "http://example.com/v2-to-fhir-converter/CodeSystem/observation-code"
                      }
                  ]
              },
              "component": [
                  {
                      "code": {
                          "coding": [
                              {
                                  "code": "AJRI",
                                  "display": "Accident Job Related Indicator",
                                  "system": "http://example.com/v2-to-fhir-converter/CodeSystem/accident-indicator"
                              }
                          ]
                      },
                      "valueCodeableConcept": {
                          "coding": [
                              {
                                  "code": "Y",
                                  "display": "Yes",
                                  "system": "http://terminology.hl7.org/CodeSystem/v2-0136"
                              }
                          ]
                      }
                  },
                  {
                      "code": {
                          "coding": [
                              {
                                  "code": "ADI",
                                  "display": "Accident Death Indicator",
                                  "system": "http://example.com/v2-to-fhir-converter/CodeSystem/accident-indicator"
                              }
                          ]
                      },
                      "valueCodeableConcept": {
                          "coding": [
                              {
                                  "code": "N",
                                  "display": "No",
                                  "system": "http://terminology.hl7.org/CodeSystem/v2-0136"
                              }
                          ]
                      }
                  },
                  {
                      "code": {
                          "coding": [
                              {
                                  "code": "PNI",
                                  "display": "Police Notified Indicator",
                                  "system": "http://example.com/v2-to-fhir-converter/CodeSystem/accident-indicator"
                              }
                          ]
                      },
                      "valueCodeableConcept": {
                          "coding": [
                              {
                                  "code": "Y",
                                  "display": "Yes",
                                  "system": "http://terminology.hl7.org/CodeSystem/v2-0136"
                              }
                          ]
                      }
                  }
              ],
              "valueString": "vehicle acident",
              "effectiveDateTime": "2014-03-17",
              "subject": {
                  "reference": "Patient/d5fe6802-a680-e762-8f43-9659340b00ac"
              },
              "encounter": {
                  "reference": "Encounter/19f93d0c-778a-6a5d-4816-504675827c1e"
              },
              "performer": [
                  {
                      "reference": "Practitioner/ae62dffe-1a0f-c68b-e7a3-e33cfce7761e"
                  }
              ],
              "extension": [
                  {
                      "url": "http://hl7.org/fhir/us/vrdr/StructureDefinition/Observation-Location",
                      "valueReference": {
                          "reference": "Location/1e053838-5797-87be-de94-00f1a32db2f8"
                      }
                  }
              ]
          },
          "request": {
              "method": "PUT",
              "url": "Observation/dfddbc26-7d75-05d7-d8e3-70e545afef70"
          }
      }
  ]
}