{
  "resourceType": "Bundle",
  "type": "batch",
  "timestamp": "2021-01-15T19:35:00+05:30",
  "identifier": {
      "value": "MSG00007"
  },
  "id": "873317fc-55d2-ab3b-3bbc-a2b4e80847de",
  "entry": [
      {
          "fullUrl": "urn:uuid:5e14e4ba-dfeb-6ea7-86b8-9cc37528bbab",
          "resource": {
              "resourceType": "MessageHeader",
              "id": "5e14e4ba-dfeb-6ea7-86b8-9cc37528bbab",
              "source": {
                  "name": "24GHH",
                  "endpoint": "urn:oid:2.16.840.1.114884.10.20"
              },
              "destination": [
                  {
                      "name": "25GHH",
                      "endpoint": "urn:oid:2.16.840.1.114884.10.23",
                      "receiver": {
                          "reference": "Organization/527280c1-34d1-c639-e9ba-61986d28e266"
                      }
                  }
              ],
              "meta": {
                  "security": [
                      {
                          "display": "SECURITY"
                      }
                  ],
                  "tag": [
                      {
                          "code": "P",
                          "system": "http://terminology.hl7.org/CodeSystem/v2-0103"
                      }
                  ]
              },
              "eventCoding": {
                  "code": "A07",
                  "system": "http://terminology.hl7.org/CodeSystem/v2-0003",
                  "display": "ADT^A07^ADT_A07"
              },
              "language": "en-US",
              "sender": {
                  "reference": "Organization/4356fb81-6ecd-2d70-57b1-47812638e785"
              },
              "responsible": {
                  "reference": "Organization/33532a82-d220-4c0d-1abe-53e48951c201"
              }
          },
          "request": {
              "method": "PUT",
              "url": "MessageHeader/5e14e4ba-dfeb-6ea7-86b8-9cc37528bbab"
          }
      },
      {
          "fullUrl": "urn:uuid:aaf37d11-5d66-af8d-c286-16b46b7f9ada",
          "resource": {
              "resourceType": "Provenance",
              "id": "aaf37d11-5d66-af8d-c286-16b46b7f9ada",
              "text": {
                  "status": "generated",
                  "div": "<div xmlns=\"http://www.w3.org/1999/xhtml\"><p><span>Resource bundle generated on 2022-03-28T07:15:35.045Z using Microsoft FHIR Converter.</span><span>Template Version: TEMPLATE_VERSION_PLACEHOLDER.</span><span>Template URL: https://github.com/microsoft/FHIR-Converter/releases/download/vTEMPLATE_VERSION_PLACEHOLDER/Hl7v2DefaultTemplates.tar.gz.</span><span>Root template: ADT_A07.</span></p></div>"
              },
              "occurredDateTime": "2021-01-15T19:35:00+05:30",
              "recorded": "2021-01-15T19:35:00+05:30",
              "agent": [
                  {
                      "type": {
                          "coding": [
                              {
                                  "code": "author",
                                  "system": "http://terminology.hl7.org/CodeSystem/provenance-participant-type"
                              }
                          ]
                      },
                      "who": {
                          "reference": "Organization/33532a82-d220-4c0d-1abe-53e48951c201"
                      }
                  }
              ],
              "activity": {
                  "coding": [
                      {
                          "display": "ADT^A07^ADT_A07"
                      }
                  ]
              },
              "entity": [
                  {
                      "role": "source",
                      "what": {
                          "reference": "Device/de4a0e37-220f-608a-1333-2640637851e9"
                      }
                  }
              ],
              "target": [
                  {
                      "reference": "Bundle/873317fc-55d2-ab3b-3bbc-a2b4e80847de"
                  }
              ]
          },
          "request": {
              "method": "PUT",
              "url": "Provenance/aaf37d11-5d66-af8d-c286-16b46b7f9ada"
          }
      },
      {
          "fullUrl": "urn:uuid:4356fb81-6ecd-2d70-57b1-47812638e785",
          "resource": {
              "resourceType": "Organization",
              "id": "4356fb81-6ecd-2d70-57b1-47812638e785",
              "identifier": [
                  {
                      "value": "GHHSFacility",
                      "system": "http://example.com/v2-to-fhir-converter/Identifier/GHHSFacility"
                  },
                  {
                      "value": "urn:oid:2.16.840.1.122848.1.30",
                      "system": "urn:ietf:rfc:3986",
                      "type": {
                          "coding": [
                              {
                                  "code": "ISO",
                                  "display": "An International Standards Organization Object Identifier (OID), in accordance with ISO/IEC 8824. Formatted as decimal digits separated by periods; recommended limit of 64 characters",
                                  "system": "http://terminology.hl7.org/CodeSystem/v2-0301"
                              }
                          ]
                      }
                  }
              ],
              "partOf": {
                  "reference": "Organization/33532a82-d220-4c0d-1abe-53e48951c201"
              },
              "address": [
                  {
                      "country": "USA"
                  }
              ]
          },
          "request": {
              "method": "PUT",
              "url": "Organization/4356fb81-6ecd-2d70-57b1-47812638e785"
          }
      },
      {
          "fullUrl": "urn:uuid:62781ad6-3896-cb63-0178-ead0c4a432b5",
          "resource": {
              "resourceType": "Organization",
              "id": "62781ad6-3896-cb63-0178-ead0c4a432b5",
              "identifier": [
                  {
                      "value": "GHHRFacility",
                      "system": "http://example.com/v2-to-fhir-converter/Identifier/GHHRFacility"
                  },
                  {
                      "value": "urn:oid:2.16.840.1.1122848.1.32",
                      "system": "urn:ietf:rfc:3986",
                      "type": {
                          "coding": [
                              {
                                  "code": "ISO",
                                  "display": "An International Standards Organization Object Identifier (OID), in accordance with ISO/IEC 8824. Formatted as decimal digits separated by periods; recommended limit of 64 characters",
                                  "system": "http://terminology.hl7.org/CodeSystem/v2-0301"
                              }
                          ]
                      }
                  }
              ],
              "partOf": {
                  "reference": "Organization/527280c1-34d1-c639-e9ba-61986d28e266"
              },
              "address": [
                  {
                      "country": "USA"
                  }
              ]
          },
          "request": {
              "method": "PUT",
              "url": "Organization/62781ad6-3896-cb63-0178-ead0c4a432b5"
          }
      },
      {
          "fullUrl": "urn:uuid:33532a82-d220-4c0d-1abe-53e48951c201",
          "resource": {
              "resourceType": "Organization",
              "id": "33532a82-d220-4c0d-1abe-53e48951c201",
              "name": "22 GHH Inc."
          },
          "request": {
              "method": "PUT",
              "url": "Organization/33532a82-d220-4c0d-1abe-53e48951c201"
          }
      },
      {
          "fullUrl": "urn:uuid:527280c1-34d1-c639-e9ba-61986d28e266",
          "resource": {
              "resourceType": "Organization",
              "id": "527280c1-34d1-c639-e9ba-61986d28e266",
              "name": "23 GHH Inc."
          },
          "request": {
              "method": "PUT",
              "url": "Organization/527280c1-34d1-c639-e9ba-61986d28e266"
          }
      },
      {
          "fullUrl": "urn:uuid:de4a0e37-220f-608a-1333-2640637851e9",
          "resource": {
              "resourceType": "Device",
              "id": "de4a0e37-220f-608a-1333-2640637851e9",
              "identifier": [
                  {
                      "value": "ADT1"
                  }
              ]
          },
          "request": {
              "method": "PUT",
              "url": "Device/de4a0e37-220f-608a-1333-2640637851e9"
          }
      },
      {
          "fullUrl": "urn:uuid:d5fe6802-a680-e762-8f43-9659340b00ac",
          "resource": {
              "resourceType": "Patient",
              "id": "d5fe6802-a680-e762-8f43-9659340b00ac",
              "identifier": [
                  {
                      "value": "PATID1234",
                      "type": {
                          "coding": [
                              {
                                  "code": "GOOD HEALTH HOSPITAL",
                                  "display": "GOOD HEALTH HOSPITAL"
                              }
                          ]
                      },
                      "system": "http://example.com/v2-to-fhir-converter/Identifier/ADT1"
                  },
                  {
                      "value": "123456789"
                  },
                  {
                      "value": "220917255",
                      "type": {
                          "coding": [
                              {
                                  "code": "SB",
                                  "system": "http://terminology.hl7.org/CodeSystem/v2-0203"
                              }
                          ]
                      },
                      "system": "http://hl7.org/fhir/sid/us-ssn"
                  },
                  {
                      "value": "DL",
                      "type": {
                          "coding": [
                              {
                                  "code": "DL"
                              }
                          ]
                      },
                      "system": "http://example.com/v2-to-fhir-converter/CodeSystem/T05349638"
                  }
              ],
              "name": [
                  {
                      "family": "EVERYMAN",
                      "given": [
                          "ADAM",
                          "A"
                      ],
                      "suffix": [
                          "III"
                      ]
                  },
                  {
                      "family": "SMITH",
                      "given": [
                          "JOHN"
                      ]
                  }
              ],
              "birthDate": "1961-06-15",
              "gender": "male",
              "address": [
                  {
                      "line": [
                          "115 MAINSTREET"
                      ],
                      "city": "GOODTOWN",
                      "state": "KY",
                      "postalCode": "42010",
                      "country": "USA"
                  }
              ],
              "telecom": [
                  {
                      "use": "home",
                      "system": "phone"
                  },
                  {
                      "value": "89898989",
                      "use": "work",
                      "system": "email"
                  }
              ],
              "communication": [
                  {
                      "language": {
                          "coding": [
                              {
                                  "code": "EN",
                                  "display": "ENGLISH",
                                  "system": "http://example.com/v2-to-fhir-converter/CodeSystem/HL70296"
                              }
                          ]
                      },
                      "preferred": true
                  }
              ],
              "maritalStatus": {
                  "coding": [
                      {
                          "code": "M",
                          "display": "Married",
                          "system": "http://terminology.hl7.org/CodeSystem/v3-MaritalStatus"
                      }
                  ]
              },
              "multipleBirthInteger": 1,
              "deceasedBoolean": false,
              "meta": {
                  "lastUpdated": "2021-01-10T04:05:14+05:30"
              },
              "extension": [
                  {
                      "url": "http://hl7.org/fhir/us/core/StructureDefinition/us-core-race",
                      "extension": [
                          {
                              "url": "ombCategory",
                              "valueCoding": {
                                  "code": "2106-3",
                                  "display": "White",
                                  "system": "urn:oid:2.16.840.1.113883.6.238"
                              }
                          },
                          {
                              "url": "text",
                              "valueString": "White"
                          }
                      ]
                  },
                  {
                      "url": "http://hl7.org/fhir/StructureDefinition/patient-mothersMaidenName",
                      "valueString": "Davis"
                  },
                  {
                      "url": "http://hl7.org/fhir/StructureDefinition/patient-birthPlace",
                      "valueAddress": {
                          "text": "St. Francis Community Hospital of Lower South Side"
                      }
                  },
                  {
                      "url": "http://hl7.org/fhir/StructureDefinition/patient-religion",
                      "valueCodeableConcept": {
                          "coding": [
                              {
                                  "code": "1009",
                                  "display": "Baptist",
                                  "system": "http://terminology.hl7.org/CodeSystem/v3-ReligiousAffiliation"
                              }
                          ]
                      }
                  },
                  {
                      "url": "http://hl7.org/fhir/us/core/StructureDefinition/us-core-ethnicity",
                      "extension": [
                          {
                              "url": "ombCategory",
                              "valueCoding": {
                                  "code": "2186-5",
                                  "display": "Non Hispanic or Latino",
                                  "system": "urn:oid:2.16.840.1.113883.6.238"
                              }
                          },
                          {
                              "url": "text",
                              "valueString": "Non Hispanic or Latino"
                          }
                      ]
                  },
                  {
                      "url": "http://hl7.org/fhir/StructureDefinition/patient-citizenship",
                      "extension": [
                          {
                              "url": "code",
                              "valueCodeableConcept": {
                                  "coding": [
                                      {
                                          "code": "US",
                                          "display": "United States of America",
                                          "system": "urn:iso:std:iso:3166"
                                      }
                                  ],
                                  "text": "United States of America"
                              }
                          }
                      ]
                  }
              ]
          },
          "request": {
              "method": "PUT",
              "url": "Patient/d5fe6802-a680-e762-8f43-9659340b00ac"
          }
      },
      {
          "fullUrl": "urn:uuid:4d89d103-815b-6284-c821-c995368a2aeb",
          "resource": {
              "resourceType": "Account",
              "id": "4d89d103-815b-6284-c821-c995368a2aeb",
              "identifier": [
                  {
                      "value": "PACCT110"
                  }
              ],
              "status": "active",
              "subject": [
                  {
                      "reference": "Patient/d5fe6802-a680-e762-8f43-9659340b00ac"
                  }
              ]
          },
          "request": {
              "method": "PUT",
              "url": "Account/4d89d103-815b-6284-c821-c995368a2aeb"
          }
      },
      {
          "fullUrl": "urn:uuid:d00df304-17fa-8d9a-bd02-3276b1781ea1",
          "resource": {
              "resourceType": "Practitioner",
              "id": "d00df304-17fa-8d9a-bd02-3276b1781ea1",
              "identifier": [
                  {
                      "value": "0210"
                  }
              ],
              "name": [
                  {
                      "family": "ATTEND",
                      "given": [
                          "AARON",
                          "A"
                      ]
                  }
              ]
          },
          "request": {
              "method": "PUT",
              "url": "Practitioner/d00df304-17fa-8d9a-bd02-3276b1781ea1"
          }
      },
      {
          "fullUrl": "urn:uuid:21d5ab8b-8f3d-4fd9-f1c4-6f32568b0ae9",
          "resource": {
              "resourceType": "Practitioner",
              "id": "21d5ab8b-8f3d-4fd9-f1c4-6f32568b0ae9",
              "identifier": [
                  {
                      "value": "0310"
                  }
              ],
              "name": [
                  {
                      "family": "REFER",
                      "given": [
                          "LINDA",
                          "C"
                      ]
                  }
              ]
          },
          "request": {
              "method": "PUT",
              "url": "Practitioner/21d5ab8b-8f3d-4fd9-f1c4-6f32568b0ae9"
          }
      },
      {
          "fullUrl": "urn:uuid:221b9db9-1de9-90d1-9fbf-9523a06e427c",
          "resource": {
              "resourceType": "Location",
              "id": "221b9db9-1de9-90d1-9fbf-9523a06e427c",
              "name": "OPD",
              "mode": "instance",
              "description": "OPD--0001--01--GOOD HEALTH HOSPITAL",
              "physicalType": {
                  "coding": [
                      {
                          "system": "http://terminology.hl7.org/CodeSystem/location-physical-type",
                          "code": "lvl"
                      }
                  ]
              }
          },
          "request": {
              "method": "PUT",
              "url": "Location/221b9db9-1de9-90d1-9fbf-9523a06e427c"
          }
      },
      {
          "fullUrl": "urn:uuid:680e3787-2fea-c526-fddc-fe7799c0dbf8",
          "resource": {
              "resourceType": "Location",
              "id": "680e3787-2fea-c526-fddc-fe7799c0dbf8",
              "partOf": {
                  "reference": "Location/221b9db9-1de9-90d1-9fbf-9523a06e427c"
              },
              "name": "0001",
              "mode": "instance",
              "description": "OPD--0001--01--GOOD HEALTH HOSPITAL",
              "physicalType": {
                  "coding": [
                      {
                          "system": "http://terminology.hl7.org/CodeSystem/location-physical-type",
                          "code": "ro"
                      }
                  ]
              }
          },
          "request": {
              "method": "PUT",
              "url": "Location/680e3787-2fea-c526-fddc-fe7799c0dbf8"
          }
      },
      {
          "fullUrl": "urn:uuid:75e3808c-5e3e-9ab9-7124-2fb485353fba",
          "resource": {
              "resourceType": "Location",
              "id": "75e3808c-5e3e-9ab9-7124-2fb485353fba",
              "partOf": {
                  "reference": "Location/680e3787-2fea-c526-fddc-fe7799c0dbf8"
              },
              "name": "01",
              "mode": "instance",
              "description": "OPD--0001--01--GOOD HEALTH HOSPITAL",
              "physicalType": {
                  "coding": [
                      {
                          "system": "http://terminology.hl7.org/CodeSystem/location-physical-type",
                          "code": "bd"
                      }
                  ]
              }
          },
          "request": {
              "method": "PUT",
              "url": "Location/75e3808c-5e3e-9ab9-7124-2fb485353fba"
          }
      },
      {
          "fullUrl": "urn:uuid:f3a48419-5674-2456-0237-ea79a6293066",
          "resource": {
              "resourceType": "Location",
              "id": "f3a48419-5674-2456-0237-ea79a6293066",
              "name": "GOOD HEALTH HOSPITAL",
              "mode": "instance",
              "description": "OPD--0001--01--GOOD HEALTH HOSPITAL",
              "physicalType": {
                  "coding": [
                      {
                          "system": "http://terminology.hl7.org/CodeSystem/location-physical-type",
                          "code": "si"
                      }
                  ]
              }
          },
          "request": {
              "method": "PUT",
              "url": "Location/f3a48419-5674-2456-0237-ea79a6293066"
          }
      },
      {
          "fullUrl": "urn:uuid:e24d4c31-6af3-46fb-1887-a7ff3887f565",
          "resource": {
              "resourceType": "Location",
              "id": "e24d4c31-6af3-46fb-1887-a7ff3887f565",
              "partOf": {
                  "reference": "Location/f174a0b5-a5ab-7323-0c10-2d7c76bcc824"
              },
              "name": "SPROOM",
              "mode": "instance",
              "description": "SPROOM--ROOM2--2.16.840.1.113883.4.642.1.1108--ISO--BED-1--FACILITY-1--BUILDING-1--FLOOR-1",
              "physicalType": {
                  "coding": [
                      {
                          "system": "http://terminology.hl7.org/CodeSystem/location-physical-type",
                          "code": "lvl"
                      }
                  ]
              }
          },
          "request": {
              "method": "PUT",
              "url": "Location/e24d4c31-6af3-46fb-1887-a7ff3887f565"
          }
      },
      {
          "fullUrl": "urn:uuid:0184e7e6-b0c3-f512-ae3d-9c3a0fa59e2b",
          "resource": {
              "resourceType": "Location",
              "id": "0184e7e6-b0c3-f512-ae3d-9c3a0fa59e2b",
              "partOf": {
                  "reference": "Location/e24d4c31-6af3-46fb-1887-a7ff3887f565"
              },
              "name": "ROOM2",
              "identifier": [
                  {
                      "value": "urn:oid:2.16.840.1.113883.4.642.1.1108",
                      "system": "urn:ietf:rfc:3986"
                  }
              ],
              "mode": "instance",
              "description": "SPROOM--ROOM2--2.16.840.1.113883.4.642.1.1108--ISO--BED-1--FACILITY-1--BUILDING-1--FLOOR-1",
              "physicalType": {
                  "coding": [
                      {
                          "system": "http://terminology.hl7.org/CodeSystem/location-physical-type",
                          "code": "ro"
                      }
                  ]
              }
          },
          "request": {
              "method": "PUT",
              "url": "Location/0184e7e6-b0c3-f512-ae3d-9c3a0fa59e2b"
          }
      },
      {
          "fullUrl": "urn:uuid:dedb52d9-ed65-f40e-627b-1c66a9fd4b08",
          "resource": {
              "resourceType": "Location",
              "id": "dedb52d9-ed65-f40e-627b-1c66a9fd4b08",
              "partOf": {
                  "reference": "Location/0184e7e6-b0c3-f512-ae3d-9c3a0fa59e2b"
              },
              "name": "BED-1",
              "mode": "instance",
              "description": "SPROOM--ROOM2--2.16.840.1.113883.4.642.1.1108--ISO--BED-1--FACILITY-1--BUILDING-1--FLOOR-1",
              "physicalType": {
                  "coding": [
                      {
                          "system": "http://terminology.hl7.org/CodeSystem/location-physical-type",
                          "code": "bd"
                      }
                  ]
              }
          },
          "request": {
              "method": "PUT",
              "url": "Location/dedb52d9-ed65-f40e-627b-1c66a9fd4b08"
          }
      },
      {
          "fullUrl": "urn:uuid:8d2c2e8a-26cf-1784-226e-a6a938d5a263",
          "resource": {
              "resourceType": "Location",
              "id": "8d2c2e8a-26cf-1784-226e-a6a938d5a263",
              "name": "FACILITY-1",
              "mode": "instance",
              "description": "SPROOM--ROOM2--2.16.840.1.113883.4.642.1.1108--ISO--BED-1--FACILITY-1--BUILDING-1--FLOOR-1",
              "physicalType": {
                  "coding": [
                      {
                          "system": "http://terminology.hl7.org/CodeSystem/location-physical-type",
                          "code": "si"
                      }
                  ]
              }
          },
          "request": {
              "method": "PUT",
              "url": "Location/8d2c2e8a-26cf-1784-226e-a6a938d5a263"
          }
      },
      {
          "fullUrl": "urn:uuid:24814560-09cc-3f38-f5e9-9b6106970a8f",
          "resource": {
              "resourceType": "Location",
              "id": "24814560-09cc-3f38-f5e9-9b6106970a8f",
              "partOf": {
                  "reference": "Location/8d2c2e8a-26cf-1784-226e-a6a938d5a263"
              },
              "name": "BUILDING-1",
              "mode": "instance",
              "description": "SPROOM--ROOM2--2.16.840.1.113883.4.642.1.1108--ISO--BED-1--FACILITY-1--BUILDING-1--FLOOR-1",
              "physicalType": {
                  "coding": [
                      {
                          "system": "http://terminology.hl7.org/CodeSystem/location-physical-type",
                          "code": "bu"
                      }
                  ]
              }
          },
          "request": {
              "method": "PUT",
              "url": "Location/24814560-09cc-3f38-f5e9-9b6106970a8f"
          }
      },
      {
          "fullUrl": "urn:uuid:f174a0b5-a5ab-7323-0c10-2d7c76bcc824",
          "resource": {
              "resourceType": "Location",
              "id": "f174a0b5-a5ab-7323-0c10-2d7c76bcc824",
              "partOf": {
                  "reference": "Location/24814560-09cc-3f38-f5e9-9b6106970a8f"
              },
              "name": "FLOOR-1",
              "mode": "instance",
              "description": "SPROOM--ROOM2--2.16.840.1.113883.4.642.1.1108--ISO--BED-1--FACILITY-1--BUILDING-1--FLOOR-1",
              "physicalType": {
                  "coding": [
                      {
                          "system": "http://terminology.hl7.org/CodeSystem/location-physical-type",
                          "code": "lvl"
                      }
                  ]
              }
          },
          "request": {
              "method": "PUT",
              "url": "Location/f174a0b5-a5ab-7323-0c10-2d7c76bcc824"
          }
      },
      {
          "fullUrl": "urn:uuid:19f93d0c-778a-6a5d-4816-504675827c1e",
          "resource": {
              "resourceType": "Encounter",
              "id": "19f93d0c-778a-6a5d-4816-504675827c1e",
              "class": {
                  "code": "AMB",
                  "display": "ambulatory",
                  "system": "http://terminology.hl7.org/CodeSystem/v3-ActCode"
              },
              "status": "in-progress",
              "location": [
                  {
                      "status": "active",
                      "location": {
                          "reference": "Location/221b9db9-1de9-90d1-9fbf-9523a06e427c"
                      }
                  },
                  {
                      "status": "completed",
                      "location": {
                          "reference": "Location/e24d4c31-6af3-46fb-1887-a7ff3887f565"
                      }
                  }
              ],
              "participant": [
                  {
                      "type": [
                          {
                              "coding": [
                                  {
                                      "code": "ATND",
                                      "system": "http://terminology.hl7.org/CodeSystem/v3-ParticipationType",
                                      "display": "attender"
                                  }
                              ]
                          }
                      ],
                      "individual": {
                          "reference": "Practitioner/d00df304-17fa-8d9a-bd02-3276b1781ea1"
                      }
                  },
                  {
                      "type": [
                          {
                              "coding": [
                                  {
                                      "code": "REF",
                                      "system": "http://terminology.hl7.org/CodeSystem/v3-ParticipationType"
                                  }
                              ],
                              "text": "referrer"
                          }
                      ],
                      "individual": {
                          "reference": "Practitioner/21d5ab8b-8f3d-4fd9-f1c4-6f32568b0ae9"
                      }
                  }
              ],
              "identifier": [
                  {
                      "value": "5001",
                      "system": "http://example.com/v2-to-fhir-converter/Identifier/AccMgr",
                      "type": {
                          "coding": [
                              {
                                  "code": "VN",
                                  "system": "http://terminology.hl7.org/CodeSystem/v2-0203"
                              }
                          ],
                          "text": "visit number"
                      }
                  }
              ],
              "period": {
                  "start": "2021-01-15T19:15:10+05:30"
              },
              "text": {
                  "status": "generated",
                  "div": "<div xmlns=\"http://www.w3.org/1999/xhtml\"><p><span>Visit Description: </span></p></div>"
              },
              "account": [
                  {
                      "reference": "Account/4d89d103-815b-6284-c821-c995368a2aeb"
                  },
                  {
                      "reference": "Account/c3891656-5fe0-31ba-65c6-d43f69f9459f"
                  }
              ],
              "subject": {
                  "reference": "Patient/d5fe6802-a680-e762-8f43-9659340b00ac"
              }
          },
          "request": {
              "method": "PUT",
              "url": "Encounter/19f93d0c-778a-6a5d-4816-504675827c1e"
          }
      },
      {
          "fullUrl": "urn:uuid:f63d3422-af5c-03f8-aa55-5f20d0d11aef",
          "resource": {
              "resourceType": "Provenance",
              "id": "f63d3422-af5c-03f8-aa55-5f20d0d11aef",
              "occurredDateTime": "2021-01-15T19:15:10+05:30",
              "recorded": "2021-01-15T19:15:10+05:30",
              "reason": [
                  {
                      "coding": [
                          {
                              "code": "HOPERAT",
                              "display": "healthcare operations",
                              "system": "http://terminology.hl7.org/CodeSystem/v3-ActReason"
                          }
                      ]
                  }
              ],
              "agent": [
                  {
                      "who": {
                          "reference": "Practitioner/6c9ea0f5-1b45-04f9-e07d-bae5096b7a4a"
                      }
                  }
              ],
              "activity": {
                  "text": "ADT^A07^ADT_A07"
              },
              "location": {
                  "reference": "Location/9b7cb9bd-a061-04d1-4757-24dbda8f72b2"
              },
              "target": [
                  {
                      "reference": "Bundle/873317fc-55d2-ab3b-3bbc-a2b4e80847de"
                  }
              ]
          },
          "request": {
              "method": "PUT",
              "url": "Provenance/f63d3422-af5c-03f8-aa55-5f20d0d11aef"
          }
      },
      {
          "fullUrl": "urn:uuid:df03b003-6818-1abd-209e-0889025aad16",
          "resource": {
              "resourceType": "Organization",
              "id": "df03b003-6818-1abd-209e-0889025aad16",
              "identifier": [
                  {
                      "value": "NPIID",
                      "system": "http://example.com/v2-to-fhir-converter/Identifier/NPIID"
                  },
                  {
                      "value": "urn:oid:2.16.840.1.113883.4.6",
                      "system": "urn:ietf:rfc:3986",
                      "type": {
                          "coding": [
                              {
                                  "code": "ISO",
                                  "display": "An International Standards Organization Object Identifier (OID), in accordance with ISO/IEC 8824. Formatted as decimal digits separated by periods; recommended limit of 64 characters",
                                  "system": "http://terminology.hl7.org/CodeSystem/v2-0301"
                              }
                          ]
                      }
                  }
              ]
          },
          "request": {
              "method": "PUT",
              "url": "Organization/df03b003-6818-1abd-209e-0889025aad16"
          }
      },
      {
          "fullUrl": "urn:uuid:6c9ea0f5-1b45-04f9-e07d-bae5096b7a4a",
          "resource": {
              "resourceType": "Practitioner",
              "id": "6c9ea0f5-1b45-04f9-e07d-bae5096b7a4a",
              "identifier": [
                  {
                      "value": "9941339108",
                      "system": "urn:oid:2.16.840.1.113883.4.6",
                      "assigner": {
                          "reference": "Organization/df03b003-6818-1abd-209e-0889025aad16"
                      },
                      "type": {
                          "coding": [
                              {
                                  "code": "NPI",
                                  "display": "National provider identifier",
                                  "system": "http://terminology.hl7.org/CodeSystem/v2-0203"
                              }
                          ]
                      }
                  }
              ],
              "name": [
                  {
                      "family": "Smith",
                      "given": [
                          "Adam",
                          "Mellie"
                      ],
                      "suffix": [
                          "Jr",
                          "MD",
                          "GP"
                      ],
                      "prefix": [
                          "Dr"
                      ],
                      "use": "official",
                      "period": {
                          "start": "2010-01-15T19:15:10+05:30",
                          "end": "2020-01-15T19:15:10+05:30"
                      }
                  }
              ]
          },
          "request": {
              "method": "PUT",
              "url": "Practitioner/6c9ea0f5-1b45-04f9-e07d-bae5096b7a4a"
          }
      },
      {
          "fullUrl": "urn:uuid:9b7cb9bd-a061-04d1-4757-24dbda8f72b2",
          "resource": {
              "resourceType": "Location",
              "id": "9b7cb9bd-a061-04d1-4757-24dbda8f72b2",
              "name": "Good Health Hospital",
              "identifier": [
                  {
                      "value": "urn:oid:1.3.6.1.4.1.44750.1.4",
                      "system": "urn:ietf:rfc:3986"
                  }
              ],
              "physicalType": {
                  "coding": [
                      {
                          "code": "si",
                          "display": "site",
                          "system": "http://terminology.hl7.org/CodeSystem/location-physical-type"
                      }
                  ]
              }
          },
          "request": {
              "method": "PUT",
              "url": "Location/9b7cb9bd-a061-04d1-4757-24dbda8f72b2"
          }
      }
  ]
}