{
    "resourceType": "Bundle",
    "type": "batch",
    "entry": [
        {
            "fullUrl": "urn:uuid:0b7b2e29-ec45-3acf-8ef5-e526392052cc",
            "resource": {
                "resourceType": "Composition",
                "id": "0b7b2e29-ec45-3acf-8ef5-e526392052cc",
                "identifier": {
                    "use": "official",
                    "value": "db734647-fc99-424c-a864-7e3cda82e703"
                },
                "status": "final",
                "type": {
                    "coding": [
                        {
                            "code": "34133-9",
                            "display": "Summarization of Episode Note",
                            "system": "http://loinc.org"
                        }
                    ]
                },
                "date": "2014-04-16T11:54:39.000Z",
                "title": "Community Health and Hospitals: Health Summary",
                "confidentiality": "N",
                "attester": [
                    {
                        "mode": "legal",
                        "time": "2013-04-18T04:00:00.000Z",
                        "party": {
                            "reference": "Practitioner/6a84aefd-6f50-3666-8ccb-bdad442a4c6a"
                        }
                    }
                ],
                "event": [
                    {
                        "period": {
                            "start": "2010-03-31T10:00:00.000Z"
                        }
                    }
                ],
                "section": [
                    {
                        "title": "Allergies,  Adverse Reactions &amp; Alerts",
                        "text": {
                            "status": "generated",
                            "div": "<div xmlns=\"http://www.w3.org/1999/xhtml\">Allergies,  Adverse Reactions &amp; Alerts</div>"
                        },
                        "code": {
                            "coding": [
                                {
                                    "code": "48765-2",
                                    "display": "Allergies, adverse reactions, alerts",
                                    "system": "http://loinc.org"
                                }
                            ]
                        },
                        "mode": "snapshot",
                        "entry": [
                            {
                                "reference": "AllergyIntolerance/263a440c-fd17-36f3-8602-587e15f5c97a",
                                "display": "Allergy to eggs"
                            },
                            {
                                "reference": "AllergyIntolerance/5345b0b3-086d-3884-8b95-33596b99b5d0",
                                "display": "Codeine"
                            },
                            {
                                "reference": "AllergyIntolerance/1f879ec0-1111-3be2-85c1-6a4402552075",
                                "display": "Fosfomycin 33.3 MG/ML Oral Suspension"
                            }
                        ]
                    },
                    {
                        "title": "Encounters",
                        "text": {
                            "status": "generated",
                            "div": "<div xmlns=\"http://www.w3.org/1999/xhtml\">Encounters</div>"
                        },
                        "code": {
                            "coding": [
                                {
                                    "code": "46240-8",
                                    "display": "History of encounters",
                                    "system": "http://loinc.org"
                                }
                            ]
                        },
                        "mode": "snapshot",
                        "entry": [
                            {
                                "reference": "Encounter/91c355f7-349e-3b95-b6a2-b455e3d2d068"
                            },
                            {
                                "reference": "Encounter/200b9d6e-0323-3964-9245-0a7a50e2db5c"
                            },
                            {
                                "reference": "Encounter/2ed673b8-aac7-30f5-b541-fba48d2b6822"
                            },
                            {
                                "reference": "Encounter/b4b69a30-9cd5-3653-81b5-7ffdfd7bf39a"
                            },
                            {
                                "reference": "Encounter/6cf245ea-5c0b-3dcd-b24e-8be9195f141b"
                            }
                        ]
                    },
                    {
                        "title": "Immunizations",
                        "text": {
                            "status": "generated",
                            "div": "<div xmlns=\"http://www.w3.org/1999/xhtml\">Immunizations</div>"
                        },
                        "code": {
                            "coding": [
                                {
                                    "code": "11369-6",
                                    "system": "http://loinc.org"
                                }
                            ]
                        },
                        "mode": "snapshot",
                        "entry": [
                            {
                                "reference": "Immunization/42b04b6a-2afb-3dcd-af4d-f67afcae5416"
                            },
                            {
                                "reference": "Immunization/3dd37d6a-0899-3405-b8ff-00ae0eed6735"
                            }
                        ]
                    },
                    {
                        "title": "Medications",
                        "text": {
                            "status": "generated",
                            "div": "<div xmlns=\"http://www.w3.org/1999/xhtml\">Medications</div>"
                        },
                        "code": {
                            "coding": [
                                {
                                    "code": "10160-0",
                                    "display": "History of Medication Use",
                                    "system": "http://loinc.org"
                                }
                            ]
                        },
                        "mode": "snapshot",
                        "entry": [
                            {
                                "reference": "MedicationStatement/16099f90-b86b-3032-9857-004a34c8f0a1"
                            },
                            {
                                "reference": "MedicationStatement/0484f205-f6f3-34b6-b7a4-de883d58ba02"
                            },
                            {
                                "reference": "MedicationStatement/f13ce111-6d31-3f67-9249-7d03570a01e3"
                            },
                            {
                                "reference": "MedicationStatement/65405e6d-d3e5-3f42-b743-f6f31ea49545"
                            },
                            {
                                "reference": "MedicationStatement/3e52db0a-ee7c-36e1-a84e-678552af5d6e"
                            },
                            {
                                "reference": "MedicationStatement/2dbddfbe-adcd-3d9a-9e32-566808034342"
                            },
                            {
                                "reference": "MedicationStatement/ec79f8c4-7678-35b0-93f7-96c1bbdea64a"
                            },
                            {
                                "reference": "MedicationStatement/0b6a2807-d07b-35eb-ae8f-39b7bf602d7f"
                            }
                        ]
                    },
                    {
                        "title": "Problems",
                        "text": {
                            "status": "generated",
                            "div": "<div xmlns=\"http://www.w3.org/1999/xhtml\">Problems</div>"
                        },
                        "code": {
                            "coding": [
                                {
                                    "code": "11450-4",
                                    "display": "PROBLEM LIST",
                                    "system": "http://loinc.org"
                                }
                            ]
                        },
                        "mode": "snapshot",
                        "entry": [
                            {
                                "reference": "Condition/4c0a3c5c-9885-30c5-82df-60bac9f82a0d"
                            },
                            {
                                "reference": "Condition/10842f3f-1154-3e8e-9485-d80008fbd1e6"
                            },
                            {
                                "reference": "Condition/2e728aff-90c3-3edc-bdcc-81750a17a8e9"
                            },
                            {
                                "reference": "Condition/cd6e8957-fef6-3e1a-bd53-1a493ecf5e06"
                            }
                        ]
                    },
                    {
                        "title": "Procedures",
                        "text": {
                            "status": "generated",
                            "div": "<div xmlns=\"http://www.w3.org/1999/xhtml\">Procedures</div>"
                        },
                        "code": {
                            "coding": [
                                {
                                    "code": "47519-4",
                                    "display": "HISTORY OF PROCEDURES",
                                    "system": "http://loinc.org"
                                }
                            ]
                        },
                        "mode": "snapshot",
                        "entry": [
                            {
                                "reference": "Procedure/b1f30701-49c7-3433-9d5d-26b6de94482b"
                            },
                            {
                                "reference": "Procedure/308a706d-cb69-30ac-9c93-d2bd82463b86"
                            },
                            {
                                "reference": "Procedure/43eafbe0-7742-3270-ac10-3139f32f2703"
                            },
                            {
                                "reference": "Procedure/9be9ab0f-ab14-33bb-bd07-02e5b27f3503"
                            },
                            {
                                "reference": "Procedure/184c3e97-6ca9-384c-9e07-64d31cdf80e5"
                            },
                            {
                                "reference": "Procedure/36d5ed4b-4507-3502-bf1f-43b76801a1f1"
                            },
                            {
                                "reference": "Procedure/4424929c-e6e5-33ee-8fbd-018cb1dd3855"
                            },
                            {
                                "reference": "Procedure/91bdf5f9-2324-3f72-912f-deef70fdeb6d"
                            },
                            {
                                "reference": "Procedure/b441d9f9-4a2f-3c0a-950d-066bd05cff8f"
                            }
                        ]
                    },
                    {
                        "title": "Results",
                        "text": {
                            "status": "generated",
                            "div": "<div xmlns=\"http://www.w3.org/1999/xhtml\">Results</div>"
                        },
                        "code": {
                            "coding": [
                                {
                                    "code": "30954-2",
                                    "display": "Results",
                                    "system": "http://loinc.org"
                                }
                            ]
                        },
                        "mode": "snapshot",
                        "entry": [
                            {
                                "reference": "DiagnosticReport/20f6511d-aaac-35ae-a958-d97a03888f08"
                            },
                            {
                                "reference": "DiagnosticReport/d6d495ee-c608-3e6a-9756-1a8f4836b414"
                            },
                            {
                                "reference": "DiagnosticReport/fcb86707-0a82-32be-83cf-f6942709e404"
                            },
                            {
                                "reference": "DiagnosticReport/00dabeb4-8299-39d2-b184-0fc7e4a7eee1"
                            },
                            {
                                "reference": "DiagnosticReport/6b7144fd-0979-3ae1-8c76-8d57905b9db2"
                            }
                        ]
                    },
                    {
                        "title": "Social History",
                        "text": {
                            "status": "generated",
                            "div": "<div xmlns=\"http://www.w3.org/1999/xhtml\">Social History</div>"
                        },
                        "code": {
                            "coding": [
                                {
                                    "code": "29762-2",
                                    "display": "Social History",
                                    "system": "http://loinc.org"
                                }
                            ]
                        },
                        "mode": "snapshot",
                        "entry": [
                            {
                                "reference": "Observation/c8f6fb20-70c7-3a1d-8eda-aaabfcb96c0a",
                                "display": "Tobacco Use + Never smoker (Never Smoked)"
                            }
                        ]
                    },
                    {
                        "title": "Vital Signs",
                        "text": {
                            "status": "generated",
                            "div": "<div xmlns=\"http://www.w3.org/1999/xhtml\">Vital Signs</div>"
                        },
                        "code": {
                            "coding": [
                                {
                                    "code": "8716-3",
                                    "display": "Vital Signs",
                                    "system": "http://loinc.org"
                                }
                            ]
                        },
                        "mode": "snapshot",
                        "entry": [
                            {
                                "reference": "Observation/d7765e9d-efa6-35c1-af5c-816a398d97b7",
                                "display": "BMI"
                            },
                            {
                                "reference": "Observation/f37d5d03-0864-3b4f-b198-686acc466e5d",
                                "display": "BP Diastolic"
                            },
                            {
                                "reference": "Observation/28b5bb4e-5646-375a-bd2a-c95d5d65ed85",
                                "display": "BP Systolic"
                            },
                            {
                                "reference": "Observation/3e33ace2-aa3e-383b-9566-620b62780555",
                                "display": "BMI"
                            },
                            {
                                "reference": "Observation/614c3ff3-b1d2-353a-b80b-3a050295df49",
                                "display": "BP Diastolic"
                            },
                            {
                                "reference": "Observation/0956d551-a153-3bc9-a418-f6e7e88d84a6",
                                "display": "Heart Rate"
                            },
                            {
                                "reference": "Observation/781bdd9c-d9b3-3efe-9a02-37376a3ce311",
                                "display": "BP Systolic"
                            },
                            {
                                "reference": "Observation/fdbc0da9-f7be-3f5a-b435-86dcbfe212be",
                                "display": "BP Diastolic"
                            },
                            {
                                "reference": "Observation/1ede0175-ccf0-34c7-80be-19c2b98e6323",
                                "display": "Heart Rate"
                            },
                            {
                                "reference": "Observation/8393ae58-4746-3c60-b9b2-189ccfd917db",
                                "display": "BP Systolic"
                            },
                            {
                                "reference": "Observation/5e4e872b-d7a0-379c-88ac-f76e1e87b928",
                                "display": "BMI"
                            },
                            {
                                "reference": "Observation/b447303a-4add-323b-9964-7c8f6a202644",
                                "display": "BP Diastolic"
                            },
                            {
                                "reference": "Observation/a2c6dc95-df4a-3355-a073-1def73ca7c19",
                                "display": "Heart Rate"
                            },
                            {
                                "reference": "Observation/9e6bab7d-5476-33bf-9216-d4e4784309da",
                                "display": "BP Systolic"
                            },
                            {
                                "reference": "Observation/982fad1f-e691-3ac9-8222-660e5ede6e8e",
                                "display": "BMI"
                            },
                            {
                                "reference": "Observation/323aa02a-b83f-33ac-80c2-9d9ca2b239e9",
                                "display": "BP Diastolic"
                            },
                            {
                                "reference": "Observation/496995d7-104d-3291-b225-039866ef72bb",
                                "display": "Heart Rate"
                            },
                            {
                                "reference": "Observation/8e475873-6a4f-39c7-98d3-2579b50852bd",
                                "display": "BP Systolic"
                            }
                        ]
                    }
                ],
                "subject": {
                    "reference": "Patient/f40da2df-7505-315a-9acb-55513a02c37b"
                },
                "custodian": {
                    "reference": "Organization/e6f3ff75-aa41-365b-98ec-bb3fa8c9821e"
                },
                "author": [
                    {
                        "reference": "Practitioner/5942c17c-61a6-351b-a314-39fb9fc72561"
                    }
                ]
            },
            "request": {
                "method": "PUT",
                "url": "Composition/0b7b2e29-ec45-3acf-8ef5-e526392052cc"
            }
        },
        {
            "fullUrl": "urn:uuid:6a84aefd-6f50-3666-8ccb-bdad442a4c6a",
            "resource": {
                "resourceType": "Practitioner",
                "meta": {
                    "profile": [
                        "http://hl7.org/fhir/us/core/StructureDefinition/us-core-practitioner"
                    ]
                },
                "id": "6a84aefd-6f50-3666-8ccb-bdad442a4c6a"
            },
            "request": {
                "method": "PUT",
                "url": "Practitioner/6a84aefd-6f50-3666-8ccb-bdad442a4c6a"
            }
        },
        {
            "fullUrl": "urn:uuid:e6f3ff75-aa41-365b-98ec-bb3fa8c9821e",
            "resource": {
                "resourceType": "Organization",
                "id": "e6f3ff75-aa41-365b-98ec-bb3fa8c9821e",
                "identifier": [
                    {
                        "system": "http://hl7.org/fhir/sid/us-npi",
                        "value": "99999999"
                    }
                ],
                "name": "Community Health and Hospitals",
                "address": [
                    {
                        "use": "work",
                        "line": [
                            "1002 Healthcare Drive"
                        ],
                        "city": "Portland",
                        "state": "OR",
                        "country": "US",
                        "postalCode": "99123"
                    }
                ],
                "telecom": [
                    {
                        "system": "phone",
                        "value": "555-555-1002",
                        "use": "work"
                    }
                ]
            },
            "request": {
                "method": "PUT",
                "url": "Organization/e6f3ff75-aa41-365b-98ec-bb3fa8c9821e"
            }
        },
        {
            "fullUrl": "urn:uuid:5942c17c-61a6-351b-a314-39fb9fc72561",
            "resource": {
                "resourceType": "Practitioner",
                "meta": {
                    "profile": [
                        "http://hl7.org/fhir/us/core/StructureDefinition/us-core-practitioner"
                    ]
                },
                "id": "5942c17c-61a6-351b-a314-39fb9fc72561",
                "identifier": [
                    {
                        "system": "http://hl7.org/fhir/sid/us-npi",
                        "value": "99999999"
                    }
                ],
                "name": [
                    {
                        "family": "Seven",
                        "given": [
                            "Henry"
                        ],
                        "suffix": [
                            "MD"
                        ]
                    }
                ],
                "address": [
                    {
                        "line": [
                            "1002 Healthcare Drive"
                        ],
                        "city": "Portland",
                        "state": "OR",
                        "country": "US",
                        "postalCode": "99123"
                    }
                ],
                "telecom": [
                    {
                        "system": "phone",
                        "value": "555-555-1002",
                        "use": "work"
                    }
                ],
                "qualification": [
                    {
                        "code": {
                            "coding": [
                                {
                                    "code": "200000000X",
                                    "display": "Allopathic &amp; Osteopathic Physicians",
                                    "system": "http://nucc.org/provider-taxonomy"
                                }
                            ]
                        }
                    }
                ]
            },
            "request": {
                "method": "PUT",
                "url": "Practitioner/5942c17c-61a6-351b-a314-39fb9fc72561"
            }
        },
        {
            "fullUrl": "urn:uuid:f40da2df-7505-315a-9acb-55513a02c37b",
            "resource": {
                "resourceType": "Patient",
                "meta": {
                    "profile": [
                        "http://hl7.org/fhir/us/core/StructureDefinition/us-core-patient"
                    ]
                },
                "id": "f40da2df-7505-315a-9acb-55513a02c37b",
                "identifier": [
                    {
                        "system": "urn:oid:2.16.840.1.113883.19.5.99999.2",
                        "value": "998991"
                    },
                    {
                        "system": "http://hl7.org/fhir/sid/us-ssn",
                        "value": "111-00-2330"
                    }
                ],
                "name": [
                    {
                        "use": "usual",
                        "family": "Crawford",
                        "given": [
                            "Wilma"
                        ]
                    }
                ],
                "birthDate": "1943-09-03",
                "gender": "female",
                "extension": [
                    {
                        "url": "http://hl7.org/fhir/us/core/StructureDefinition/us-core-race",
                        "extension": [
                            {
                                "url": "ombCategory",
                                "valueCoding": {
                                    "code": "2054-5",
                                    "display": "Black or African American",
                                    "system": "urn:oid:2.16.840.1.113883.6.238"
                                }
                            },
                            {
                                "url": "text",
                                "valueString": "Black or African American"
                            }
                        ]
                    },
                    {
                        "url": "http://hl7.org/fhir/us/core/StructureDefinition/us-core-ethnicity",
                        "extension": [
                            {
                                "url": "ombCategory",
                                "valueCoding": {
                                    "code": "2186-5",
                                    "display": "Not Hispanic or Latino",
                                    "system": "urn:oid:2.16.840.1.113883.6.238"
                                }
                            },
                            {
                                "url": "text",
                                "valueString": "Not Hispanic or Latino"
                            }
                        ]
                    }
                ],
                "address": [
                    {
                        "use": "home",
                        "line": [
                            "1093 Paradise Lane"
                        ],
                        "city": "Pomona",
                        "state": "CA",
                        "country": "US",
                        "postalCode": "91766"
                    }
                ],
                "telecom": [
                    {
                        "system": "phone",
                        "value": "(909)632-8501",
                        "use": "mobile"
                    }
                ],
                "communication": [
                    {
                        "language": {
                            "coding": [
                                {
                                    "system": "urn:ietf:bcp:47",
                                    "code": "spa"
                                }
                            ]
                        },
                        "preferred": true
                    }
                ]
            },
            "request": {
                "method": "PUT",
                "url": "Patient/f40da2df-7505-315a-9acb-55513a02c37b"
            }
        },
        {
            "fullUrl": "urn:uuid:b6ecd220-dc38-3a39-9221-e00017db519b",
            "resource": {
                "resourceType": "RelatedPerson",
                "id": "b6ecd220-dc38-3a39-9221-e00017db519b",
                "relationship": [
                    {
                        "coding": [
                            {
                                "code": "FRND",
                                "display": "friend",
                                "system": "urn:oid:2.16.840.1.113883.5.111"
                            }
                        ]
                    }
                ],
                "name": [
                    {
                        "family": "Wilson",
                        "given": [
                            "Dennis"
                        ],
                        "prefix": [
                            "Mr."
                        ]
                    }
                ],
                "telecom": [
                    {
                        "system": "phone",
                        "value": "(830)264-0313",
                        "use": "home"
                    }
                ],
                "address": [
                    {
                        "use": "home",
                        "line": [
                            "4262 Morris Street"
                        ],
                        "city": "Christine",
                        "state": "TX",
                        "country": "US",
                        "postalCode": "78012"
                    }
                ],
                "patient": {
                    "reference": "Patient/f40da2df-7505-315a-9acb-55513a02c37b"
                }
            },
            "request": {
                "method": "PUT",
                "url": "RelatedPerson/b6ecd220-dc38-3a39-9221-e00017db519b"
            }
        },
        {
            "fullUrl": "urn:uuid:f4ed5de1-94b6-3e39-a170-0082728ed45d",
            "resource": {
                "resourceType": "AllergyIntolerance",
                "id": "f4ed5de1-94b6-3e39-a170-0082728ed45d",
                "identifier": [
                    {
                        "system": "urn:ietf:rfc:3986",
                        "value": "urn:uuid:4adc1020-7b14-11db-9fe1-0800200c9a66"
                    }
                ],
                "clinicalStatus": {
                    "coding": [
                        {
                            "system": "http://terminology.hl7.org/CodeSystem/allergyintolerance-clinical",
                            "code": "active"
                        }
                    ]
                },
                "reaction": [
                    {
                        "substance": {
                            "coding": [
                                {
                                    "code": "V15.03",
                                    "display": "Allergy to eggs",
                                    "system": "urn:oid:2.16.840.1.113883.6.103"
                                }
                            ]
                        },
                        "severity": "Severe"
                    }
                ],
                "patient": {
                    "reference": "Patient/f40da2df-7505-315a-9acb-55513a02c37b"
                }
            },
            "request": {
                "method": "PUT",
                "url": "AllergyIntolerance/f4ed5de1-94b6-3e39-a170-0082728ed45d"
            }
        },
        {
            "fullUrl": "urn:uuid:e1217d90-9f2f-3147-b1ed-00af29c186d1",
            "resource": {
                "resourceType": "AllergyIntolerance",
                "id": "e1217d90-9f2f-3147-b1ed-00af29c186d1",
                "identifier": [
                    {
                        "system": "urn:ietf:rfc:3986",
                        "value": "urn:uuid:4adc1020-7b14-11db-9fe1-0800200c9a66"
                    }
                ],
                "clinicalStatus": {
                    "coding": [
                        {
                            "system": "http://terminology.hl7.org/CodeSystem/allergyintolerance-clinical",
                            "code": "active"
                        }
                    ]
                },
                "reaction": [
                    {
                        "substance": {
                            "coding": [
                                {
                                    "code": "N0000006691",
                                    "display": "Codeine",
                                    "system": "urn:oid:2.16.840.1.113883.3.26.1.5"
                                }
                            ]
                        },
                        "severity": "severe"
                    }
                ],
                "patient": {
                    "reference": "Patient/f40da2df-7505-315a-9acb-55513a02c37b"
                }
            },
            "request": {
                "method": "PUT",
                "url": "AllergyIntolerance/e1217d90-9f2f-3147-b1ed-00af29c186d1"
            }
        },
        {
            "fullUrl": "urn:uuid:9dbf2913-c088-3258-819e-c831edb03e09",
            "resource": {
                "resourceType": "AllergyIntolerance",
                "id": "9dbf2913-c088-3258-819e-c831edb03e09",
                "identifier": [
                    {
                        "system": "urn:ietf:rfc:3986",
                        "value": "urn:uuid:4adc1020-7b14-11db-9fe1-0800200c9a66"
                    }
                ],
                "clinicalStatus": {
                    "coding": [
                        {
                            "system": "http://terminology.hl7.org/CodeSystem/allergyintolerance-clinical",
                            "code": "active"
                        }
                    ]
                },
                "reaction": [
                    {
                        "substance": {
                            "coding": [
                                {
                                    "code": "808917",
                                    "display": "Fosfomycin 33.3 MG/ML Oral Suspension",
                                    "system": "http://www.nlm.nih.gov/research/umls/rxnorm"
                                }
                            ]
                        },
                        "severity": "Moderate"
                    }
                ],
                "patient": {
                    "reference": "Patient/f40da2df-7505-315a-9acb-55513a02c37b"
                }
            },
            "request": {
                "method": "PUT",
                "url": "AllergyIntolerance/9dbf2913-c088-3258-819e-c831edb03e09"
            }
        },
        {
            "fullUrl": "urn:uuid:d192b0d4-fe06-3b92-85b9-d23b04c9f101",
            "resource": {
                "resourceType": "MedicationStatement",
                "id": "d192b0d4-fe06-3b92-85b9-d23b04c9f101",
                "identifier": [
                    {
                        "system": "urn:ietf:rfc:3986",
                        "value": "urn:uuid:cdbd33f0-6cde-11db-9fe1-0800200c9a66"
                    }
                ],
                "status": "completed",
                "effectivePeriod": {
                    "start": "2010-03-31T10:00:00.000Z"
                },
                "subject": {
                    "reference": "Patient/f40da2df-7505-315a-9acb-55513a02c37b"
                },
                "medicationReference": {
                    "reference": "Medication/b9319dbe-045b-3b49-a70c-b7b32cda87bc"
                }
            },
            "request": {
                "method": "PUT",
                "url": "MedicationStatement/d192b0d4-fe06-3b92-85b9-d23b04c9f101"
            }
        },
        {
            "fullUrl": "urn:uuid:b9319dbe-045b-3b49-a70c-b7b32cda87bc",
            "resource": {
                "resourceType": "Medication",
                "id": "b9319dbe-045b-3b49-a70c-b7b32cda87bc",
                "code": {
                    "coding": [
                        {
                            "code": "744863",
                            "display": "exenatide 0.25 MG/ML Injectable Solution",
                            "system": "http://www.nlm.nih.gov/research/umls/rxnorm"
                        }
                    ]
                }
            },
            "request": {
                "method": "PUT",
                "url": "Medication/b9319dbe-045b-3b49-a70c-b7b32cda87bc"
            }
        },
        {
            "fullUrl": "urn:uuid:cacd4513-9216-3a24-a8bd-1e2035b3c864",
            "resource": {
                "resourceType": "MedicationStatement",
                "id": "cacd4513-9216-3a24-a8bd-1e2035b3c864",
                "identifier": [
                    {
                        "system": "urn:ietf:rfc:3986",
                        "value": "urn:uuid:cdbd33f0-6cde-11db-9fe1-0800200c9a66"
                    }
                ],
                "status": "completed",
                "effectivePeriod": {
                    "start": "2010-03-31T10:00:00.000Z"
                },
                "subject": {
                    "reference": "Patient/f40da2df-7505-315a-9acb-55513a02c37b"
                },
                "medicationReference": {
                    "reference": "Medication/ac115a0b-9aac-357c-b9fd-5a3ddad3bb46"
                }
            },
            "request": {
                "method": "PUT",
                "url": "MedicationStatement/cacd4513-9216-3a24-a8bd-1e2035b3c864"
            }
        },
        {
            "fullUrl": "urn:uuid:ac115a0b-9aac-357c-b9fd-5a3ddad3bb46",
            "resource": {
                "resourceType": "Medication",
                "id": "ac115a0b-9aac-357c-b9fd-5a3ddad3bb46",
                "code": {
                    "coding": [
                        {
                            "code": "858828",
                            "display": "Enalapril Maleate 10 MG / Hydrochlorothiazide 25 MG Oral Tablet",
                            "system": "http://www.nlm.nih.gov/research/umls/rxnorm"
                        }
                    ]
                }
            },
            "request": {
                "method": "PUT",
                "url": "Medication/ac115a0b-9aac-357c-b9fd-5a3ddad3bb46"
            }
        },
        {
            "fullUrl": "urn:uuid:066c7847-d8e6-316b-b3cc-11b9a9234785",
            "resource": {
                "resourceType": "MedicationStatement",
                "id": "066c7847-d8e6-316b-b3cc-11b9a9234785",
                "identifier": [
                    {
                        "system": "urn:ietf:rfc:3986",
                        "value": "urn:uuid:cdbd33f0-6cde-11db-9fe1-0800200c9a66"
                    }
                ],
                "status": "completed",
                "effectivePeriod": {
                    "start": "2010-03-31T10:00:00.000Z"
                },
                "subject": {
                    "reference": "Patient/f40da2df-7505-315a-9acb-55513a02c37b"
                },
                "medicationReference": {
                    "reference": "Medication/c272c335-9270-322f-928d-7cf679a89a3d"
                }
            },
            "request": {
                "method": "PUT",
                "url": "MedicationStatement/066c7847-d8e6-316b-b3cc-11b9a9234785"
            }
        },
        {
            "fullUrl": "urn:uuid:c272c335-9270-322f-928d-7cf679a89a3d",
            "resource": {
                "resourceType": "Medication",
                "id": "c272c335-9270-322f-928d-7cf679a89a3d",
                "code": {
                    "coding": [
                        {
                            "code": "243670",
                            "display": "Aspirin 81 MG Oral Tablet",
                            "system": "http://www.nlm.nih.gov/research/umls/rxnorm"
                        }
                    ]
                }
            },
            "request": {
                "method": "PUT",
                "url": "Medication/c272c335-9270-322f-928d-7cf679a89a3d"
            }
        },
        {
            "fullUrl": "urn:uuid:7fa19201-6b13-3144-957d-33a16fa83b7d",
            "resource": {
                "resourceType": "MedicationStatement",
                "id": "7fa19201-6b13-3144-957d-33a16fa83b7d",
                "identifier": [
                    {
                        "system": "urn:ietf:rfc:3986",
                        "value": "urn:uuid:cdbd33f0-6cde-11db-9fe1-0800200c9a66"
                    }
                ],
                "status": "completed",
                "effectivePeriod": {
                    "start": "2010-03-31T10:00:00.000Z"
                },
                "subject": {
                    "reference": "Patient/f40da2df-7505-315a-9acb-55513a02c37b"
                },
                "medicationReference": {
                    "reference": "Medication/40f690b4-a0ec-39c6-a2f0-060b338470b5"
                }
            },
            "request": {
                "method": "PUT",
                "url": "MedicationStatement/7fa19201-6b13-3144-957d-33a16fa83b7d"
            }
        },
        {
            "fullUrl": "urn:uuid:40f690b4-a0ec-39c6-a2f0-060b338470b5",
            "resource": {
                "resourceType": "Medication",
                "id": "40f690b4-a0ec-39c6-a2f0-060b338470b5",
                "code": {
                    "coding": [
                        {
                            "code": "866924",
                            "display": "Metoprolol Tartrate 25 MG Oral Tablet",
                            "system": "http://www.nlm.nih.gov/research/umls/rxnorm"
                        }
                    ]
                }
            },
            "request": {
                "method": "PUT",
                "url": "Medication/40f690b4-a0ec-39c6-a2f0-060b338470b5"
            }
        },
        {
            "fullUrl": "urn:uuid:136e0e27-2f5f-34bc-a12e-0df875c5fa9e",
            "resource": {
                "resourceType": "MedicationStatement",
                "id": "136e0e27-2f5f-34bc-a12e-0df875c5fa9e",
                "identifier": [
                    {
                        "system": "urn:ietf:rfc:3986",
                        "value": "urn:uuid:cdbd33f0-6cde-11db-9fe1-0800200c9a66"
                    }
                ],
                "status": "completed",
                "effectivePeriod": {
                    "start": "2010-03-31T10:00:00.000Z"
                },
                "subject": {
                    "reference": "Patient/f40da2df-7505-315a-9acb-55513a02c37b"
                },
                "medicationReference": {
                    "reference": "Medication/93b91e67-583e-32db-9762-a093bbbfa28c"
                }
            },
            "request": {
                "method": "PUT",
                "url": "MedicationStatement/136e0e27-2f5f-34bc-a12e-0df875c5fa9e"
            }
        },
        {
            "fullUrl": "urn:uuid:93b91e67-583e-32db-9762-a093bbbfa28c",
            "resource": {
                "resourceType": "Medication",
                "id": "93b91e67-583e-32db-9762-a093bbbfa28c",
                "code": {
                    "coding": [
                        {
                            "code": "617314",
                            "display": "atorvastatin 10 MG Oral Tablet [Lipitor]",
                            "system": "http://www.nlm.nih.gov/research/umls/rxnorm"
                        }
                    ]
                }
            },
            "request": {
                "method": "PUT",
                "url": "Medication/93b91e67-583e-32db-9762-a093bbbfa28c"
            }
        },
        {
            "fullUrl": "urn:uuid:845619c1-dd63-30e1-a7db-d7fb65d19983",
            "resource": {
                "resourceType": "MedicationStatement",
                "id": "845619c1-dd63-30e1-a7db-d7fb65d19983",
                "identifier": [
                    {
                        "system": "urn:ietf:rfc:3986",
                        "value": "urn:uuid:cdbd33f0-6cde-11db-9fe1-0800200c9a66"
                    }
                ],
                "status": "completed",
                "effectivePeriod": {
                    "start": "2010-10-24T10:00:00.000Z"
                },
                "subject": {
                    "reference": "Patient/f40da2df-7505-315a-9acb-55513a02c37b"
                },
                "medicationReference": {
                    "reference": "Medication/16db41e0-07a3-307c-9709-d7997bcbee32"
                }
            },
            "request": {
                "method": "PUT",
                "url": "MedicationStatement/845619c1-dd63-30e1-a7db-d7fb65d19983"
            }
        },
        {
            "fullUrl": "urn:uuid:16db41e0-07a3-307c-9709-d7997bcbee32",
            "resource": {
                "resourceType": "Medication",
                "id": "16db41e0-07a3-307c-9709-d7997bcbee32",
                "code": {
                    "coding": [
                        {
                            "code": "314076",
                            "display": "Lisinopril 10 MG Oral Tablet",
                            "system": "http://www.nlm.nih.gov/research/umls/rxnorm"
                        }
                    ]
                }
            },
            "request": {
                "method": "PUT",
                "url": "Medication/16db41e0-07a3-307c-9709-d7997bcbee32"
            }
        },
        {
            "fullUrl": "urn:uuid:d683be4c-04b6-3c44-acf3-b25c4e8967a5",
            "resource": {
                "resourceType": "MedicationStatement",
                "id": "d683be4c-04b6-3c44-acf3-b25c4e8967a5",
                "identifier": [
                    {
                        "system": "urn:ietf:rfc:3986",
                        "value": "urn:uuid:cdbd33f0-6cde-11db-9fe1-0800200c9a66"
                    }
                ],
                "status": "completed",
                "effectivePeriod": {
                    "start": "2010-10-24T10:00:00.000Z"
                },
                "subject": {
                    "reference": "Patient/f40da2df-7505-315a-9acb-55513a02c37b"
                },
                "medicationReference": {
                    "reference": "Medication/b52d84b1-09db-3ca1-86a8-f5d30cefb4cb"
                }
            },
            "request": {
                "method": "PUT",
                "url": "MedicationStatement/d683be4c-04b6-3c44-acf3-b25c4e8967a5"
            }
        },
        {
            "fullUrl": "urn:uuid:b52d84b1-09db-3ca1-86a8-f5d30cefb4cb",
            "resource": {
                "resourceType": "Medication",
                "id": "b52d84b1-09db-3ca1-86a8-f5d30cefb4cb",
                "code": {
                    "coding": [
                        {
                            "code": "744863",
                            "display": "exenatide 0.25 MG/ML Injectable Solution",
                            "system": "http://www.nlm.nih.gov/research/umls/rxnorm"
                        }
                    ]
                }
            },
            "request": {
                "method": "PUT",
                "url": "Medication/b52d84b1-09db-3ca1-86a8-f5d30cefb4cb"
            }
        },
        {
            "fullUrl": "urn:uuid:40e914e1-4eb5-3fd9-915e-d959e625e12e",
            "resource": {
                "resourceType": "MedicationStatement",
                "id": "40e914e1-4eb5-3fd9-915e-d959e625e12e",
                "identifier": [
                    {
                        "system": "urn:ietf:rfc:3986",
                        "value": "urn:uuid:cdbd33f0-6cde-11db-9fe1-0800200c9a66"
                    }
                ],
                "status": "completed",
                "effectivePeriod": {
                    "start": "2010-10-24T10:00:00.000Z"
                },
                "subject": {
                    "reference": "Patient/f40da2df-7505-315a-9acb-55513a02c37b"
                },
                "medicationReference": {
                    "reference": "Medication/8ea79f09-4cee-32f7-acb1-ba0ab6d7631f"
                }
            },
            "request": {
                "method": "PUT",
                "url": "MedicationStatement/40e914e1-4eb5-3fd9-915e-d959e625e12e"
            }
        },
        {
            "fullUrl": "urn:uuid:8ea79f09-4cee-32f7-acb1-ba0ab6d7631f",
            "resource": {
                "resourceType": "Medication",
                "id": "8ea79f09-4cee-32f7-acb1-ba0ab6d7631f",
                "code": {
                    "coding": [
                        {
                            "code": "617314",
                            "display": "atorvastatin 10 MG Oral Tablet [Lipitor]",
                            "system": "http://www.nlm.nih.gov/research/umls/rxnorm"
                        }
                    ]
                }
            },
            "request": {
                "method": "PUT",
                "url": "Medication/8ea79f09-4cee-32f7-acb1-ba0ab6d7631f"
            }
        },
        {
            "fullUrl": "urn:uuid:f16c6ec0-94e2-3653-9081-8d1a7de4cf76",
            "resource": {
                "resourceType": "Condition",
                "id": "f16c6ec0-94e2-3653-9081-8d1a7de4cf76",
                "identifier": [
                    {
                        "system": "urn:ietf:rfc:3986",
                        "value": "urn:uuid:9d3d416d-45ab-4da1-912f-4583e0632000"
                    }
                ],
                "code": {
                    "coding": [
                        {
                            "code": "I25.1",
                            "display": "Atherosclerotic heart disease of native coronary artery",
                            "system": "urn:oid:2.16.840.1.113883.6.90"
                        }
                    ]
                },
                "onsetDateTime": "2010-03-31T10:00:00.000Z",
                "subject": {
                    "reference": "Patient/f40da2df-7505-315a-9acb-55513a02c37b"
                }
            },
            "request": {
                "method": "PUT",
                "url": "Condition/f16c6ec0-94e2-3653-9081-8d1a7de4cf76"
            }
        },
        {
            "fullUrl": "urn:uuid:dfe1a7a0-b2e3-3e0f-a8ff-54aa87aa2420",
            "resource": {
                "resourceType": "Condition",
                "id": "dfe1a7a0-b2e3-3e0f-a8ff-54aa87aa2420",
                "identifier": [
                    {
                        "system": "urn:ietf:rfc:3986",
                        "value": "urn:uuid:9d3d416d-45ab-4da1-912f-4583e0632000"
                    }
                ],
                "code": {
                    "coding": [
                        {
                            "code": "E11.9",
                            "display": "Type 2 diabetes mellitus without complications",
                            "system": "urn:oid:2.16.840.1.113883.6.90"
                        }
                    ]
                },
                "onsetDateTime": "2010-03-31T10:00:00.000Z",
                "subject": {
                    "reference": "Patient/f40da2df-7505-315a-9acb-55513a02c37b"
                }
            },
            "request": {
                "method": "PUT",
                "url": "Condition/dfe1a7a0-b2e3-3e0f-a8ff-54aa87aa2420"
            }
        },
        {
            "fullUrl": "urn:uuid:0057889a-3257-3e33-872f-a85d924776ac",
            "resource": {
                "resourceType": "Condition",
                "id": "0057889a-3257-3e33-872f-a85d924776ac",
                "identifier": [
                    {
                        "system": "urn:ietf:rfc:3986",
                        "value": "urn:uuid:9d3d416d-45ab-4da1-912f-4583e0632000"
                    }
                ],
                "code": {
                    "coding": [
                        {
                            "code": "I10",
                            "display": "Essential (primary) hypertension",
                            "system": "urn:oid:2.16.840.1.113883.6.90"
                        }
                    ]
                },
                "onsetDateTime": "2010-03-31T10:00:00.000Z",
                "subject": {
                    "reference": "Patient/f40da2df-7505-315a-9acb-55513a02c37b"
                }
            },
            "request": {
                "method": "PUT",
                "url": "Condition/0057889a-3257-3e33-872f-a85d924776ac"
            }
        },
        {
            "fullUrl": "urn:uuid:c2af27c7-0376-3b81-996b-7c5ceffe67c3",
            "resource": {
                "resourceType": "Condition",
                "id": "c2af27c7-0376-3b81-996b-7c5ceffe67c3",
                "identifier": [
                    {
                        "system": "urn:ietf:rfc:3986",
                        "value": "urn:uuid:9d3d416d-45ab-4da1-912f-4583e0632000"
                    }
                ],
                "code": {
                    "coding": [
                        {
                            "code": "I21.3",
                            "display": "ST elevation (STEMI) myocardial infarction of unspecified site",
                            "system": "urn:oid:2.16.840.1.113883.6.90"
                        }
                    ]
                },
                "onsetDateTime": "2010-05-28T10:00:00.000Z",
                "subject": {
                    "reference": "Patient/f40da2df-7505-315a-9acb-55513a02c37b"
                }
            },
            "request": {
                "method": "PUT",
                "url": "Condition/c2af27c7-0376-3b81-996b-7c5ceffe67c3"
            }
        },
        {
            "fullUrl": "urn:uuid:51520415-dd0b-3857-9320-177d3cd135c7",
            "resource": {
                "resourceType": "DiagnosticReport",
                "id": "51520415-dd0b-3857-9320-177d3cd135c7",
                "identifier": [
                    {
                        "system": "urn:ietf:rfc:3986",
                        "value": "urn:uuid:7d5a02b0-67a4-11db-bd13-0800200c9a66"
                    }
                ],
                "status": "final",
                "code": {
                    "coding": [
                        {
                            "code": "166312007",
                            "display": "Blood Chemistry",
                            "system": "http://snomed.info/sct"
                        }
                    ]
                },
                "subject": {
                    "reference": "Patient/f40da2df-7505-315a-9acb-55513a02c37b"
                },
                "result": [
                    {
                        "reference": "Observation/936f5b51-1b36-36bf-9d7a-a373b99d21e3"
                    }
                ]
            },
            "request": {
                "method": "PUT",
                "url": "DiagnosticReport/51520415-dd0b-3857-9320-177d3cd135c7"
            }
        },
        {
            "fullUrl": "urn:uuid:936f5b51-1b36-36bf-9d7a-a373b99d21e3",
            "resource": {
                "resourceType": "Observation",
                "meta": {
                    "profile": [
                        "http://hl7.org/fhir/us/core/StructureDefinition/us-core-observationresults"
                    ]
                },
                "id": "936f5b51-1b36-36bf-9d7a-a373b99d21e3",
                "identifier": [
                    {
                        "system": "urn:ietf:rfc:3986",
                        "value": "urn:uuid:107c2dc0-67a5-11db-bd13-0800200c9a66"
                    }
                ],
                "category": [
                    {
                        "coding": [
                            {
                                "system": "http://terminology.hl7.org/CodeSystem/observation-category",
                                "code": "laboratory"
                            }
                        ]
                    }
                ],
                "status": "final",
                "code": {
                    "coding": [
                        {
                            "code": "4548-4",
                            "display": "Hgb A1c MFr Bld",
                            "system": "http://loinc.org"
                        }
                    ]
                },
                "effectiveDateTime": "2010-03-31T10:00:00.000Z",
                "valueQuantity": {
                    "value": 7,
                    "unit": "%"
                },
                "interpretation": [
                    {
                        "coding": [
                            {
                                "code": "N",
                                "system": "http://terminology.hl7.org/CodeSystem/v3-ObservationInterpretation"
                            }
                        ]
                    }
                ],
                "subject": {
                    "reference": "Patient/f40da2df-7505-315a-9acb-55513a02c37b"
                }
            },
            "request": {
                "method": "PUT",
                "url": "Observation/936f5b51-1b36-36bf-9d7a-a373b99d21e3"
            }
        },
        {
            "fullUrl": "urn:uuid:5cab4394-3eba-3679-a9ba-2d549e3b068f",
            "resource": {
                "resourceType": "DiagnosticReport",
                "id": "5cab4394-3eba-3679-a9ba-2d549e3b068f",
                "identifier": [
                    {
                        "system": "urn:ietf:rfc:3986",
                        "value": "urn:uuid:7d5a02b0-67a4-11db-bd13-0800200c9a66"
                    }
                ],
                "status": "final",
                "code": {
                    "coding": [
                        {
                            "code": "16254007",
                            "display": "Lipid Panel",
                            "system": "http://snomed.info/sct"
                        }
                    ]
                },
                "subject": {
                    "reference": "Patient/f40da2df-7505-315a-9acb-55513a02c37b"
                },
                "result": [
                    {
                        "reference": "Observation/692c41dc-cfdb-35e8-809c-8921e3a40f71"
                    },
                    {
                        "reference": "Observation/df3deeee-b4de-325d-b352-ad99f61f9df8"
                    },
                    {
                        "reference": "Observation/1efa3fcf-c9f5-3bd6-90be-4c9cc02f8b8d"
                    },
                    {
                        "reference": "Observation/f0edfc93-2202-327f-8385-4adb86b665e4"
                    }
                ]
            },
            "request": {
                "method": "PUT",
                "url": "DiagnosticReport/5cab4394-3eba-3679-a9ba-2d549e3b068f"
            }
        },
        {
            "fullUrl": "urn:uuid:692c41dc-cfdb-35e8-809c-8921e3a40f71",
            "resource": {
                "resourceType": "Observation",
                "meta": {
                    "profile": [
                        "http://hl7.org/fhir/us/core/StructureDefinition/us-core-observationresults"
                    ]
                },
                "id": "692c41dc-cfdb-35e8-809c-8921e3a40f71",
                "identifier": [
                    {
                        "system": "urn:ietf:rfc:3986",
                        "value": "urn:uuid:107c2dc0-67a5-11db-bd13-0800200c9a66"
                    }
                ],
                "category": [
                    {
                        "coding": [
                            {
                                "system": "http://terminology.hl7.org/CodeSystem/observation-category",
                                "code": "laboratory"
                            }
                        ]
                    }
                ],
                "status": "final",
                "code": {
                    "coding": [
                        {
                            "code": "14646-4",
                            "display": "HDLc SerPl-sCnc",
                            "system": "http://loinc.org"
                        }
                    ]
                },
                "effectiveDateTime": "2010-03-31T10:00:00.000Z",
                "valueQuantity": {
                    "value": 63,
                    "unit": "mg/dL"
                },
                "interpretation": [
                    {
                        "coding": [
                            {
                                "code": "N",
                                "system": "http://terminology.hl7.org/CodeSystem/v3-ObservationInterpretation"
                            }
                        ]
                    }
                ],
                "subject": {
                    "reference": "Patient/f40da2df-7505-315a-9acb-55513a02c37b"
                }
            },
            "request": {
                "method": "PUT",
                "url": "Observation/692c41dc-cfdb-35e8-809c-8921e3a40f71"
            }
        },
        {
            "fullUrl": "urn:uuid:df3deeee-b4de-325d-b352-ad99f61f9df8",
            "resource": {
                "resourceType": "Observation",
                "meta": {
                    "profile": [
                        "http://hl7.org/fhir/us/core/StructureDefinition/us-core-observationresults"
                    ]
                },
                "id": "df3deeee-b4de-325d-b352-ad99f61f9df8",
                "identifier": [
                    {
                        "system": "urn:ietf:rfc:3986",
                        "value": "urn:uuid:107c2dc0-67a5-11db-bd13-0800200c9a66"
                    }
                ],
                "category": [
                    {
                        "coding": [
                            {
                                "system": "http://terminology.hl7.org/CodeSystem/observation-category",
                                "code": "laboratory"
                            }
                        ]
                    }
                ],
                "status": "final",
                "code": {
                    "coding": [
                        {
                            "code": "2089-1",
                            "display": "LDLc SerPl-mCnc",
                            "system": "http://loinc.org"
                        }
                    ]
                },
                "effectiveDateTime": "2010-03-31T10:00:00.000Z",
                "valueQuantity": {
                    "value": 150.2,
                    "unit": "mg/dL"
                },
                "interpretation": [
                    {
                        "coding": [
                            {
                                "code": "N",
                                "system": "http://terminology.hl7.org/CodeSystem/v3-ObservationInterpretation"
                            }
                        ]
                    }
                ],
                "subject": {
                    "reference": "Patient/f40da2df-7505-315a-9acb-55513a02c37b"
                }
            },
            "request": {
                "method": "PUT",
                "url": "Observation/df3deeee-b4de-325d-b352-ad99f61f9df8"
            }
        },
        {
            "fullUrl": "urn:uuid:1efa3fcf-c9f5-3bd6-90be-4c9cc02f8b8d",
            "resource": {
                "resourceType": "Observation",
                "meta": {
                    "profile": [
                        "http://hl7.org/fhir/us/core/StructureDefinition/us-core-observationresults"
                    ]
                },
                "id": "1efa3fcf-c9f5-3bd6-90be-4c9cc02f8b8d",
                "identifier": [
                    {
                        "system": "urn:ietf:rfc:3986",
                        "value": "urn:uuid:107c2dc0-67a5-11db-bd13-0800200c9a66"
                    }
                ],
                "category": [
                    {
                        "coding": [
                            {
                                "system": "http://terminology.hl7.org/CodeSystem/observation-category",
                                "code": "laboratory"
                            }
                        ]
                    }
                ],
                "status": "final",
                "code": {
                    "coding": [
                        {
                            "code": "2093-3",
                            "display": "Cholest SerPl-mCnc",
                            "system": "http://loinc.org"
                        }
                    ]
                },
                "effectiveDateTime": "2010-03-31T10:00:00.000Z",
                "valueQuantity": {
                    "value": 251,
                    "unit": "mg/dL"
                },
                "interpretation": [
                    {
                        "coding": [
                            {
                                "code": "N",
                                "system": "http://terminology.hl7.org/CodeSystem/v3-ObservationInterpretation"
                            }
                        ]
                    }
                ],
                "subject": {
                    "reference": "Patient/f40da2df-7505-315a-9acb-55513a02c37b"
                }
            },
            "request": {
                "method": "PUT",
                "url": "Observation/1efa3fcf-c9f5-3bd6-90be-4c9cc02f8b8d"
            }
        },
        {
            "fullUrl": "urn:uuid:f0edfc93-2202-327f-8385-4adb86b665e4",
            "resource": {
                "resourceType": "Observation",
                "meta": {
                    "profile": [
                        "http://hl7.org/fhir/us/core/StructureDefinition/us-core-observationresults"
                    ]
                },
                "id": "f0edfc93-2202-327f-8385-4adb86b665e4",
                "identifier": [
                    {
                        "system": "urn:ietf:rfc:3986",
                        "value": "urn:uuid:107c2dc0-67a5-11db-bd13-0800200c9a66"
                    }
                ],
                "category": [
                    {
                        "coding": [
                            {
                                "system": "http://terminology.hl7.org/CodeSystem/observation-category",
                                "code": "laboratory"
                            }
                        ]
                    }
                ],
                "status": "final",
                "code": {
                    "coding": [
                        {
                            "code": "12951-0",
                            "display": "Trigl SerPl Calc-mCnc",
                            "system": "http://loinc.org"
                        }
                    ]
                },
                "effectiveDateTime": "2010-03-31T10:00:00.000Z",
                "valueQuantity": {
                    "value": 189,
                    "unit": "mg/dL"
                },
                "interpretation": [
                    {
                        "coding": [
                            {
                                "code": "N",
                                "system": "http://terminology.hl7.org/CodeSystem/v3-ObservationInterpretation"
                            }
                        ]
                    }
                ],
                "subject": {
                    "reference": "Patient/f40da2df-7505-315a-9acb-55513a02c37b"
                }
            },
            "request": {
                "method": "PUT",
                "url": "Observation/f0edfc93-2202-327f-8385-4adb86b665e4"
            }
        },
        {
            "fullUrl": "urn:uuid:9c2ad942-1cd3-368c-8fe2-959e35231dca",
            "resource": {
                "resourceType": "DiagnosticReport",
                "id": "9c2ad942-1cd3-368c-8fe2-959e35231dca",
                "identifier": [
                    {
                        "system": "urn:ietf:rfc:3986",
                        "value": "urn:uuid:7d5a02b0-67a4-11db-bd13-0800200c9a66"
                    }
                ],
                "status": "final",
                "code": {
                    "coding": [
                        {
                            "code": "166312007",
                            "display": "Blood Chemistry",
                            "system": "http://snomed.info/sct"
                        }
                    ]
                },
                "subject": {
                    "reference": "Patient/f40da2df-7505-315a-9acb-55513a02c37b"
                },
                "result": [
                    {
                        "reference": "Observation/4a586aae-bdb3-3674-bbd4-51092fc651ed"
                    }
                ]
            },
            "request": {
                "method": "PUT",
                "url": "DiagnosticReport/9c2ad942-1cd3-368c-8fe2-959e35231dca"
            }
        },
        {
            "fullUrl": "urn:uuid:4a586aae-bdb3-3674-bbd4-51092fc651ed",
            "resource": {
                "resourceType": "Observation",
                "meta": {
                    "profile": [
                        "http://hl7.org/fhir/us/core/StructureDefinition/us-core-observationresults"
                    ]
                },
                "id": "4a586aae-bdb3-3674-bbd4-51092fc651ed",
                "identifier": [
                    {
                        "system": "urn:ietf:rfc:3986",
                        "value": "urn:uuid:107c2dc0-67a5-11db-bd13-0800200c9a66"
                    }
                ],
                "category": [
                    {
                        "coding": [
                            {
                                "system": "http://terminology.hl7.org/CodeSystem/observation-category",
                                "code": "laboratory"
                            }
                        ]
                    }
                ],
                "status": "final",
                "code": {
                    "coding": [
                        {
                            "code": "4548-4",
                            "display": "Hgb A1c MFr Bld",
                            "system": "http://loinc.org"
                        }
                    ]
                },
                "effectiveDateTime": "2010-07-25T10:00:00.000Z",
                "valueQuantity": {
                    "value": 6.6,
                    "unit": "%"
                },
                "interpretation": [
                    {
                        "coding": [
                            {
                                "code": "N",
                                "system": "http://terminology.hl7.org/CodeSystem/v3-ObservationInterpretation"
                            }
                        ]
                    }
                ],
                "subject": {
                    "reference": "Patient/f40da2df-7505-315a-9acb-55513a02c37b"
                }
            },
            "request": {
                "method": "PUT",
                "url": "Observation/4a586aae-bdb3-3674-bbd4-51092fc651ed"
            }
        },
        {
            "fullUrl": "urn:uuid:4620c70c-189d-36e0-ab3e-f8e880ffcc58",
            "resource": {
                "resourceType": "DiagnosticReport",
                "id": "4620c70c-189d-36e0-ab3e-f8e880ffcc58",
                "identifier": [
                    {
                        "system": "urn:ietf:rfc:3986",
                        "value": "urn:uuid:7d5a02b0-67a4-11db-bd13-0800200c9a66"
                    }
                ],
                "status": "final",
                "code": {
                    "coding": [
                        {
                            "code": "166312007",
                            "display": "Blood Chemistry",
                            "system": "http://snomed.info/sct"
                        }
                    ]
                },
                "subject": {
                    "reference": "Patient/f40da2df-7505-315a-9acb-55513a02c37b"
                },
                "result": [
                    {
                        "reference": "Observation/0ec6b1b5-0459-3102-9b3f-11f7f1016c8e"
                    }
                ]
            },
            "request": {
                "method": "PUT",
                "url": "DiagnosticReport/4620c70c-189d-36e0-ab3e-f8e880ffcc58"
            }
        },
        {
            "fullUrl": "urn:uuid:0ec6b1b5-0459-3102-9b3f-11f7f1016c8e",
            "resource": {
                "resourceType": "Observation",
                "meta": {
                    "profile": [
                        "http://hl7.org/fhir/us/core/StructureDefinition/us-core-observationresults"
                    ]
                },
                "id": "0ec6b1b5-0459-3102-9b3f-11f7f1016c8e",
                "identifier": [
                    {
                        "system": "urn:ietf:rfc:3986",
                        "value": "urn:uuid:107c2dc0-67a5-11db-bd13-0800200c9a66"
                    }
                ],
                "category": [
                    {
                        "coding": [
                            {
                                "system": "http://terminology.hl7.org/CodeSystem/observation-category",
                                "code": "laboratory"
                            }
                        ]
                    }
                ],
                "status": "final",
                "code": {
                    "coding": [
                        {
                            "code": "4548-4",
                            "display": "Hgb A1c MFr Bld",
                            "system": "http://loinc.org"
                        }
                    ]
                },
                "effectiveDateTime": "2010-10-24T10:00:00.000Z",
                "valueQuantity": {
                    "value": 6.7,
                    "unit": "%"
                },
                "interpretation": [
                    {
                        "coding": [
                            {
                                "code": "N",
                                "system": "http://terminology.hl7.org/CodeSystem/v3-ObservationInterpretation"
                            }
                        ]
                    }
                ],
                "subject": {
                    "reference": "Patient/f40da2df-7505-315a-9acb-55513a02c37b"
                }
            },
            "request": {
                "method": "PUT",
                "url": "Observation/0ec6b1b5-0459-3102-9b3f-11f7f1016c8e"
            }
        },
        {
            "fullUrl": "urn:uuid:5a6fe137-126c-305b-85a0-c498e3a3fd41",
            "resource": {
                "resourceType": "DiagnosticReport",
                "id": "5a6fe137-126c-305b-85a0-c498e3a3fd41",
                "identifier": [
                    {
                        "system": "urn:ietf:rfc:3986",
                        "value": "urn:uuid:7d5a02b0-67a4-11db-bd13-0800200c9a66"
                    }
                ],
                "status": "final",
                "code": {
                    "coding": [
                        {
                            "code": "16254007",
                            "display": "Lipid Panel",
                            "system": "http://snomed.info/sct"
                        }
                    ]
                },
                "subject": {
                    "reference": "Patient/f40da2df-7505-315a-9acb-55513a02c37b"
                },
                "result": [
                    {
                        "reference": "Observation/602305ad-93c8-3ad9-b765-9ea2c4e02f41"
                    },
                    {
                        "reference": "Observation/bdba4224-8e0e-3d2f-b169-a2106eee1401"
                    },
                    {
                        "reference": "Observation/d8f2e245-c9fa-3140-8e43-fa119b5e90bf"
                    },
                    {
                        "reference": "Observation/80e7e57f-2f95-3123-ba2b-e3884906a7aa"
                    }
                ]
            },
            "request": {
                "method": "PUT",
                "url": "DiagnosticReport/5a6fe137-126c-305b-85a0-c498e3a3fd41"
            }
        },
        {
            "fullUrl": "urn:uuid:602305ad-93c8-3ad9-b765-9ea2c4e02f41",
            "resource": {
                "resourceType": "Observation",
                "meta": {
                    "profile": [
                        "http://hl7.org/fhir/us/core/StructureDefinition/us-core-observationresults"
                    ]
                },
                "id": "602305ad-93c8-3ad9-b765-9ea2c4e02f41",
                "identifier": [
                    {
                        "system": "urn:ietf:rfc:3986",
                        "value": "urn:uuid:107c2dc0-67a5-11db-bd13-0800200c9a66"
                    }
                ],
                "category": [
                    {
                        "coding": [
                            {
                                "system": "http://terminology.hl7.org/CodeSystem/observation-category",
                                "code": "laboratory"
                            }
                        ]
                    }
                ],
                "status": "final",
                "code": {
                    "coding": [
                        {
                            "code": "14646-4",
                            "display": "HDLc SerPl-sCnc",
                            "system": "http://loinc.org"
                        }
                    ]
                },
                "effectiveDateTime": "2010-10-24T10:00:00.000Z",
                "valueQuantity": {
                    "value": 61,
                    "unit": "mg/dL"
                },
                "interpretation": [
                    {
                        "coding": [
                            {
                                "code": "N",
                                "system": "http://terminology.hl7.org/CodeSystem/v3-ObservationInterpretation"
                            }
                        ]
                    }
                ],
                "subject": {
                    "reference": "Patient/f40da2df-7505-315a-9acb-55513a02c37b"
                }
            },
            "request": {
                "method": "PUT",
                "url": "Observation/602305ad-93c8-3ad9-b765-9ea2c4e02f41"
            }
        },
        {
            "fullUrl": "urn:uuid:bdba4224-8e0e-3d2f-b169-a2106eee1401",
            "resource": {
                "resourceType": "Observation",
                "meta": {
                    "profile": [
                        "http://hl7.org/fhir/us/core/StructureDefinition/us-core-observationresults"
                    ]
                },
                "id": "bdba4224-8e0e-3d2f-b169-a2106eee1401",
                "identifier": [
                    {
                        "system": "urn:ietf:rfc:3986",
                        "value": "urn:uuid:107c2dc0-67a5-11db-bd13-0800200c9a66"
                    }
                ],
                "category": [
                    {
                        "coding": [
                            {
                                "system": "http://terminology.hl7.org/CodeSystem/observation-category",
                                "code": "laboratory"
                            }
                        ]
                    }
                ],
                "status": "final",
                "code": {
                    "coding": [
                        {
                            "code": "2089-1",
                            "display": "LDLc SerPl-mCnc",
                            "system": "http://loinc.org"
                        }
                    ]
                },
                "effectiveDateTime": "2010-10-24T10:00:00.000Z",
                "valueQuantity": {
                    "value": 106.6,
                    "unit": "mg/dL"
                },
                "interpretation": [
                    {
                        "coding": [
                            {
                                "code": "N",
                                "system": "http://terminology.hl7.org/CodeSystem/v3-ObservationInterpretation"
                            }
                        ]
                    }
                ],
                "subject": {
                    "reference": "Patient/f40da2df-7505-315a-9acb-55513a02c37b"
                }
            },
            "request": {
                "method": "PUT",
                "url": "Observation/bdba4224-8e0e-3d2f-b169-a2106eee1401"
            }
        },
        {
            "fullUrl": "urn:uuid:d8f2e245-c9fa-3140-8e43-fa119b5e90bf",
            "resource": {
                "resourceType": "Observation",
                "meta": {
                    "profile": [
                        "http://hl7.org/fhir/us/core/StructureDefinition/us-core-observationresults"
                    ]
                },
                "id": "d8f2e245-c9fa-3140-8e43-fa119b5e90bf",
                "identifier": [
                    {
                        "system": "urn:ietf:rfc:3986",
                        "value": "urn:uuid:107c2dc0-67a5-11db-bd13-0800200c9a66"
                    }
                ],
                "category": [
                    {
                        "coding": [
                            {
                                "system": "http://terminology.hl7.org/CodeSystem/observation-category",
                                "code": "laboratory"
                            }
                        ]
                    }
                ],
                "status": "final",
                "code": {
                    "coding": [
                        {
                            "code": "2093-3",
                            "display": "Cholest SerPl-mCnc",
                            "system": "http://loinc.org"
                        }
                    ]
                },
                "effectiveDateTime": "2010-10-24T10:00:00.000Z",
                "valueQuantity": {
                    "value": 197,
                    "unit": "mg/dL"
                },
                "interpretation": [
                    {
                        "coding": [
                            {
                                "code": "N",
                                "system": "http://terminology.hl7.org/CodeSystem/v3-ObservationInterpretation"
                            }
                        ]
                    }
                ],
                "subject": {
                    "reference": "Patient/f40da2df-7505-315a-9acb-55513a02c37b"
                }
            },
            "request": {
                "method": "PUT",
                "url": "Observation/d8f2e245-c9fa-3140-8e43-fa119b5e90bf"
            }
        },
        {
            "fullUrl": "urn:uuid:80e7e57f-2f95-3123-ba2b-e3884906a7aa",
            "resource": {
                "resourceType": "Observation",
                "meta": {
                    "profile": [
                        "http://hl7.org/fhir/us/core/StructureDefinition/us-core-observationresults"
                    ]
                },
                "id": "80e7e57f-2f95-3123-ba2b-e3884906a7aa",
                "identifier": [
                    {
                        "system": "urn:ietf:rfc:3986",
                        "value": "urn:uuid:107c2dc0-67a5-11db-bd13-0800200c9a66"
                    }
                ],
                "category": [
                    {
                        "coding": [
                            {
                                "system": "http://terminology.hl7.org/CodeSystem/observation-category",
                                "code": "laboratory"
                            }
                        ]
                    }
                ],
                "status": "final",
                "code": {
                    "coding": [
                        {
                            "code": "12951-0",
                            "display": "Trigl SerPl Calc-mCnc",
                            "system": "http://loinc.org"
                        }
                    ]
                },
                "effectiveDateTime": "2010-10-24T10:00:00.000Z",
                "valueQuantity": {
                    "value": 147,
                    "unit": "mg/dL"
                },
                "interpretation": [
                    {
                        "coding": [
                            {
                                "code": "N",
                                "system": "http://terminology.hl7.org/CodeSystem/v3-ObservationInterpretation"
                            }
                        ]
                    }
                ],
                "subject": {
                    "reference": "Patient/f40da2df-7505-315a-9acb-55513a02c37b"
                }
            },
            "request": {
                "method": "PUT",
                "url": "Observation/80e7e57f-2f95-3123-ba2b-e3884906a7aa"
            }
        },
        {
            "fullUrl": "urn:uuid:7c3508fd-cb45-3749-b7f6-a1ea22839fb8",
            "resource": {
                "resourceType": "Observation",
                "meta": {
                    "profile": [
                        "http://hl7.org/fhir/us/core/StructureDefinition/us-core-observationresults"
                    ]
                },
                "id": "7c3508fd-cb45-3749-b7f6-a1ea22839fb8",
                "identifier": [
                    {
                        "system": "urn:oid:2.16.840.1.113883.19",
                        "value": "123456789"
                    }
                ],
                "category": [
                    {
                        "coding": [
                            {
                                "system": "http://terminology.hl7.org/CodeSystem/observation-category",
                                "code": "social-history"
                            }
                        ]
                    }
                ],
                "status": "final",
                "code": {
                    "coding": [
                        {
                            "code": "ASSERTION",
                            "system": "urn:oid:2.16.840.1.113883.5.4"
                        }
                    ]
                },
                "effectivePeriod": {
                    "start": "2010-03-31T10:00:00.000Z"
                },
                "valueCodeableConcept": {
                    "coding": [
                        {
                            "code": "266919005",
                            "display": "Never smoker (Never Smoked)",
                            "system": "http://snomed.info/sct"
                        }
                    ]
                },
                "subject": {
                    "reference": "Patient/f40da2df-7505-315a-9acb-55513a02c37b"
                }
            },
            "request": {
                "method": "PUT",
                "url": "Observation/7c3508fd-cb45-3749-b7f6-a1ea22839fb8"
            }
        },
        {
            "fullUrl": "urn:uuid:00c94a6a-b1a8-3aa9-a2fb-0148107a5b6a",
            "resource": {
                "resourceType": "Observation",
                "meta": {
                    "profile": [
                        "http://hl7.org/fhir/us/core/StructureDefinition/us-core-observationresults"
                    ]
                },
                "id": "00c94a6a-b1a8-3aa9-a2fb-0148107a5b6a",
                "identifier": [
                    {
                        "system": "urn:ietf:rfc:3986",
                        "value": "urn:uuid:c6f88321-67ad-11db-bd13-0800200c9a66"
                    }
                ],
                "category": [
                    {
                        "coding": [
                            {
                                "system": "http://terminology.hl7.org/CodeSystem/observation-category",
                                "code": "vital-signs"
                            }
                        ]
                    }
                ],
                "status": "final",
                "code": {
                    "coding": [
                        {
                            "code": "39156-5",
                            "display": "BMI",
                            "system": "http://loinc.org"
                        }
                    ]
                },
                "effectiveDateTime": "2010-03-31T10:00:00.000Z",
                "valueQuantity": {
                    "value": 31.3,
                    "unit": "kg/m2"
                },
                "subject": {
                    "reference": "Patient/f40da2df-7505-315a-9acb-55513a02c37b"
                }
            },
            "request": {
                "method": "PUT",
                "url": "Observation/00c94a6a-b1a8-3aa9-a2fb-0148107a5b6a"
            }
        },
        {
            "fullUrl": "urn:uuid:40b54a8d-4201-3c78-83a4-4c901ec4a5d7",
            "resource": {
                "resourceType": "Observation",
                "meta": {
                    "profile": [
                        "http://hl7.org/fhir/us/core/StructureDefinition/us-core-observationresults"
                    ]
                },
                "id": "40b54a8d-4201-3c78-83a4-4c901ec4a5d7",
                "identifier": [
                    {
                        "system": "urn:ietf:rfc:3986",
                        "value": "urn:uuid:c6f88321-67ad-11db-bd13-0800200c9a66"
                    }
                ],
                "category": [
                    {
                        "coding": [
                            {
                                "system": "http://terminology.hl7.org/CodeSystem/observation-category",
                                "code": "vital-signs"
                            }
                        ]
                    }
                ],
                "status": "final",
                "code": {
                    "coding": [
                        {
                            "code": "8462-4",
                            "display": "BP Diastolic",
                            "system": "http://loinc.org"
                        }
                    ]
                },
                "effectiveDateTime": "2010-03-31T10:00:00.000Z",
                "valueQuantity": {
                    "value": 92,
                    "unit": "mm[Hg]"
                },
                "subject": {
                    "reference": "Patient/f40da2df-7505-315a-9acb-55513a02c37b"
                }
            },
            "request": {
                "method": "PUT",
                "url": "Observation/40b54a8d-4201-3c78-83a4-4c901ec4a5d7"
            }
        },
        {
            "fullUrl": "urn:uuid:80646461-70bd-3092-a724-acbc7d911ab0",
            "resource": {
                "resourceType": "Observation",
                "meta": {
                    "profile": [
                        "http://hl7.org/fhir/us/core/StructureDefinition/us-core-observationresults"
                    ]
                },
                "id": "80646461-70bd-3092-a724-acbc7d911ab0",
                "identifier": [
                    {
                        "system": "urn:ietf:rfc:3986",
                        "value": "urn:uuid:c6f88321-67ad-11db-bd13-0800200c9a66"
                    }
                ],
                "category": [
                    {
                        "coding": [
                            {
                                "system": "http://terminology.hl7.org/CodeSystem/observation-category",
                                "code": "vital-signs"
                            }
                        ]
                    }
                ],
                "status": "final",
                "code": {
                    "coding": [
                        {
                            "code": "8480-6",
                            "display": "BP Systolic",
                            "system": "http://loinc.org"
                        }
                    ]
                },
                "effectiveDateTime": "2010-03-31T10:00:00.000Z",
                "valueQuantity": {
                    "value": 145,
                    "unit": "mm[Hg]"
                },
                "subject": {
                    "reference": "Patient/f40da2df-7505-315a-9acb-55513a02c37b"
                }
            },
            "request": {
                "method": "PUT",
                "url": "Observation/80646461-70bd-3092-a724-acbc7d911ab0"
            }
        },
        {
            "fullUrl": "urn:uuid:fb7d5be4-83f1-38b5-9d2c-2b3d6064aacf",
            "resource": {
                "resourceType": "Observation",
                "meta": {
                    "profile": [
                        "http://hl7.org/fhir/us/core/StructureDefinition/us-core-observationresults"
                    ]
                },
                "id": "fb7d5be4-83f1-38b5-9d2c-2b3d6064aacf",
                "identifier": [
                    {
                        "system": "urn:ietf:rfc:3986",
                        "value": "urn:uuid:c6f88321-67ad-11db-bd13-0800200c9a66"
                    }
                ],
                "category": [
                    {
                        "coding": [
                            {
                                "system": "http://terminology.hl7.org/CodeSystem/observation-category",
                                "code": "vital-signs"
                            }
                        ]
                    }
                ],
                "status": "final",
                "code": {
                    "coding": [
                        {
                            "code": "39156-5",
                            "display": "BMI",
                            "system": "http://loinc.org"
                        }
                    ]
                },
                "effectiveDateTime": "2010-05-23T10:00:00.000Z",
                "valueQuantity": {
                    "value": 30.7,
                    "unit": "kg/m2"
                },
                "subject": {
                    "reference": "Patient/f40da2df-7505-315a-9acb-55513a02c37b"
                }
            },
            "request": {
                "method": "PUT",
                "url": "Observation/fb7d5be4-83f1-38b5-9d2c-2b3d6064aacf"
            }
        },
        {
            "fullUrl": "urn:uuid:d97666c2-f35b-340d-81f8-150a17ed0430",
            "resource": {
                "resourceType": "Observation",
                "meta": {
                    "profile": [
                        "http://hl7.org/fhir/us/core/StructureDefinition/us-core-observationresults"
                    ]
                },
                "id": "d97666c2-f35b-340d-81f8-150a17ed0430",
                "identifier": [
                    {
                        "system": "urn:ietf:rfc:3986",
                        "value": "urn:uuid:c6f88321-67ad-11db-bd13-0800200c9a66"
                    }
                ],
                "category": [
                    {
                        "coding": [
                            {
                                "system": "http://terminology.hl7.org/CodeSystem/observation-category",
                                "code": "vital-signs"
                            }
                        ]
                    }
                ],
                "status": "final",
                "code": {
                    "coding": [
                        {
                            "code": "8462-4",
                            "display": "BP Diastolic",
                            "system": "http://loinc.org"
                        }
                    ]
                },
                "effectiveDateTime": "2010-05-23T10:00:00.000Z",
                "valueQuantity": {
                    "value": 100,
                    "unit": "mm[Hg]"
                },
                "subject": {
                    "reference": "Patient/f40da2df-7505-315a-9acb-55513a02c37b"
                }
            },
            "request": {
                "method": "PUT",
                "url": "Observation/d97666c2-f35b-340d-81f8-150a17ed0430"
            }
        },
        {
            "fullUrl": "urn:uuid:07a0351b-a8b2-3728-ae92-2754b5ac7a0c",
            "resource": {
                "resourceType": "Observation",
                "meta": {
                    "profile": [
                        "http://hl7.org/fhir/us/core/StructureDefinition/us-core-observationresults"
                    ]
                },
                "id": "07a0351b-a8b2-3728-ae92-2754b5ac7a0c",
                "identifier": [
                    {
                        "system": "urn:ietf:rfc:3986",
                        "value": "urn:uuid:c6f88321-67ad-11db-bd13-0800200c9a66"
                    }
                ],
                "category": [
                    {
                        "coding": [
                            {
                                "system": "http://terminology.hl7.org/CodeSystem/observation-category",
                                "code": "vital-signs"
                            }
                        ]
                    }
                ],
                "status": "final",
                "code": {
                    "coding": [
                        {
                            "code": "8867-4",
                            "display": "Heart Rate",
                            "system": "http://loinc.org"
                        }
                    ]
                },
                "effectiveDateTime": "2010-05-23T10:00:00.000Z",
                "valueQuantity": {
                    "value": 100,
                    "unit": "/min"
                },
                "subject": {
                    "reference": "Patient/f40da2df-7505-315a-9acb-55513a02c37b"
                }
            },
            "request": {
                "method": "PUT",
                "url": "Observation/07a0351b-a8b2-3728-ae92-2754b5ac7a0c"
            }
        },
        {
            "fullUrl": "urn:uuid:cdb02dba-910f-3598-b022-5ae25c6f9b5a",
            "resource": {
                "resourceType": "Observation",
                "meta": {
                    "profile": [
                        "http://hl7.org/fhir/us/core/StructureDefinition/us-core-observationresults"
                    ]
                },
                "id": "cdb02dba-910f-3598-b022-5ae25c6f9b5a",
                "identifier": [
                    {
                        "system": "urn:ietf:rfc:3986",
                        "value": "urn:uuid:c6f88321-67ad-11db-bd13-0800200c9a66"
                    }
                ],
                "category": [
                    {
                        "coding": [
                            {
                                "system": "http://terminology.hl7.org/CodeSystem/observation-category",
                                "code": "vital-signs"
                            }
                        ]
                    }
                ],
                "status": "final",
                "code": {
                    "coding": [
                        {
                            "code": "8480-6",
                            "display": "BP Systolic",
                            "system": "http://loinc.org"
                        }
                    ]
                },
                "effectiveDateTime": "2010-05-23T10:00:00.000Z",
                "valueQuantity": {
                    "value": 160,
                    "unit": "mm[Hg]"
                },
                "subject": {
                    "reference": "Patient/f40da2df-7505-315a-9acb-55513a02c37b"
                }
            },
            "request": {
                "method": "PUT",
                "url": "Observation/cdb02dba-910f-3598-b022-5ae25c6f9b5a"
            }
        },
        {
            "fullUrl": "urn:uuid:da2bd9bf-580b-3558-91bb-621dafcc4a62",
            "resource": {
                "resourceType": "Observation",
                "meta": {
                    "profile": [
                        "http://hl7.org/fhir/us/core/StructureDefinition/us-core-observationresults"
                    ]
                },
                "id": "da2bd9bf-580b-3558-91bb-621dafcc4a62",
                "identifier": [
                    {
                        "system": "urn:ietf:rfc:3986",
                        "value": "urn:uuid:c6f88321-67ad-11db-bd13-0800200c9a66"
                    }
                ],
                "category": [
                    {
                        "coding": [
                            {
                                "system": "http://terminology.hl7.org/CodeSystem/observation-category",
                                "code": "vital-signs"
                            }
                        ]
                    }
                ],
                "status": "final",
                "code": {
                    "coding": [
                        {
                            "code": "8462-4",
                            "display": "BP Diastolic",
                            "system": "http://loinc.org"
                        }
                    ]
                },
                "effectiveDateTime": "2010-05-28T10:00:00.000Z",
                "valueQuantity": {
                    "value": 80,
                    "unit": "mm[Hg]"
                },
                "subject": {
                    "reference": "Patient/f40da2df-7505-315a-9acb-55513a02c37b"
                }
            },
            "request": {
                "method": "PUT",
                "url": "Observation/da2bd9bf-580b-3558-91bb-621dafcc4a62"
            }
        },
        {
            "fullUrl": "urn:uuid:6e45a271-5722-39b2-8c54-9e95b9325915",
            "resource": {
                "resourceType": "Observation",
                "meta": {
                    "profile": [
                        "http://hl7.org/fhir/us/core/StructureDefinition/us-core-observationresults"
                    ]
                },
                "id": "6e45a271-5722-39b2-8c54-9e95b9325915",
                "identifier": [
                    {
                        "system": "urn:ietf:rfc:3986",
                        "value": "urn:uuid:c6f88321-67ad-11db-bd13-0800200c9a66"
                    }
                ],
                "category": [
                    {
                        "coding": [
                            {
                                "system": "http://terminology.hl7.org/CodeSystem/observation-category",
                                "code": "vital-signs"
                            }
                        ]
                    }
                ],
                "status": "final",
                "code": {
                    "coding": [
                        {
                            "code": "8867-4",
                            "display": "Heart Rate",
                            "system": "http://loinc.org"
                        }
                    ]
                },
                "effectiveDateTime": "2010-05-28T10:00:00.000Z",
                "valueQuantity": {
                    "value": 88,
                    "unit": "/min"
                },
                "subject": {
                    "reference": "Patient/f40da2df-7505-315a-9acb-55513a02c37b"
                }
            },
            "request": {
                "method": "PUT",
                "url": "Observation/6e45a271-5722-39b2-8c54-9e95b9325915"
            }
        },
        {
            "fullUrl": "urn:uuid:13924b6b-54da-35fd-b41c-ac2ca1668ab9",
            "resource": {
                "resourceType": "Observation",
                "meta": {
                    "profile": [
                        "http://hl7.org/fhir/us/core/StructureDefinition/us-core-observationresults"
                    ]
                },
                "id": "13924b6b-54da-35fd-b41c-ac2ca1668ab9",
                "identifier": [
                    {
                        "system": "urn:ietf:rfc:3986",
                        "value": "urn:uuid:c6f88321-67ad-11db-bd13-0800200c9a66"
                    }
                ],
                "category": [
                    {
                        "coding": [
                            {
                                "system": "http://terminology.hl7.org/CodeSystem/observation-category",
                                "code": "vital-signs"
                            }
                        ]
                    }
                ],
                "status": "final",
                "code": {
                    "coding": [
                        {
                            "code": "8480-6",
                            "display": "BP Systolic",
                            "system": "http://loinc.org"
                        }
                    ]
                },
                "effectiveDateTime": "2010-05-28T10:00:00.000Z",
                "valueQuantity": {
                    "value": 125,
                    "unit": "mm[Hg]"
                },
                "subject": {
                    "reference": "Patient/f40da2df-7505-315a-9acb-55513a02c37b"
                }
            },
            "request": {
                "method": "PUT",
                "url": "Observation/13924b6b-54da-35fd-b41c-ac2ca1668ab9"
            }
        },
        {
            "fullUrl": "urn:uuid:dc71b347-2399-3c7d-ae15-0921b4ebd36d",
            "resource": {
                "resourceType": "Observation",
                "meta": {
                    "profile": [
                        "http://hl7.org/fhir/us/core/StructureDefinition/us-core-observationresults"
                    ]
                },
                "id": "dc71b347-2399-3c7d-ae15-0921b4ebd36d",
                "identifier": [
                    {
                        "system": "urn:ietf:rfc:3986",
                        "value": "urn:uuid:c6f88321-67ad-11db-bd13-0800200c9a66"
                    }
                ],
                "category": [
                    {
                        "coding": [
                            {
                                "system": "http://terminology.hl7.org/CodeSystem/observation-category",
                                "code": "vital-signs"
                            }
                        ]
                    }
                ],
                "status": "final",
                "code": {
                    "coding": [
                        {
                            "code": "39156-5",
                            "display": "BMI",
                            "system": "http://loinc.org"
                        }
                    ]
                },
                "effectiveDateTime": "2010-06-25T10:00:00.000Z",
                "valueQuantity": {
                    "value": 29.9,
                    "unit": "kg/m2"
                },
                "subject": {
                    "reference": "Patient/f40da2df-7505-315a-9acb-55513a02c37b"
                }
            },
            "request": {
                "method": "PUT",
                "url": "Observation/dc71b347-2399-3c7d-ae15-0921b4ebd36d"
            }
        },
        {
            "fullUrl": "urn:uuid:157a209d-54e1-3e66-9dac-10468d5ff4d0",
            "resource": {
                "resourceType": "Observation",
                "meta": {
                    "profile": [
                        "http://hl7.org/fhir/us/core/StructureDefinition/us-core-observationresults"
                    ]
                },
                "id": "157a209d-54e1-3e66-9dac-10468d5ff4d0",
                "identifier": [
                    {
                        "system": "urn:ietf:rfc:3986",
                        "value": "urn:uuid:c6f88321-67ad-11db-bd13-0800200c9a66"
                    }
                ],
                "category": [
                    {
                        "coding": [
                            {
                                "system": "http://terminology.hl7.org/CodeSystem/observation-category",
                                "code": "vital-signs"
                            }
                        ]
                    }
                ],
                "status": "final",
                "code": {
                    "coding": [
                        {
                            "code": "8462-4",
                            "display": "BP Diastolic",
                            "system": "http://loinc.org"
                        }
                    ]
                },
                "effectiveDateTime": "2010-06-25T10:00:00.000Z",
                "valueQuantity": {
                    "value": 88,
                    "unit": "mm[Hg]"
                },
                "subject": {
                    "reference": "Patient/f40da2df-7505-315a-9acb-55513a02c37b"
                }
            },
            "request": {
                "method": "PUT",
                "url": "Observation/157a209d-54e1-3e66-9dac-10468d5ff4d0"
            }
        },
        {
            "fullUrl": "urn:uuid:11109abf-a0aa-3982-add4-e0def6c8b9bb",
            "resource": {
                "resourceType": "Observation",
                "meta": {
                    "profile": [
                        "http://hl7.org/fhir/us/core/StructureDefinition/us-core-observationresults"
                    ]
                },
                "id": "11109abf-a0aa-3982-add4-e0def6c8b9bb",
                "identifier": [
                    {
                        "system": "urn:ietf:rfc:3986",
                        "value": "urn:uuid:c6f88321-67ad-11db-bd13-0800200c9a66"
                    }
                ],
                "category": [
                    {
                        "coding": [
                            {
                                "system": "http://terminology.hl7.org/CodeSystem/observation-category",
                                "code": "vital-signs"
                            }
                        ]
                    }
                ],
                "status": "final",
                "code": {
                    "coding": [
                        {
                            "code": "8867-4",
                            "display": "Heart Rate",
                            "system": "http://loinc.org"
                        }
                    ]
                },
                "effectiveDateTime": "2010-06-25T10:00:00.000Z",
                "valueQuantity": {
                    "value": 86,
                    "unit": "/min"
                },
                "subject": {
                    "reference": "Patient/f40da2df-7505-315a-9acb-55513a02c37b"
                }
            },
            "request": {
                "method": "PUT",
                "url": "Observation/11109abf-a0aa-3982-add4-e0def6c8b9bb"
            }
        },
        {
            "fullUrl": "urn:uuid:9f024e99-f015-3a0b-9145-e2d133e70727",
            "resource": {
                "resourceType": "Observation",
                "meta": {
                    "profile": [
                        "http://hl7.org/fhir/us/core/StructureDefinition/us-core-observationresults"
                    ]
                },
                "id": "9f024e99-f015-3a0b-9145-e2d133e70727",
                "identifier": [
                    {
                        "system": "urn:ietf:rfc:3986",
                        "value": "urn:uuid:c6f88321-67ad-11db-bd13-0800200c9a66"
                    }
                ],
                "category": [
                    {
                        "coding": [
                            {
                                "system": "http://terminology.hl7.org/CodeSystem/observation-category",
                                "code": "vital-signs"
                            }
                        ]
                    }
                ],
                "status": "final",
                "code": {
                    "coding": [
                        {
                            "code": "8480-6",
                            "display": "BP Systolic",
                            "system": "http://loinc.org"
                        }
                    ]
                },
                "effectiveDateTime": "2010-06-25T10:00:00.000Z",
                "valueQuantity": {
                    "value": 132,
                    "unit": "mm[Hg]"
                },
                "subject": {
                    "reference": "Patient/f40da2df-7505-315a-9acb-55513a02c37b"
                }
            },
            "request": {
                "method": "PUT",
                "url": "Observation/9f024e99-f015-3a0b-9145-e2d133e70727"
            }
        },
        {
            "fullUrl": "urn:uuid:80706ea3-fd78-3098-b2a5-ab7046a0222a",
            "resource": {
                "resourceType": "Observation",
                "meta": {
                    "profile": [
                        "http://hl7.org/fhir/us/core/StructureDefinition/us-core-observationresults"
                    ]
                },
                "id": "80706ea3-fd78-3098-b2a5-ab7046a0222a",
                "identifier": [
                    {
                        "system": "urn:ietf:rfc:3986",
                        "value": "urn:uuid:c6f88321-67ad-11db-bd13-0800200c9a66"
                    }
                ],
                "category": [
                    {
                        "coding": [
                            {
                                "system": "http://terminology.hl7.org/CodeSystem/observation-category",
                                "code": "vital-signs"
                            }
                        ]
                    }
                ],
                "status": "final",
                "code": {
                    "coding": [
                        {
                            "code": "39156-5",
                            "display": "BMI",
                            "system": "http://loinc.org"
                        }
                    ]
                },
                "effectiveDateTime": "2010-10-24T10:00:00.000Z",
                "valueQuantity": {
                    "value": 28.2,
                    "unit": "kg/m2"
                },
                "subject": {
                    "reference": "Patient/f40da2df-7505-315a-9acb-55513a02c37b"
                }
            },
            "request": {
                "method": "PUT",
                "url": "Observation/80706ea3-fd78-3098-b2a5-ab7046a0222a"
            }
        },
        {
            "fullUrl": "urn:uuid:28035cf8-e181-3682-acc1-424ac3d914f4",
            "resource": {
                "resourceType": "Observation",
                "meta": {
                    "profile": [
                        "http://hl7.org/fhir/us/core/StructureDefinition/us-core-observationresults"
                    ]
                },
                "id": "28035cf8-e181-3682-acc1-424ac3d914f4",
                "identifier": [
                    {
                        "system": "urn:ietf:rfc:3986",
                        "value": "urn:uuid:c6f88321-67ad-11db-bd13-0800200c9a66"
                    }
                ],
                "category": [
                    {
                        "coding": [
                            {
                                "system": "http://terminology.hl7.org/CodeSystem/observation-category",
                                "code": "vital-signs"
                            }
                        ]
                    }
                ],
                "status": "final",
                "code": {
                    "coding": [
                        {
                            "code": "8462-4",
                            "display": "BP Diastolic",
                            "system": "http://loinc.org"
                        }
                    ]
                },
                "effectiveDateTime": "2010-10-24T10:00:00.000Z",
                "valueQuantity": {
                    "value": 84,
                    "unit": "mm[Hg]"
                },
                "subject": {
                    "reference": "Patient/f40da2df-7505-315a-9acb-55513a02c37b"
                }
            },
            "request": {
                "method": "PUT",
                "url": "Observation/28035cf8-e181-3682-acc1-424ac3d914f4"
            }
        },
        {
            "fullUrl": "urn:uuid:18ac3083-9646-3e02-a253-2b855c1cf113",
            "resource": {
                "resourceType": "Observation",
                "meta": {
                    "profile": [
                        "http://hl7.org/fhir/us/core/StructureDefinition/us-core-observationresults"
                    ]
                },
                "id": "18ac3083-9646-3e02-a253-2b855c1cf113",
                "identifier": [
                    {
                        "system": "urn:ietf:rfc:3986",
                        "value": "urn:uuid:c6f88321-67ad-11db-bd13-0800200c9a66"
                    }
                ],
                "category": [
                    {
                        "coding": [
                            {
                                "system": "http://terminology.hl7.org/CodeSystem/observation-category",
                                "code": "vital-signs"
                            }
                        ]
                    }
                ],
                "status": "final",
                "code": {
                    "coding": [
                        {
                            "code": "8867-4",
                            "display": "Heart Rate",
                            "system": "http://loinc.org"
                        }
                    ]
                },
                "effectiveDateTime": "2010-10-24T10:00:00.000Z",
                "valueQuantity": {
                    "value": 84,
                    "unit": "/min"
                },
                "subject": {
                    "reference": "Patient/f40da2df-7505-315a-9acb-55513a02c37b"
                }
            },
            "request": {
                "method": "PUT",
                "url": "Observation/18ac3083-9646-3e02-a253-2b855c1cf113"
            }
        },
        {
            "fullUrl": "urn:uuid:7fe1e165-1c7b-3c0d-880f-74af6215cbb4",
            "resource": {
                "resourceType": "Observation",
                "meta": {
                    "profile": [
                        "http://hl7.org/fhir/us/core/StructureDefinition/us-core-observationresults"
                    ]
                },
                "id": "7fe1e165-1c7b-3c0d-880f-74af6215cbb4",
                "identifier": [
                    {
                        "system": "urn:ietf:rfc:3986",
                        "value": "urn:uuid:c6f88321-67ad-11db-bd13-0800200c9a66"
                    }
                ],
                "category": [
                    {
                        "coding": [
                            {
                                "system": "http://terminology.hl7.org/CodeSystem/observation-category",
                                "code": "vital-signs"
                            }
                        ]
                    }
                ],
                "status": "final",
                "code": {
                    "coding": [
                        {
                            "code": "8480-6",
                            "display": "BP Systolic",
                            "system": "http://loinc.org"
                        }
                    ]
                },
                "effectiveDateTime": "2010-10-24T10:00:00.000Z",
                "valueQuantity": {
                    "value": 130,
                    "unit": "mm[Hg]"
                },
                "subject": {
                    "reference": "Patient/f40da2df-7505-315a-9acb-55513a02c37b"
                }
            },
            "request": {
                "method": "PUT",
                "url": "Observation/7fe1e165-1c7b-3c0d-880f-74af6215cbb4"
            }
        },
        {
            "fullUrl": "urn:uuid:e2cd9598-f96a-3dba-acac-4d7761e2ab18",
            "resource": {
                "resourceType": "Procedure",
                "meta": {
                    "profile": [
                        "http://hl7.org/fhir/us/core/StructureDefinition/us-core-procedure"
                    ]
                },
                "id": "e2cd9598-f96a-3dba-acac-4d7761e2ab18",
                "identifier": [
                    {
                        "system": "urn:ietf:rfc:3986",
                        "value": "urn:uuid:e401f340-7be2-11db-9fe1-0800200c9a66"
                    }
                ],
                "status": "completed",
                "performedDateTime": "2010-03-31T10:00:00.000Z",
                "subject": {
                    "reference": "Patient/f40da2df-7505-315a-9acb-55513a02c37b"
                }
            },
            "request": {
                "method": "PUT",
                "url": "Procedure/e2cd9598-f96a-3dba-acac-4d7761e2ab18"
            }
        },
        {
            "fullUrl": "urn:uuid:146f383a-8d1f-331a-9c4c-40ee137afac0",
            "resource": {
                "resourceType": "Procedure",
                "meta": {
                    "profile": [
                        "http://hl7.org/fhir/us/core/StructureDefinition/us-core-procedure"
                    ]
                },
                "id": "146f383a-8d1f-331a-9c4c-40ee137afac0",
                "identifier": [
                    {
                        "system": "urn:ietf:rfc:3986",
                        "value": "urn:uuid:e401f340-7be2-11db-9fe1-0800200c9a66"
                    }
                ],
                "status": "completed",
                "performedDateTime": "2010-03-31T10:00:00.000Z",
                "subject": {
                    "reference": "Patient/f40da2df-7505-315a-9acb-55513a02c37b"
                }
            },
            "request": {
                "method": "PUT",
                "url": "Procedure/146f383a-8d1f-331a-9c4c-40ee137afac0"
            }
        },
        {
            "fullUrl": "urn:uuid:ee7e8465-d8cf-3464-8702-73fa67b12f68",
            "resource": {
                "resourceType": "Procedure",
                "meta": {
                    "profile": [
                        "http://hl7.org/fhir/us/core/StructureDefinition/us-core-procedure"
                    ]
                },
                "id": "ee7e8465-d8cf-3464-8702-73fa67b12f68",
                "identifier": [
                    {
                        "system": "urn:ietf:rfc:3986",
                        "value": "urn:uuid:e401f340-7be2-11db-9fe1-0800200c9a66"
                    }
                ],
                "status": "completed",
                "code": {
                    "coding": [
                        {
                            "code": "363680008",
                            "display": "Radiographic imaging procedure (procedure)",
                            "system": "http://snomed.info/sct"
                        }
                    ]
                },
                "performedDateTime": "2010-05-23T10:00:00.000Z",
                "subject": {
                    "reference": "Patient/f40da2df-7505-315a-9acb-55513a02c37b"
                }
            },
            "request": {
                "method": "PUT",
                "url": "Procedure/ee7e8465-d8cf-3464-8702-73fa67b12f68"
            }
        },
        {
            "fullUrl": "urn:uuid:0422bbd2-c2a5-3a3a-bb7a-88b2f970637f",
            "resource": {
                "resourceType": "Procedure",
                "meta": {
                    "profile": [
                        "http://hl7.org/fhir/us/core/StructureDefinition/us-core-procedure"
                    ]
                },
                "id": "0422bbd2-c2a5-3a3a-bb7a-88b2f970637f",
                "identifier": [
                    {
                        "system": "urn:ietf:rfc:3986",
                        "value": "urn:uuid:e401f340-7be2-11db-9fe1-0800200c9a66"
                    }
                ],
                "status": "completed",
                "code": {
                    "coding": [
                        {
                            "code": "93543",
                            "display": "Injection for heart x-rays",
                            "system": "urn:oid:2.16.840.1.113883.6.12"
                        }
                    ]
                },
                "performedDateTime": "2010-05-24T10:00:00.000Z",
                "subject": {
                    "reference": "Patient/f40da2df-7505-315a-9acb-55513a02c37b"
                }
            },
            "request": {
                "method": "PUT",
                "url": "Procedure/0422bbd2-c2a5-3a3a-bb7a-88b2f970637f"
            }
        },
        {
            "fullUrl": "urn:uuid:4771ea33-de9d-33d9-bfad-823dbff502d1",
            "resource": {
                "resourceType": "Procedure",
                "meta": {
                    "profile": [
                        "http://hl7.org/fhir/us/core/StructureDefinition/us-core-procedure"
                    ]
                },
                "id": "4771ea33-de9d-33d9-bfad-823dbff502d1",
                "identifier": [
                    {
                        "system": "urn:ietf:rfc:3986",
                        "value": "urn:uuid:e401f340-7be2-11db-9fe1-0800200c9a66"
                    }
                ],
                "status": "completed",
                "code": {
                    "coding": [
                        {
                            "code": "23852006",
                            "display": "Cardiac monitoring",
                            "system": "http://snomed.info/sct"
                        }
                    ]
                },
                "performedDateTime": "2010-05-25T10:00:00.000Z",
                "subject": {
                    "reference": "Patient/f40da2df-7505-315a-9acb-55513a02c37b"
                }
            },
            "request": {
                "method": "PUT",
                "url": "Procedure/4771ea33-de9d-33d9-bfad-823dbff502d1"
            }
        },
        {
            "fullUrl": "urn:uuid:7493f181-8418-3272-b197-59866a66c68d",
            "resource": {
                "resourceType": "Procedure",
                "meta": {
                    "profile": [
                        "http://hl7.org/fhir/us/core/StructureDefinition/us-core-procedure"
                    ]
                },
                "id": "7493f181-8418-3272-b197-59866a66c68d",
                "identifier": [
                    {
                        "system": "urn:ietf:rfc:3986",
                        "value": "urn:uuid:e401f340-7be2-11db-9fe1-0800200c9a66"
                    }
                ],
                "status": "completed",
                "code": {
                    "coding": [
                        {
                            "code": "103699006",
                            "display": "Patient referral to dietitian",
                            "system": "http://snomed.info/sct"
                        }
                    ]
                },
                "performedDateTime": "2010-05-27T10:00:00.000Z",
                "subject": {
                    "reference": "Patient/f40da2df-7505-315a-9acb-55513a02c37b"
                }
            },
            "request": {
                "method": "PUT",
                "url": "Procedure/7493f181-8418-3272-b197-59866a66c68d"
            }
        },
        {
            "fullUrl": "urn:uuid:5ce1233a-2ae7-3de3-b05c-4e7280f3bcd0",
            "resource": {
                "resourceType": "Procedure",
                "meta": {
                    "profile": [
                        "http://hl7.org/fhir/us/core/StructureDefinition/us-core-procedure"
                    ]
                },
                "id": "5ce1233a-2ae7-3de3-b05c-4e7280f3bcd0",
                "identifier": [
                    {
                        "system": "urn:ietf:rfc:3986",
                        "value": "urn:uuid:e401f340-7be2-11db-9fe1-0800200c9a66"
                    }
                ],
                "status": "completed",
                "code": {
                    "coding": [
                        {
                            "code": "401191002",
                            "display": "Diabetic foot examination",
                            "system": "http://snomed.info/sct"
                        }
                    ]
                },
                "performedDateTime": "2010-06-25T10:00:00.000Z",
                "subject": {
                    "reference": "Patient/f40da2df-7505-315a-9acb-55513a02c37b"
                }
            },
            "request": {
                "method": "PUT",
                "url": "Procedure/5ce1233a-2ae7-3de3-b05c-4e7280f3bcd0"
            }
        },
        {
            "fullUrl": "urn:uuid:ce791c0b-b518-3c5c-aaac-27e4f33523a7",
            "resource": {
                "resourceType": "Procedure",
                "meta": {
                    "profile": [
                        "http://hl7.org/fhir/us/core/StructureDefinition/us-core-procedure"
                    ]
                },
                "id": "ce791c0b-b518-3c5c-aaac-27e4f33523a7",
                "identifier": [
                    {
                        "system": "urn:ietf:rfc:3986",
                        "value": "urn:uuid:e401f340-7be2-11db-9fe1-0800200c9a66"
                    }
                ],
                "status": "completed",
                "performedDateTime": "2010-07-30T10:00:00.000Z",
                "subject": {
                    "reference": "Patient/f40da2df-7505-315a-9acb-55513a02c37b"
                }
            },
            "request": {
                "method": "PUT",
                "url": "Procedure/ce791c0b-b518-3c5c-aaac-27e4f33523a7"
            }
        },
        {
            "fullUrl": "urn:uuid:c4664bdc-3ebb-33e7-8da9-daf2502ab1b0",
            "resource": {
                "resourceType": "Procedure",
                "meta": {
                    "profile": [
                        "http://hl7.org/fhir/us/core/StructureDefinition/us-core-procedure"
                    ]
                },
                "id": "c4664bdc-3ebb-33e7-8da9-daf2502ab1b0",
                "identifier": [
                    {
                        "system": "urn:ietf:rfc:3986",
                        "value": "urn:uuid:e401f340-7be2-11db-9fe1-0800200c9a66"
                    }
                ],
                "status": "completed",
                "code": {
                    "coding": [
                        {
                            "code": "401191002",
                            "display": "Diabetic foot examination",
                            "system": "http://snomed.info/sct"
                        }
                    ]
                },
                "performedDateTime": "2010-10-24T10:00:00.000Z",
                "subject": {
                    "reference": "Patient/f40da2df-7505-315a-9acb-55513a02c37b"
                }
            },
            "request": {
                "method": "PUT",
                "url": "Procedure/c4664bdc-3ebb-33e7-8da9-daf2502ab1b0"
            }
        },
        {
            "fullUrl": "urn:uuid:bd8cfd16-6f3f-3482-bb73-ac16721dc7cb",
            "resource": {
                "resourceType": "DocumentReference",
                "id": "bd8cfd16-6f3f-3482-bb73-ac16721dc7cb",
                "type": {
                    "coding": [
                        {
                            "code": "34133-9",
                            "display": "Summarization of Episode Note",
                            "system": "http://loinc.org"
                        }
                    ]
                },
                "date": "2020-08-26T07:49:30.685Z",
                "status": "current",
                "content": [
                    {
                        "attachment": {
                            "contentType": "text/plain",
                            "data": "",
                            "hash": "daRrBLU+c9XmclqMnBuMXSK5TNg="
                        }
                    }
                ]
            },
            "request": {
                "method": "PUT",
                "url": "DocumentReference/bd8cfd16-6f3f-3482-bb73-ac16721dc7cb"
            }
        }
    ]
}