{
    "resourceType": "Bundle",
    "type": "batch",
    "entry": [
        {
            "fullUrl": "urn:uuid:87b820a0-5e09-3f34-9346-711dbb07e03b",
            "resource": {
                "resourceType": "Composition",
                "id": "87b820a0-5e09-3f34-9346-711dbb07e03b",
                "identifier": {
                    "use": "official",
                    "value": "be84a8e4-a22e-4210-a4a6-b3c48273e84c"
                },
                "status": "final",
                "type": {
                    "coding": [
                        {
                            "code": "34133-9",
                            "display": "Summarization of Episode Note",
                            "system": "http://loinc.org"
                        }
                    ]
                },
                "date": "2014-10-15T15:30:26.000Z",
                "title": "Summary of Patient Chart",
                "confidentiality": "N",
                "attester": [
                    {
                        "mode": "legal",
                        "time": "2014-10-15T15:30:26.000Z",
                        "party": {
                            "reference": "Practitioner/4939e179-a309-30ef-9889-e04751868181"
                        }
                    }
                ],
                "event": [
                    {
                        "period": {
                            "start": "2014-10-01"
                        }
                    }
                ],
                "section": [
                    {
                        "title": "ALLERGIES AND ADVERSE REACTIONS",
                        "text": {
                            "status": "generated",
                            "div": "<div xmlns=\"http://www.w3.org/1999/xhtml\">ALLERGIES AND ADVERSE REACTIONS</div>"
                        },
                        "code": {
                            "coding": [
                                {
                                    "code": "48765-2",
                                    "system": "http://loinc.org"
                                }
                            ]
                        },
                        "mode": "snapshot",
                        "entry": [
                            {
                                "reference": "AllergyIntolerance/603944ee-75ef-304c-b9c6-0cb06d234af6",
                                "display": "Substance"
                            }
                        ]
                    },
                    {
                        "title": "MEDICATIONS",
                        "text": {
                            "status": "generated",
                            "div": "<div xmlns=\"http://www.w3.org/1999/xhtml\">MEDICATIONS</div>"
                        },
                        "code": {
                            "coding": [
                                {
                                    "code": "10160-0",
                                    "display": "HISTORY OF MEDICATION USE",
                                    "system": "http://loinc.org"
                                }
                            ]
                        },
                        "mode": "snapshot"
                    },
                    {
                        "title": "PROBLEMS",
                        "text": {
                            "status": "generated",
                            "div": "<div xmlns=\"http://www.w3.org/1999/xhtml\">PROBLEMS</div>"
                        },
                        "code": {
                            "coding": [
                                {
                                    "code": "11450-4",
                                    "display": "PROBLEM LIST",
                                    "system": "http://loinc.org"
                                }
                            ]
                        },
                        "mode": "snapshot"
                    },
                    {
                        "title": "PROCEDURES",
                        "text": {
                            "status": "generated",
                            "div": "<div xmlns=\"http://www.w3.org/1999/xhtml\">PROCEDURES</div>"
                        },
                        "code": {
                            "coding": [
                                {
                                    "code": "47519-4",
                                    "display": "HISTORY OF PROCEDURES",
                                    "system": "http://loinc.org"
                                }
                            ]
                        },
                        "mode": "snapshot",
                        "entry": [
                            {
                                "reference": "Procedure/da13ba27-6b8c-3901-8639-5b28781651de"
                            },
                            {
                                "reference": "Procedure/a3dec4e1-2208-311a-b408-c943c71e451b"
                            },
                            {
                                "reference": "Procedure/b8b148a6-3fe3-3851-8dcc-19890d7a2a02"
                            }
                        ]
                    },
                    {
                        "title": "RESULTS",
                        "text": {
                            "status": "generated",
                            "div": "<div xmlns=\"http://www.w3.org/1999/xhtml\">RESULTS</div>"
                        },
                        "code": {
                            "coding": [
                                {
                                    "code": "30954-2",
                                    "display": "RESULTS",
                                    "system": "http://loinc.org"
                                }
                            ]
                        },
                        "mode": "snapshot",
                        "entry": [
                            {
                                "reference": "DiagnosticReport/a528b1c9-952e-32c5-ba98-23aa44ba0524"
                            }
                        ]
                    },
                    {
                        "title": "SOCIAL HISTORY",
                        "text": {
                            "status": "generated",
                            "div": "<div xmlns=\"http://www.w3.org/1999/xhtml\">SOCIAL HISTORY</div>"
                        },
                        "code": {
                            "coding": [
                                {
                                    "code": "29762-2",
                                    "display": "Social History",
                                    "system": "http://loinc.org"
                                }
                            ]
                        },
                        "mode": "snapshot",
                        "entry": [
                            {
                                "reference": "Observation/fadf4012-c039-39a9-8dd8-1ecdfec86384",
                                "display": "Tobacco smoking status NHIS"
                            }
                        ]
                    },
                    {
                        "title": "Vital Signs (Last Filed)",
                        "text": {
                            "status": "generated",
                            "div": "<div xmlns=\"http://www.w3.org/1999/xhtml\">Vital Signs (Last Filed)</div>"
                        },
                        "code": {
                            "coding": [
                                {
                                    "code": "8716-3",
                                    "display": "Vital Signs",
                                    "system": "http://loinc.org"
                                }
                            ]
                        },
                        "mode": "snapshot",
                        "entry": [
                            {
                                "reference": "Observation/625b2505-4035-34ce-9c67-79c2085e5a31",
                                "display": "SYSTOLIC BLOOD PRESSURE"
                            },
                            {
                                "reference": "Observation/242f6fe4-78a5-3cbb-ab63-eebe306bddb4",
                                "display": "DIASTOLIC BLOOD PRESSURE"
                            },
                            {
                                "reference": "Observation/e3a8260c-85b0-3dcb-8e93-6999c282cb0d",
                                "display": "HEART RATE"
                            },
                            {
                                "reference": "Observation/13925530-789b-3252-b521-4baead8641d2",
                                "display": "BODY TEMPERATURE"
                            },
                            {
                                "reference": "Observation/8494567a-483b-321a-93d5-73f2ff305d1d",
                                "display": "RESPIRATORY RATE"
                            },
                            {
                                "reference": "Observation/611f377c-2213-39eb-aa0e-43b553dd4009",
                                "display": "HEIGHT"
                            },
                            {
                                "reference": "Observation/d30994ff-f4a5-3d75-a784-9ff35d944138",
                                "display": "WEIGHT"
                            },
                            {
                                "reference": "Observation/66bfcc73-42bb-38f4-9c25-f756d6b5e366",
                                "display": "BODY MASS INDEX"
                            },
                            {
                                "reference": "Observation/794687af-e71d-30a0-8b8d-9cc793f4c404",
                                "display": "OXYGEN SATURATION"
                            }
                        ]
                    }
                ],
                "subject": {
                    "reference": "Patient/f82d7301-5426-3f39-ae7b-416977c55f65"
                },
                "custodian": {
                    "reference": "Organization/b4b35b6d-fbdf-3f53-a54f-b99fe1d0c079"
                }
            },
            "request": {
                "method": "PUT",
                "url": "Composition/87b820a0-5e09-3f34-9346-711dbb07e03b"
            }
        },
        {
            "fullUrl": "urn:uuid:4939e179-a309-30ef-9889-e04751868181",
            "resource": {
                "resourceType": "Practitioner",
                "meta": {
                    "profile": [
                        "http://hl7.org/fhir/us/core/StructureDefinition/us-core-practitioner"
                    ]
                },
                "id": "4939e179-a309-30ef-9889-e04751868181"
            },
            "request": {
                "method": "PUT",
                "url": "Practitioner/4939e179-a309-30ef-9889-e04751868181"
            }
        },
        {
            "fullUrl": "urn:uuid:b4b35b6d-fbdf-3f53-a54f-b99fe1d0c079",
            "resource": {
                "resourceType": "Organization",
                "id": "b4b35b6d-fbdf-3f53-a54f-b99fe1d0c079",
                "identifier": [
                    {
                        "system": "urn:oid:1.1.1.1.1.1.1.1.3",
                        "value": "321CX"
                    }
                ],
                "name": "Good Health HIE",
                "address": [
                    {
                        "use": "work",
                        "line": [
                            "1009 Healthcare Drive"
                        ],
                        "city": "Portland",
                        "state": "OR",
                        "country": "US",
                        "postalCode": "99123"
                    }
                ],
                "telecom": [
                    {
                        "system": "phone",
                        "value": "+1(555)555-1009",
                        "use": "work"
                    }
                ]
            },
            "request": {
                "method": "PUT",
                "url": "Organization/b4b35b6d-fbdf-3f53-a54f-b99fe1d0c079"
            }
        },
        {
            "fullUrl": "urn:uuid:f82d7301-5426-3f39-ae7b-416977c55f65",
            "resource": {
                "resourceType": "Patient",
                "meta": {
                    "profile": [
                        "http://hl7.org/fhir/us/core/StructureDefinition/us-core-patient"
                    ]
                },
                "id": "f82d7301-5426-3f39-ae7b-416977c55f65",
                "identifier": [
                    {
                        "system": "urn:oid:1.3.6.1.4.1.16517.1",
                        "value": "98765432"
                    },
                    {
                        "system": "http://hl7.org/fhir/sid/us-ssn",
                        "value": "12345679"
                    }
                ],
                "name": [
                    {
                        "use": "usual",
                        "family": "Jones",
                        "given": [
                            "Isabella"
                        ]
                    }
                ],
                "birthDate": "1950-12-19",
                "gender": "female",
                "extension": [
                    {
                        "url": "http://hl7.org/fhir/us/core/StructureDefinition/us-core-race",
                        "extension": [
                            {
                                "url": "ombCategory",
                                "valueCoding": {
                                    "code": "2106-3",
                                    "display": "White",
                                    "system": "urn:oid:2.16.840.1.113883.6.238"
                                }
                            },
                            {
                                "url": "detailed",
                                "valueCoding": {
                                    "code": "2114-7",
                                    "display": "Italian",
                                    "system": "urn:oid:2.16.840.1.113883.6.238"
                                }
                            },
                            {
                                "url": "text",
                                "valueString": "Mixed"
                            }
                        ]
                    },
                    {
                        "url": "http://hl7.org/fhir/us/core/StructureDefinition/us-core-ethnicity",
                        "extension": [
                            {
                                "url": "ombCategory",
                                "valueCoding": {
                                    "code": "2186-5",
                                    "display": "Not Hispanic or Latino",
                                    "system": "urn:oid:2.16.840.1.113883.6.238"
                                }
                            },
                            {
                                "url": "text",
                                "valueString": "Not Hispanic or Latino"
                            }
                        ]
                    }
                ],
                "address": [
                    {
                        "use": "home",
                        "line": [
                            "4567 Residence Rd"
                        ],
                        "city": "Beaverton",
                        "state": "OR",
                        "country": "US",
                        "postalCode": "97867"
                    }
                ],
                "telecom": [
                    {
                        "system": "phone",
                        "value": "+1(444)444-4444",
                        "use": "mobile"
                    },
                    {
                        "system": "email",
                        "value": "//Isbella.Jones.CCD@gmail.com",
                        "use": "temp"
                    }
                ],
                "communication": [
                    {
                        "language": {
                            "coding": [
                                {
                                    "system": "urn:ietf:bcp:47",
                                    "code": "ita"
                                }
                            ]
                        },
                        "preferred": true
                    },
                    {
                        "language": {
                            "coding": [
                                {
                                    "system": "urn:ietf:bcp:47",
                                    "code": "eng"
                                }
                            ]
                        },
                        "preferred": false
                    }
                ]
            },
            "request": {
                "method": "PUT",
                "url": "Patient/f82d7301-5426-3f39-ae7b-416977c55f65"
            }
        },
        {
            "fullUrl": "urn:uuid:124e6f74-277c-39cb-9b74-2c55551ec960",
            "resource": {
                "resourceType": "RelatedPerson",
                "id": "124e6f74-277c-39cb-9b74-2c55551ec960",
                "relationship": [
                    {
                        "coding": [
                            {
                                "code": "POWATT",
                                "display": "Power of Attorney",
                                "system": "urn:oid:2.16.840.1.113883.1.11.19830"
                            }
                        ]
                    }
                ],
                "name": [
                    {
                        "family": "Jones",
                        "given": [
                            "Boris",
                            "Bo"
                        ]
                    }
                ],
                "telecom": [
                    {
                        "system": "phone",
                        "value": "+1(444)444-4444",
                        "use": "mobile"
                    }
                ],
                "address": [
                    {
                        "use": "home",
                        "line": [
                            "4567 Residence Rd"
                        ],
                        "city": "Beaverton",
                        "state": "OR",
                        "country": "US",
                        "postalCode": "97867"
                    }
                ],
                "patient": {
                    "reference": "Patient/f82d7301-5426-3f39-ae7b-416977c55f65"
                }
            },
            "request": {
                "method": "PUT",
                "url": "RelatedPerson/124e6f74-277c-39cb-9b74-2c55551ec960"
            }
        },
        {
            "fullUrl": "urn:uuid:f072fc35-4f93-35e7-be63-5dc304b1189d",
            "resource": {
                "resourceType": "AllergyIntolerance",
                "id": "f072fc35-4f93-35e7-be63-5dc304b1189d",
                "identifier": [
                    {
                        "system": "urn:ietf:rfc:3986",
                        "value": "urn:uuid:4adc1020-7b14-11db-9fe1-0800200c9a66"
                    }
                ],
                "clinicalStatus": {
                    "coding": [
                        {
                            "system": "http://terminology.hl7.org/CodeSystem/allergyintolerance-clinical",
                            "code": "active"
                        }
                    ]
                },
                "reaction": [
                    {
                        "substance": {
                            "coding": [
                                {
                                    "code": "105590001",
                                    "display": "Substance",
                                    "system": "http://snomed.info/sct"
                                }
                            ]
                        }
                    }
                ],
                "patient": {
                    "reference": "Patient/f82d7301-5426-3f39-ae7b-416977c55f65"
                }
            },
            "request": {
                "method": "PUT",
                "url": "AllergyIntolerance/f072fc35-4f93-35e7-be63-5dc304b1189d"
            }
        },
        {
            "fullUrl": "urn:uuid:c07997b8-0804-34b4-b38e-19c2e8a31d76",
            "resource": {
                "resourceType": "DiagnosticReport",
                "id": "c07997b8-0804-34b4-b38e-19c2e8a31d76",
                "identifier": [
                    {
                        "system": "urn:ietf:rfc:3986",
                        "value": "urn:uuid:7d5a02b0-67a4-11db-bd13-0800200c9a66"
                    }
                ],
                "status": "unknown",
                "code": {
                    "coding": [
                        {
                            "code": "57782-5",
                            "display": "CBC with Ordered Manual Differential panel - Blood",
                            "system": "http://loinc.org"
                        }
                    ]
                },
                "subject": {
                    "reference": "Patient/f82d7301-5426-3f39-ae7b-416977c55f65"
                },
                "result": [
                    {
                        "reference": "Observation/d3c2a3d5-8938-3b65-8433-9436ca1de38b"
                    }
                ]
            },
            "request": {
                "method": "PUT",
                "url": "DiagnosticReport/c07997b8-0804-34b4-b38e-19c2e8a31d76"
            }
        },
        {
            "fullUrl": "urn:uuid:d3c2a3d5-8938-3b65-8433-9436ca1de38b",
            "resource": {
                "resourceType": "Observation",
                "meta": {
                    "profile": [
                        "http://hl7.org/fhir/us/core/StructureDefinition/us-core-observationresults"
                    ]
                },
                "id": "d3c2a3d5-8938-3b65-8433-9436ca1de38b",
                "identifier": [
                    {
                        "system": "urn:ietf:rfc:3986",
                        "value": "urn:uuid:68762391-bfa5-4dfa-9f6f-d37109a97d19"
                    }
                ],
                "category": [
                    {
                        "coding": [
                            {
                                "system": "http://terminology.hl7.org/CodeSystem/observation-category",
                                "code": "laboratory"
                            }
                        ]
                    }
                ],
                "status": "unknown",
                "code": {
                    "coding": [
                        {
                            "code": "804-5",
                            "display": "Leukocytes [#/​volume] in Blood by Manual count",
                            "system": "http://loinc.org"
                        }
                    ]
                },
                "effectiveDateTime": "2014-10-15T15:30:26.000Z",
                "subject": {
                    "reference": "Patient/f82d7301-5426-3f39-ae7b-416977c55f65"
                }
            },
            "request": {
                "method": "PUT",
                "url": "Observation/d3c2a3d5-8938-3b65-8433-9436ca1de38b"
            }
        },
        {
            "fullUrl": "urn:uuid:41a6831f-9cb6-33f0-883e-e028d47cc94b",
            "resource": {
                "resourceType": "Observation",
                "meta": {
                    "profile": [
                        "http://hl7.org/fhir/us/core/StructureDefinition/us-core-observationresults"
                    ]
                },
                "id": "41a6831f-9cb6-33f0-883e-e028d47cc94b",
                "identifier": [
                    {
                        "system": "urn:oid:2.16.840.1.113883.19",
                        "value": "123456789"
                    }
                ],
                "category": [
                    {
                        "coding": [
                            {
                                "system": "http://terminology.hl7.org/CodeSystem/observation-category",
                                "code": "social-history"
                            }
                        ]
                    }
                ],
                "status": "final",
                "code": {
                    "coding": [
                        {
                            "code": "72166-2",
                            "display": "Tobacco smoking status NHIS",
                            "system": "http://loinc.org"
                        }
                    ]
                },
                "effectiveDateTime": "2014-10-01T15:30:26.000Z",
                "valueCodeableConcept": {
                    "coding": [
                        {
                            "code": "266927001",
                            "display": "Unknown if ever smoked",
                            "system": "http://snomed.info/sct"
                        }
                    ]
                },
                "subject": {
                    "reference": "Patient/f82d7301-5426-3f39-ae7b-416977c55f65"
                }
            },
            "request": {
                "method": "PUT",
                "url": "Observation/41a6831f-9cb6-33f0-883e-e028d47cc94b"
            }
        },
        {
            "fullUrl": "urn:uuid:30812914-a7d5-3914-b214-4a573610b090",
            "resource": {
                "resourceType": "Observation",
                "meta": {
                    "profile": [
                        "http://hl7.org/fhir/us/core/StructureDefinition/us-core-observationresults"
                    ]
                },
                "id": "30812914-a7d5-3914-b214-4a573610b090",
                "identifier": [
                    {
                        "system": "urn:ietf:rfc:3986",
                        "value": "urn:uuid:fdbd831b-5919-4f06-9467-76b07022f8e8"
                    }
                ],
                "category": [
                    {
                        "coding": [
                            {
                                "system": "http://terminology.hl7.org/CodeSystem/observation-category",
                                "code": "vital-signs"
                            }
                        ]
                    }
                ],
                "status": "final",
                "code": {
                    "coding": [
                        {
                            "code": "8480-6",
                            "display": "SYSTOLIC BLOOD PRESSURE",
                            "system": "http://loinc.org"
                        }
                    ]
                },
                "effectiveDateTime": "2014-10-01T15:30:26.000Z",
                "valueQuantity": {
                    "value": 120,
                    "unit": "mm[Hg]"
                },
                "subject": {
                    "reference": "Patient/f82d7301-5426-3f39-ae7b-416977c55f65"
                }
            },
            "request": {
                "method": "PUT",
                "url": "Observation/30812914-a7d5-3914-b214-4a573610b090"
            }
        },
        {
            "fullUrl": "urn:uuid:c6fe688b-100a-35dd-9168-181ef2b16bc9",
            "resource": {
                "resourceType": "Observation",
                "meta": {
                    "profile": [
                        "http://hl7.org/fhir/us/core/StructureDefinition/us-core-observationresults"
                    ]
                },
                "id": "c6fe688b-100a-35dd-9168-181ef2b16bc9",
                "identifier": [
                    {
                        "system": "urn:ietf:rfc:3986",
                        "value": "urn:uuid:553f3f45-9046-4659-b3e7-5de904003550"
                    }
                ],
                "category": [
                    {
                        "coding": [
                            {
                                "system": "http://terminology.hl7.org/CodeSystem/observation-category",
                                "code": "vital-signs"
                            }
                        ]
                    }
                ],
                "status": "final",
                "code": {
                    "coding": [
                        {
                            "code": "8462-4",
                            "display": "DIASTOLIC BLOOD PRESSURE",
                            "system": "http://loinc.org"
                        }
                    ]
                },
                "effectiveDateTime": "2014-10-01T15:30:26.000Z",
                "valueQuantity": {
                    "value": 80,
                    "unit": "mm[Hg]"
                },
                "subject": {
                    "reference": "Patient/f82d7301-5426-3f39-ae7b-416977c55f65"
                }
            },
            "request": {
                "method": "PUT",
                "url": "Observation/c6fe688b-100a-35dd-9168-181ef2b16bc9"
            }
        },
        {
            "fullUrl": "urn:uuid:d97a446d-1858-36ca-8815-7523691d1942",
            "resource": {
                "resourceType": "Observation",
                "meta": {
                    "profile": [
                        "http://hl7.org/fhir/us/core/StructureDefinition/us-core-observationresults"
                    ]
                },
                "id": "d97a446d-1858-36ca-8815-7523691d1942",
                "identifier": [
                    {
                        "system": "urn:ietf:rfc:3986",
                        "value": "urn:uuid:77bfe276-a1dd-4372-9072-e603905acc07"
                    }
                ],
                "category": [
                    {
                        "coding": [
                            {
                                "system": "http://terminology.hl7.org/CodeSystem/observation-category",
                                "code": "vital-signs"
                            }
                        ]
                    }
                ],
                "status": "final",
                "code": {
                    "coding": [
                        {
                            "code": "8867-4",
                            "display": "HEART RATE",
                            "system": "http://loinc.org"
                        }
                    ]
                },
                "effectiveDateTime": "2014-10-01T15:30:26.000Z",
                "valueQuantity": {
                    "value": 80,
                    "unit": "/min"
                },
                "subject": {
                    "reference": "Patient/f82d7301-5426-3f39-ae7b-416977c55f65"
                }
            },
            "request": {
                "method": "PUT",
                "url": "Observation/d97a446d-1858-36ca-8815-7523691d1942"
            }
        },
        {
            "fullUrl": "urn:uuid:8fc1a1a9-37d9-368f-8c02-1decc0b3242f",
            "resource": {
                "resourceType": "Observation",
                "meta": {
                    "profile": [
                        "http://hl7.org/fhir/us/core/StructureDefinition/us-core-observationresults"
                    ]
                },
                "id": "8fc1a1a9-37d9-368f-8c02-1decc0b3242f",
                "identifier": [
                    {
                        "system": "urn:ietf:rfc:3986",
                        "value": "urn:uuid:24faa204-db62-4610-864f-cb50b650d0fa"
                    }
                ],
                "category": [
                    {
                        "coding": [
                            {
                                "system": "http://terminology.hl7.org/CodeSystem/observation-category",
                                "code": "vital-signs"
                            }
                        ]
                    }
                ],
                "status": "final",
                "code": {
                    "coding": [
                        {
                            "code": "8310-5",
                            "display": "BODY TEMPERATURE",
                            "system": "http://loinc.org"
                        }
                    ]
                },
                "effectiveDateTime": "2014-10-01T15:30:26.000Z",
                "valueQuantity": {
                    "value": 37.2,
                    "unit": "Cel"
                },
                "subject": {
                    "reference": "Patient/f82d7301-5426-3f39-ae7b-416977c55f65"
                }
            },
            "request": {
                "method": "PUT",
                "url": "Observation/8fc1a1a9-37d9-368f-8c02-1decc0b3242f"
            }
        },
        {
            "fullUrl": "urn:uuid:81f6a042-6319-3f21-9546-72cc203a4f3e",
            "resource": {
                "resourceType": "Observation",
                "meta": {
                    "profile": [
                        "http://hl7.org/fhir/us/core/StructureDefinition/us-core-observationresults"
                    ]
                },
                "id": "81f6a042-6319-3f21-9546-72cc203a4f3e",
                "identifier": [
                    {
                        "system": "urn:ietf:rfc:3986",
                        "value": "urn:uuid:79f25395-8ec6-488b-8c05-becc97f79995"
                    }
                ],
                "category": [
                    {
                        "coding": [
                            {
                                "system": "http://terminology.hl7.org/CodeSystem/observation-category",
                                "code": "vital-signs"
                            }
                        ]
                    }
                ],
                "status": "final",
                "code": {
                    "coding": [
                        {
                            "code": "9279-1",
                            "display": "RESPIRATORY RATE",
                            "system": "http://loinc.org"
                        }
                    ]
                },
                "effectiveDateTime": "2014-10-01T15:30:26.000Z",
                "valueQuantity": {
                    "value": 18,
                    "unit": "/min"
                },
                "subject": {
                    "reference": "Patient/f82d7301-5426-3f39-ae7b-416977c55f65"
                }
            },
            "request": {
                "method": "PUT",
                "url": "Observation/81f6a042-6319-3f21-9546-72cc203a4f3e"
            }
        },
        {
            "fullUrl": "urn:uuid:7a90e79c-f9eb-3ca3-a6ab-d3e6c1921640",
            "resource": {
                "resourceType": "Observation",
                "meta": {
                    "profile": [
                        "http://hl7.org/fhir/us/core/StructureDefinition/us-core-observationresults"
                    ]
                },
                "id": "7a90e79c-f9eb-3ca3-a6ab-d3e6c1921640",
                "identifier": [
                    {
                        "system": "urn:ietf:rfc:3986",
                        "value": "urn:uuid:6d3fa9f8-6049-41bd-b0c3-b0196bb6bd37"
                    }
                ],
                "category": [
                    {
                        "coding": [
                            {
                                "system": "http://terminology.hl7.org/CodeSystem/observation-category",
                                "code": "vital-signs"
                            }
                        ]
                    }
                ],
                "status": "final",
                "code": {
                    "coding": [
                        {
                            "code": "8302-2",
                            "display": "HEIGHT",
                            "system": "http://loinc.org"
                        }
                    ]
                },
                "effectiveDateTime": "2014-10-01T15:30:26.000Z",
                "valueQuantity": {
                    "value": 170.2,
                    "unit": "cm"
                },
                "subject": {
                    "reference": "Patient/f82d7301-5426-3f39-ae7b-416977c55f65"
                }
            },
            "request": {
                "method": "PUT",
                "url": "Observation/7a90e79c-f9eb-3ca3-a6ab-d3e6c1921640"
            }
        },
        {
            "fullUrl": "urn:uuid:31d7e419-03af-3492-9ccc-a1b143db5605",
            "resource": {
                "resourceType": "Observation",
                "meta": {
                    "profile": [
                        "http://hl7.org/fhir/us/core/StructureDefinition/us-core-observationresults"
                    ]
                },
                "id": "31d7e419-03af-3492-9ccc-a1b143db5605",
                "identifier": [
                    {
                        "system": "urn:ietf:rfc:3986",
                        "value": "urn:uuid:2594e631-2189-4e72-9dd1-d6769ee2a7be"
                    }
                ],
                "category": [
                    {
                        "coding": [
                            {
                                "system": "http://terminology.hl7.org/CodeSystem/observation-category",
                                "code": "vital-signs"
                            }
                        ]
                    }
                ],
                "status": "final",
                "code": {
                    "coding": [
                        {
                            "code": "3141-9",
                            "display": "WEIGHT",
                            "system": "http://loinc.org"
                        }
                    ]
                },
                "effectiveDateTime": "2014-10-01T15:30:26.000Z",
                "valueQuantity": {
                    "value": 108.863,
                    "unit": "kg"
                },
                "subject": {
                    "reference": "Patient/f82d7301-5426-3f39-ae7b-416977c55f65"
                }
            },
            "request": {
                "method": "PUT",
                "url": "Observation/31d7e419-03af-3492-9ccc-a1b143db5605"
            }
        },
        {
            "fullUrl": "urn:uuid:a9b127d8-c920-3bc6-b84e-d70ce0ecf1ef",
            "resource": {
                "resourceType": "Observation",
                "meta": {
                    "profile": [
                        "http://hl7.org/fhir/us/core/StructureDefinition/us-core-observationresults"
                    ]
                },
                "id": "a9b127d8-c920-3bc6-b84e-d70ce0ecf1ef",
                "identifier": [
                    {
                        "system": "urn:ietf:rfc:3986",
                        "value": "urn:uuid:5858e765-2ffe-413f-9197-260f2c6e7aa8"
                    }
                ],
                "category": [
                    {
                        "coding": [
                            {
                                "system": "http://terminology.hl7.org/CodeSystem/observation-category",
                                "code": "vital-signs"
                            }
                        ]
                    }
                ],
                "status": "final",
                "code": {
                    "coding": [
                        {
                            "code": "39156-5",
                            "display": "BODY MASS INDEX",
                            "system": "http://loinc.org"
                        }
                    ]
                },
                "effectiveDateTime": "2014-10-01T15:30:26.000Z",
                "valueQuantity": {
                    "value": 37.58,
                    "unit": "kg/m2"
                },
                "subject": {
                    "reference": "Patient/f82d7301-5426-3f39-ae7b-416977c55f65"
                }
            },
            "request": {
                "method": "PUT",
                "url": "Observation/a9b127d8-c920-3bc6-b84e-d70ce0ecf1ef"
            }
        },
        {
            "fullUrl": "urn:uuid:21a52ae1-91d1-3eae-97cc-0d2bec6cbfa2",
            "resource": {
                "resourceType": "Observation",
                "meta": {
                    "profile": [
                        "http://hl7.org/fhir/us/core/StructureDefinition/us-core-observationresults"
                    ]
                },
                "id": "21a52ae1-91d1-3eae-97cc-0d2bec6cbfa2",
                "identifier": [
                    {
                        "system": "urn:ietf:rfc:3986",
                        "value": "urn:uuid:4ce6046c-f6e3-41b0-91fc-2d5325f2bbc3"
                    }
                ],
                "category": [
                    {
                        "coding": [
                            {
                                "system": "http://terminology.hl7.org/CodeSystem/observation-category",
                                "code": "vital-signs"
                            }
                        ]
                    }
                ],
                "status": "final",
                "code": {
                    "coding": [
                        {
                            "code": "2710-2",
                            "display": "OXYGEN SATURATION",
                            "system": "http://loinc.org"
                        }
                    ]
                },
                "effectiveDateTime": "2014-10-01T15:30:26.000Z",
                "valueQuantity": {
                    "value": 98,
                    "unit": "%"
                },
                "subject": {
                    "reference": "Patient/f82d7301-5426-3f39-ae7b-416977c55f65"
                }
            },
            "request": {
                "method": "PUT",
                "url": "Observation/21a52ae1-91d1-3eae-97cc-0d2bec6cbfa2"
            }
        },
        {
            "fullUrl": "urn:uuid:452126d8-682b-305b-b678-aa49bc708f5c",
            "resource": {
                "resourceType": "Procedure",
                "meta": {
                    "profile": [
                        "http://hl7.org/fhir/us/core/StructureDefinition/us-core-procedure"
                    ]
                },
                "id": "452126d8-682b-305b-b678-aa49bc708f5c",
                "identifier": [
                    {
                        "system": "urn:ietf:rfc:3986",
                        "value": "urn:uuid:64af26d5-88ef-4169-ba16-c6ef16a1824f"
                    }
                ],
                "status": "completed",
                "bodySite": [
                    {
                        "coding": [
                            {
                                "code": "181255000",
                                "display": "Entire Appendix",
                                "system": "http://snomed.info/sct"
                            }
                        ]
                    }
                ],
                "subject": {
                    "reference": "Patient/f82d7301-5426-3f39-ae7b-416977c55f65"
                },
                "performer": [
                    {
                        "actor": {
                            "reference": "Organization/fa8b3d78-b7a3-35b3-96bd-d59bc554a96d"
                        }
                    }
                ]
            },
            "request": {
                "method": "PUT",
                "url": "Procedure/452126d8-682b-305b-b678-aa49bc708f5c"
            }
        },
        {
            "fullUrl": "urn:uuid:fa8b3d78-b7a3-35b3-96bd-d59bc554a96d",
            "resource": {
                "resourceType": "Organization",
                "id": "fa8b3d78-b7a3-35b3-96bd-d59bc554a96d",
                "identifier": [
                    {
                        "system": "urn:ietf:rfc:3986",
                        "value": "urn:uuid:2.16.840.1.113883.19.5.9999.1393"
                    }
                ],
                "name": "Community Health and Hospitals",
                "address": [
                    {
                        "line": [
                            "1001 Village Avenue"
                        ],
                        "city": "Portland",
                        "state": "OR",
                        "country": "US",
                        "postalCode": "99123"
                    }
                ]
            },
            "request": {
                "method": "PUT",
                "url": "Organization/fa8b3d78-b7a3-35b3-96bd-d59bc554a96d"
            }
        },
        {
            "fullUrl": "urn:uuid:42e90cc9-174f-360e-87cc-28d9369cbaae",
            "resource": {
                "resourceType": "Observation",
                "meta": {
                    "profile": [
                        "http://hl7.org/fhir/us/core/StructureDefinition/us-core-observationresults"
                    ]
                },
                "id": "42e90cc9-174f-360e-87cc-28d9369cbaae",
                "identifier": [
                    {
                        "system": "urn:ietf:rfc:3986",
                        "value": "urn:uuid:c03e5445-af1b-4911-a419-e2782f21448c"
                    }
                ],
                "category": [
                    {
                        "coding": [
                            {
                                "system": "http://terminology.hl7.org/CodeSystem/observation-category",
                                "code": "procedure"
                            }
                        ]
                    }
                ],
                "status": "final",
                "code": {
                    "coding": [
                        {
                            "code": "268400002",
                            "display": "12 lead ECG",
                            "system": "http://snomed.info/sct"
                        }
                    ]
                },
                "effectiveDateTime": "2014-10-01T15:30:26.000Z",
                "bodySite": {
                    "coding": [
                        {
                            "code": "302509004",
                            "display": "Entire Heart",
                            "system": "http://snomed.info/sct"
                        }
                    ]
                },
                "valueCodeableConcept": {
                    "coding": [
                        {
                            "code": "251135002",
                            "display": "Borderline normal ECG",
                            "system": "http://snomed.info/sct"
                        }
                    ]
                },
                "subject": {
                    "reference": "Patient/f82d7301-5426-3f39-ae7b-416977c55f65"
                }
            },
            "request": {
                "method": "PUT",
                "url": "Observation/42e90cc9-174f-360e-87cc-28d9369cbaae"
            }
        },
        {
            "fullUrl": "urn:uuid:918adfb7-c685-3ea0-9ee6-c8941abbf8e5",
            "resource": {
                "resourceType": "DocumentReference",
                "id": "918adfb7-c685-3ea0-9ee6-c8941abbf8e5",
                "type": {
                    "coding": [
                        {
                            "code": "34133-9",
                            "display": "Summarization of Episode Note",
                            "system": "http://loinc.org"
                        }
                    ]
                },
                "date": "2020-08-31T07:43:34.725Z",
                "status": "current",
                "content": [
                    {
                        "attachment": {
                            "contentType": "text/plain",
                            "data": "",
                            "hash": "o2+S0twwlXr7Bil2TnIAmrTeY10="
                        }
                    }
                ]
            },
            "request": {
                "method": "PUT",
                "url": "DocumentReference/918adfb7-c685-3ea0-9ee6-c8941abbf8e5"
            }
        }
    ]
}