{
    "resourceType": "Bundle",
    "type": "batch",
    "entry": [
        {
            "fullUrl": "urn:uuid:7656751c-ddc8-3f1a-9dc2-7bef5ab59b77",
            "resource": {
                "resourceType": "Composition",
                "id": "7656751c-ddc8-3f1a-9dc2-7bef5ab59b77",
                "identifier": {
                    "use": "official",
                    "value": "04fc2b90-10e0-11e2-892e-0800200c9a66"
                },
                "status": "final",
                "type": {
                    "coding": [
                        {
                            "code": "18761-7",
                            "display": "Provider Unspecified Transfer Summary",
                            "system": "http://loinc.org"
                        }
                    ]
                },
                "date": "2013-09-21T13:00:00.000Z",
                "title": "Transfer Summary",
                "confidentiality": "N",
                "attester": [
                    {
                        "mode": "legal",
                        "time": "2013-09-16T06:36:15.000Z",
                        "party": {
                            "reference": "Practitioner/4939e179-a309-30ef-9889-e04751868181"
                        }
                    }
                ],
                "event": [
                    {
                        "period": {
                            "start": "2013-06-01"
                        }
                    }
                ],
                "section": [
                    {
                        "title": "ALLERGIES AND ADVERSE REACTIONS",
                        "text": {
                            "status": "generated",
                            "div": "<div xmlns=\"http://www.w3.org/1999/xhtml\">ALLERGIES AND ADVERSE REACTIONS</div>"
                        },
                        "code": {
                            "coding": [
                                {
                                    "code": "48765-2",
                                    "system": "http://loinc.org"
                                }
                            ]
                        },
                        "mode": "snapshot",
                        "entry": [
                            {
                                "reference": "AllergyIntolerance/25fb7d4b-7c18-3fca-a9cd-f0a8e568c36b",
                                "display": "Penicillin"
                            },
                            {
                                "reference": "AllergyIntolerance/b048b7f1-6735-366a-94a6-a8d93df236a2",
                                "display": "Codeine"
                            }
                        ]
                    },
                    {
                        "title": "ADVANCE DIRECTIVES",
                        "text": {
                            "status": "generated",
                            "div": "<div xmlns=\"http://www.w3.org/1999/xhtml\">ADVANCE DIRECTIVES</div>"
                        },
                        "code": {
                            "coding": [
                                {
                                    "code": "42348-3",
                                    "system": "http://loinc.org"
                                }
                            ]
                        },
                        "mode": "snapshot"
                    },
                    {
                        "title": "ASSESSMENT",
                        "text": {
                            "status": "generated",
                            "div": "<div xmlns=\"http://www.w3.org/1999/xhtml\">ASSESSMENT</div>"
                        },
                        "code": {
                            "coding": [
                                {
                                    "code": "51848-0",
                                    "display": "ASSESSMENT",
                                    "system": "http://loinc.org"
                                }
                            ]
                        },
                        "mode": "snapshot"
                    },
                    {
                        "title": "ENCOUNTERS",
                        "text": {
                            "status": "generated",
                            "div": "<div xmlns=\"http://www.w3.org/1999/xhtml\">ENCOUNTERS</div>"
                        },
                        "code": {
                            "coding": [
                                {
                                    "code": "46240-8",
                                    "display": "History of encounters",
                                    "system": "http://loinc.org"
                                }
                            ]
                        },
                        "mode": "snapshot",
                        "entry": [
                            {
                                "reference": "Encounter/03fa485e-00c0-3c04-b396-4c30a879d4b5"
                            }
                        ]
                    },
                    {
                        "title": "FAMILY HISTORY",
                        "text": {
                            "status": "generated",
                            "div": "<div xmlns=\"http://www.w3.org/1999/xhtml\">FAMILY HISTORY</div>"
                        },
                        "code": {
                            "coding": [
                                {
                                    "code": "10157-6",
                                    "system": "http://loinc.org"
                                }
                            ]
                        },
                        "mode": "snapshot",
                        "entry": [
                            {
                                "reference": "FamilyMemberHistory/038642e7-1bfd-32c0-942c-768986dc1207"
                            }
                        ]
                    },
                    {
                        "title": "FUNCTIONAL STATUS",
                        "text": {
                            "status": "generated",
                            "div": "<div xmlns=\"http://www.w3.org/1999/xhtml\">FUNCTIONAL STATUS</div>"
                        },
                        "code": {
                            "coding": [
                                {
                                    "code": "47420-5",
                                    "display": "Functional Status",
                                    "system": "http://loinc.org"
                                }
                            ]
                        },
                        "mode": "snapshot",
                        "entry": [
                            {
                                "reference": "Condition/c91e9bfa-26f2-3ef9-b02d-2b272c4136b4"
                            }
                        ]
                    },
                    {
                        "title": "GENERAL STATUS",
                        "text": {
                            "status": "generated",
                            "div": "<div xmlns=\"http://www.w3.org/1999/xhtml\">GENERAL STATUS</div>"
                        },
                        "code": {
                            "coding": [
                                {
                                    "code": "10210-3",
                                    "display": "GENERAL STATUS",
                                    "system": "http://loinc.org"
                                }
                            ]
                        },
                        "mode": "snapshot"
                    },
                    {
                        "title": "HISTORY OF PAST MEDICAL/SURGICAL ILLNESS",
                        "text": {
                            "status": "generated",
                            "div": "<div xmlns=\"http://www.w3.org/1999/xhtml\">HISTORY OF PAST MEDICAL/SURGICAL ILLNESS</div>"
                        },
                        "code": {
                            "coding": [
                                {
                                    "code": "11348-0",
                                    "display": "HISTORY OF PAST ILLNESS",
                                    "system": "http://loinc.org"
                                }
                            ]
                        },
                        "mode": "snapshot"
                    },
                    {
                        "title": "HISTORY OF PRESENT ILLNESS",
                        "text": {
                            "status": "generated",
                            "div": "<div xmlns=\"http://www.w3.org/1999/xhtml\">HISTORY OF PRESENT ILLNESS</div>"
                        },
                        "code": {
                            "coding": [
                                {
                                    "code": "10164-2",
                                    "display": "HISTORY OF PRESENT ILLNESS",
                                    "system": "http://loinc.org"
                                }
                            ]
                        },
                        "mode": "snapshot"
                    },
                    {
                        "title": "Hospital Course of Care",
                        "text": {
                            "status": "generated",
                            "div": "<div xmlns=\"http://www.w3.org/1999/xhtml\">Hospital Course of Care</div>"
                        },
                        "code": {
                            "coding": [
                                {
                                    "code": "8648-8",
                                    "display": "Hospital Course Narrative",
                                    "system": "http://loinc.org"
                                }
                            ]
                        },
                        "mode": "snapshot"
                    },
                    {
                        "title": "Hospital Discharge Diagnosis",
                        "text": {
                            "status": "generated",
                            "div": "<div xmlns=\"http://www.w3.org/1999/xhtml\">Hospital Discharge Diagnosis</div>"
                        },
                        "code": {
                            "coding": [
                                {
                                    "code": "C-CDAV2-DDN",
                                    "display": "Discharge diagnosis narritive",
                                    "system": "http://loinc.org"
                                }
                            ]
                        },
                        "mode": "snapshot"
                    },
                    {
                        "title": "IMMUNIZATIONS",
                        "text": {
                            "status": "generated",
                            "div": "<div xmlns=\"http://www.w3.org/1999/xhtml\">IMMUNIZATIONS</div>"
                        },
                        "code": {
                            "coding": [
                                {
                                    "code": "11369-6",
                                    "display": "History of immunizations",
                                    "system": "http://loinc.org"
                                }
                            ]
                        },
                        "mode": "snapshot",
                        "entry": [
                            {
                                "reference": "Immunization/60bbd22d-4122-3201-a007-aca16d947015"
                            },
                            {
                                "reference": "Immunization/1da8828a-fbaa-3bcd-9156-58b4b7084909"
                            },
                            {
                                "reference": "Immunization/b38af891-373a-38d6-b2aa-a4bfb52f9947"
                            },
                            {
                                "reference": "Immunization/47627e71-ba37-3b82-b7a6-694aae29af01"
                            },
                            {
                                "reference": "Immunization/4ad2db55-e732-3173-8b74-03139859afbe"
                            }
                        ]
                    },
                    {
                        "title": "MEDICAL EQUIPMENT",
                        "text": {
                            "status": "generated",
                            "div": "<div xmlns=\"http://www.w3.org/1999/xhtml\">MEDICAL EQUIPMENT</div>"
                        },
                        "code": {
                            "coding": [
                                {
                                    "code": "46264-8",
                                    "system": "http://loinc.org"
                                }
                            ]
                        },
                        "mode": "snapshot",
                        "entry": [
                            {
                                "reference": "Device/225ef49c-2cde-3947-abb0-7639d4f488a5"
                            },
                            {
                                "reference": "Device/299b3789-b38d-35b0-95b3-d6df78b5fbbc"
                            },
                            {
                                "reference": "Device/103cee90-2a47-3c2b-9a72-e8eda2774d66"
                            }
                        ]
                    },
                    {
                        "title": "MENTAL STATUS",
                        "text": {
                            "status": "generated",
                            "div": "<div xmlns=\"http://www.w3.org/1999/xhtml\">MENTAL STATUS</div>"
                        },
                        "code": {
                            "coding": [
                                {
                                    "code": "10190-7",
                                    "display": "MENTAL STATUS",
                                    "system": "http://loinc.org"
                                }
                            ]
                        },
                        "mode": "snapshot"
                    },
                    {
                        "title": "NUTRITION SECTION",
                        "text": {
                            "status": "generated",
                            "div": "<div xmlns=\"http://www.w3.org/1999/xhtml\">NUTRITION SECTION</div>"
                        },
                        "code": {
                            "coding": [
                                {
                                    "code": "61144-2",
                                    "display": "Diet and Nutrition",
                                    "system": "http://loinc.org"
                                }
                            ]
                        },
                        "mode": "snapshot"
                    },
                    {
                        "title": "MEDICATIONS",
                        "text": {
                            "status": "generated",
                            "div": "<div xmlns=\"http://www.w3.org/1999/xhtml\">MEDICATIONS</div>"
                        },
                        "code": {
                            "coding": [
                                {
                                    "code": "10160-0",
                                    "display": "HISTORY OF MEDICATION USE",
                                    "system": "http://loinc.org"
                                }
                            ]
                        },
                        "mode": "snapshot",
                        "entry": [
                            {
                                "reference": "MedicationStatement/e16f4c43-5998-3acd-8f4c-b2a67674f009"
                            },
                            {
                                "reference": "MedicationStatement/9179fb86-abaf-391b-89f7-144bc3767fc9"
                            }
                        ]
                    },
                    {
                        "title": "Insurance Providers",
                        "text": {
                            "status": "generated",
                            "div": "<div xmlns=\"http://www.w3.org/1999/xhtml\">Insurance Providers</div>"
                        },
                        "code": {
                            "coding": [
                                {
                                    "code": "48768-6",
                                    "display": "Payments",
                                    "system": "http://loinc.org"
                                }
                            ]
                        },
                        "mode": "snapshot",
                        "entry": [
                            {
                                "reference": "Coverage/0e7f8596-65e3-398c-a148-b95426608597"
                            }
                        ]
                    },
                    {
                        "title": "Physical Examination",
                        "text": {
                            "status": "generated",
                            "div": "<div xmlns=\"http://www.w3.org/1999/xhtml\">Physical Examination</div>"
                        },
                        "code": {
                            "coding": [
                                {
                                    "code": "29545-1",
                                    "display": "Physical Findings",
                                    "system": "http://loinc.org"
                                }
                            ]
                        },
                        "mode": "snapshot"
                    },
                    {
                        "title": "TREATMENT PLAN",
                        "text": {
                            "status": "generated",
                            "div": "<div xmlns=\"http://www.w3.org/1999/xhtml\">TREATMENT PLAN</div>"
                        },
                        "code": {
                            "coding": [
                                {
                                    "code": "18776-5",
                                    "display": "Treatment plan",
                                    "system": "http://loinc.org"
                                }
                            ]
                        },
                        "mode": "snapshot",
                        "entry": [
                            {
                                "reference": "CarePlan/ee49af27-12f9-3e07-a772-ef711c366083"
                            },
                            {
                                "reference": "CarePlan/9517c983-05ad-37ec-bdf3-e6967823a7e5"
                            },
                            {
                                "reference": "CarePlan/fae1b0ef-0bbd-3034-be1b-2f7fbba78633"
                            },
                            {
                                "reference": "CarePlan/f713a359-e858-399f-bc8e-9e4fc12a2c77"
                            },
                            {
                                "reference": "CarePlan/03aca872-79d2-3deb-98e8-d67f83e7f3c2"
                            },
                            {
                                "reference": "CarePlan/5de3a5df-5f2f-3088-a76f-698eee9234ef"
                            },
                            {
                                "reference": "CarePlan/e613122f-41a7-34ac-8cb7-2e629e0a16a0"
                            },
                            {
                                "reference": "CarePlan/5e5c1ff7-47d8-3744-9729-6185df2d6a0a"
                            },
                            {
                                "reference": "CarePlan/a54bc423-6ac3-34d0-a115-241d2f1e915e"
                            }
                        ]
                    },
                    {
                        "title": "PROBLEMS",
                        "text": {
                            "status": "generated",
                            "div": "<div xmlns=\"http://www.w3.org/1999/xhtml\">PROBLEMS</div>"
                        },
                        "code": {
                            "coding": [
                                {
                                    "code": "11450-4",
                                    "display": "PROBLEM LIST",
                                    "system": "http://loinc.org"
                                }
                            ]
                        },
                        "mode": "snapshot",
                        "entry": [
                            {
                                "reference": "Condition/ad005db0-7a55-3328-a132-8925dfc45003"
                            },
                            {
                                "reference": "Condition/0dca758b-551b-3448-b2ad-559eb748b989"
                            },
                            {
                                "reference": "Condition/e9f85894-be65-3c0e-80bf-dfae5bc78364"
                            }
                        ]
                    },
                    {
                        "title": "Procedures",
                        "text": {
                            "status": "generated",
                            "div": "<div xmlns=\"http://www.w3.org/1999/xhtml\">Procedures</div>"
                        },
                        "code": {
                            "coding": [
                                {
                                    "code": "47519-4",
                                    "display": "History of Procedures",
                                    "system": "http://loinc.org"
                                }
                            ]
                        },
                        "mode": "snapshot",
                        "entry": [
                            {
                                "reference": "Procedure/d89defe1-34d5-3b3d-9143-5812d662d156"
                            },
                            {
                                "reference": "Procedure/4baf6496-ae17-3220-b00a-fe1c9558f12a"
                            },
                            {
                                "reference": "Procedure/1a3337ff-a0cb-32b1-a360-cc9d48067718"
                            }
                        ]
                    },
                    {
                        "title": "REASON FOR REFERRAL",
                        "text": {
                            "status": "generated",
                            "div": "<div xmlns=\"http://www.w3.org/1999/xhtml\">REASON FOR REFERRAL</div>"
                        },
                        "code": {
                            "coding": [
                                {
                                    "code": "42349-1",
                                    "display": "Reason for Referral ",
                                    "system": "http://loinc.org"
                                }
                            ]
                        },
                        "mode": "snapshot"
                    },
                    {
                        "title": "RESULTS",
                        "text": {
                            "status": "generated",
                            "div": "<div xmlns=\"http://www.w3.org/1999/xhtml\">RESULTS</div>"
                        },
                        "code": {
                            "coding": [
                                {
                                    "code": "30954-2",
                                    "display": "RESULTS",
                                    "system": "http://loinc.org"
                                }
                            ]
                        },
                        "mode": "snapshot",
                        "entry": [
                            {
                                "reference": "DiagnosticReport/5ee91a8e-7884-3b5b-8d35-6a57abada9e7"
                            },
                            {
                                "reference": "DiagnosticReport/4e48b009-dfd8-35a3-9e21-639362aea336"
                            }
                        ]
                    },
                    {
                        "title": "REVIEW OF SYSTEMS",
                        "text": {
                            "status": "generated",
                            "div": "<div xmlns=\"http://www.w3.org/1999/xhtml\">REVIEW OF SYSTEMS</div>"
                        },
                        "code": {
                            "coding": [
                                {
                                    "code": "10187-3",
                                    "display": "REVIEW OF SYSTEMS",
                                    "system": "http://loinc.org"
                                }
                            ]
                        },
                        "mode": "snapshot"
                    },
                    {
                        "title": "SOCIAL HISTORY",
                        "text": {
                            "status": "generated",
                            "div": "<div xmlns=\"http://www.w3.org/1999/xhtml\">SOCIAL HISTORY</div>"
                        },
                        "code": {
                            "coding": [
                                {
                                    "code": "29762-2",
                                    "display": "Social History",
                                    "system": "http://loinc.org"
                                }
                            ]
                        },
                        "mode": "snapshot",
                        "entry": [
                            {
                                "reference": "Observation/ae2ba977-9d50-358f-a00c-a091b9b0a7d2",
                                "display": "Alcoholic drinks per day"
                            },
                            {
                                "reference": "Observation/dfd4af1f-bc0c-3440-a98a-36a1bd14d135",
                                "display": "Tobacco smoking status NHIS"
                            },
                            {
                                "reference": "Observation/7c267153-b9ba-3c3f-b168-c9e934867c0d"
                            },
                            {
                                "reference": "Observation/6563f6b5-7c23-3224-a66f-764d71366f67",
                                "display": "Personal belief"
                            },
                            {
                                "reference": "Observation/a15cea0d-ed35-3be6-b302-da89893a3a5d",
                                "display": "Characteristics of residence"
                            }
                        ]
                    },
                    {
                        "title": "VITAL SIGNS",
                        "text": {
                            "status": "generated",
                            "div": "<div xmlns=\"http://www.w3.org/1999/xhtml\">VITAL SIGNS</div>"
                        },
                        "code": {
                            "coding": [
                                {
                                    "code": "8716-3",
                                    "display": "VITAL SIGNS",
                                    "system": "http://loinc.org"
                                }
                            ]
                        },
                        "mode": "snapshot",
                        "entry": [
                            {
                                "reference": "Observation/ec2f2318-ae87-3c50-b4af-f580ec098f1c",
                                "display": "Height"
                            },
                            {
                                "reference": "Observation/d66f9a4a-ff15-36a7-bb02-b423383e4344",
                                "display": "Patient Body Weight - Measured"
                            },
                            {
                                "reference": "Observation/e88bfe1f-c3af-309c-95e9-9727ce5bae54",
                                "display": "Intravascular Systolic"
                            },
                            {
                                "reference": "Observation/c265b867-4095-3a41-812d-509d7930f02d",
                                "display": "BP Diastolic"
                            },
                            {
                                "reference": "Observation/77bd88b5-115b-3af5-9aae-0f97a70d7d62",
                                "display": "Height"
                            },
                            {
                                "reference": "Observation/d3f6967b-cbfb-347d-8bb5-7fca7be7cd66",
                                "display": "Patient Body Weight - Measured"
                            },
                            {
                                "reference": "Observation/92a587c7-3f04-35fd-9596-20d70cae5d09",
                                "display": "BP Systolic"
                            },
                            {
                                "reference": "Observation/d80859f6-7092-3973-aee2-b314475e8e4d",
                                "display": "BP Diastolic"
                            }
                        ]
                    }
                ],
                "subject": {
                    "reference": "Patient/2745d583-e3d1-3f88-8b21-7b59adb60779"
                },
                "custodian": {
                    "reference": "Organization/b592a2a0-74bc-37af-896b-ff0fbf6aefb6"
                },
                "author": [
                    {
                        "reference": "Practitioner/4939e179-a309-30ef-9889-e04751868181"
                    }
                ]
            },
            "request": {
                "method": "PUT",
                "url": "Composition/7656751c-ddc8-3f1a-9dc2-7bef5ab59b77"
            }
        },
        {
            "fullUrl": "urn:uuid:4939e179-a309-30ef-9889-e04751868181",
            "resource": {
                "resourceType": "Practitioner",
                "meta": {
                    "profile": [
                        "http://hl7.org/fhir/us/core/StructureDefinition/us-core-practitioner"
                    ]
                },
                "id": "4939e179-a309-30ef-9889-e04751868181",
                "identifier": [
                    {
                        "system": "http://hl7.org/fhir/sid/us-npi",
                        "value": "5555555555"
                    }
                ],
                "name": [
                    {
                        "family": "Primary",
                        "given": [
                            "Patricia",
                            "Patty"
                        ],
                        "suffix": [
                            "M.D."
                        ]
                    }
                ],
                "address": [
                    {
                        "line": [
                            "1004 Healthcare Drive"
                        ],
                        "city": "Portland",
                        "state": "OR",
                        "country": "US",
                        "postalCode": "99123"
                    }
                ],
                "telecom": [
                    {
                        "system": "phone",
                        "value": "+1(555)555-1004",
                        "use": "work"
                    }
                ],
                "qualification": [
                    {
                        "code": {
                            "coding": [
                                {
                                    "code": "207QA0505X",
                                    "display": "Adult Medicine",
                                    "system": "http://nucc.org/provider-taxonomy"
                                }
                            ]
                        }
                    }
                ]
            },
            "request": {
                "method": "PUT",
                "url": "Practitioner/4939e179-a309-30ef-9889-e04751868181"
            }
        },
        {
            "fullUrl": "urn:uuid:b592a2a0-74bc-37af-896b-ff0fbf6aefb6",
            "resource": {
                "resourceType": "Organization",
                "id": "b592a2a0-74bc-37af-896b-ff0fbf6aefb6",
                "identifier": [
                    {
                        "system": "http://hl7.org/fhir/sid/us-npi",
                        "value": "321CX"
                    }
                ],
                "name": "Good Health HIE",
                "address": [
                    {
                        "use": "work",
                        "line": [
                            "1009 Healthcare Drive"
                        ],
                        "city": "Portland",
                        "state": "OR",
                        "country": "US",
                        "postalCode": "99123"
                    }
                ],
                "telecom": [
                    {
                        "system": "phone",
                        "value": "+1(555)555-1009",
                        "use": "work"
                    }
                ]
            },
            "request": {
                "method": "PUT",
                "url": "Organization/b592a2a0-74bc-37af-896b-ff0fbf6aefb6"
            }
        },
        {
            "fullUrl": "urn:uuid:2745d583-e3d1-3f88-8b21-7b59adb60779",
            "resource": {
                "resourceType": "Patient",
                "meta": {
                    "profile": [
                        "http://hl7.org/fhir/us/core/StructureDefinition/us-core-patient"
                    ]
                },
                "id": "2745d583-e3d1-3f88-8b21-7b59adb60779",
                "identifier": [
                    {
                        "system": "http://hl7.org/fhir/sid/us-ssn",
                        "value": "444222222"
                    }
                ],
                "name": [
                    {
                        "use": "usual",
                        "family": "Betterhalf",
                        "given": [
                            "Eve"
                        ]
                    },
                    {
                        "family": "Everywoman",
                        "given": [
                            "Eve"
                        ]
                    }
                ],
                "birthDate": "1945-05-01",
                "gender": "female",
                "extension": [
                    {
                        "url": "http://hl7.org/fhir/us/core/StructureDefinition/us-core-race",
                        "extension": [
                            {
                                "url": "ombCategory",
                                "valueCoding": {
                                    "code": "2106-3",
                                    "display": "White",
                                    "system": "urn:oid:2.16.840.1.113883.6.238"
                                }
                            },
                            {
                                "url": "ombCategory",
                                "valueCoding": {
                                    "code": "2076-8",
                                    "display": "Hawaiian or Other Pacific Islander",
                                    "system": "urn:oid:2.16.840.1.113883.6.238"
                                }
                            },
                            {
                                "url": "text",
                                "valueString": "Mixed"
                            }
                        ]
                    },
                    {
                        "url": "http://hl7.org/fhir/us/core/StructureDefinition/us-core-ethnicity",
                        "extension": [
                            {
                                "url": "ombCategory",
                                "valueCoding": {
                                    "code": "2186-5",
                                    "display": "Not Hispanic or Latino",
                                    "system": "urn:oid:2.16.840.1.113883.6.238"
                                }
                            },
                            {
                                "url": "text",
                                "valueString": "Not Hispanic or Latino"
                            }
                        ]
                    }
                ],
                "address": [
                    {
                        "use": "home",
                        "line": [
                            "2222 Home Street"
                        ],
                        "city": "Beaverton",
                        "state": "OR",
                        "country": "US",
                        "postalCode": "97867"
                    }
                ],
                "telecom": [
                    {
                        "system": "phone",
                        "value": "+1(555)555-2003",
                        "use": "home"
                    }
                ],
                "communication": [
                    {
                        "language": {
                            "coding": [
                                {
                                    "system": "urn:ietf:bcp:47",
                                    "code": "eng"
                                }
                            ]
                        },
                        "preferred": true
                    }
                ]
            },
            "request": {
                "method": "PUT",
                "url": "Patient/2745d583-e3d1-3f88-8b21-7b59adb60779"
            }
        },
        {
            "fullUrl": "urn:uuid:5fab84f6-27ae-3100-a4be-3785d3a7a76b",
            "resource": {
                "resourceType": "RelatedPerson",
                "id": "5fab84f6-27ae-3100-a4be-3785d3a7a76b",
                "relationship": [
                    {
                        "coding": [
                            {
                                "code": "POWATT",
                                "display": "Power of Attorney",
                                "system": "urn:oid:2.16.840.1.113883.1.11.19830"
                            }
                        ]
                    }
                ],
                "name": [
                    {
                        "family": "Betterhalf",
                        "given": [
                            "Boris",
                            "Bo"
                        ]
                    }
                ],
                "telecom": [
                    {
                        "system": "phone",
                        "value": "+1(555)555-2008",
                        "use": "mobile"
                    }
                ],
                "address": [
                    {
                        "use": "home",
                        "line": [
                            "2222 Home Street"
                        ],
                        "city": "Beaverton",
                        "state": "OR",
                        "country": "US",
                        "postalCode": "97867"
                    }
                ],
                "patient": {
                    "reference": "Patient/2745d583-e3d1-3f88-8b21-7b59adb60779"
                }
            },
            "request": {
                "method": "PUT",
                "url": "RelatedPerson/5fab84f6-27ae-3100-a4be-3785d3a7a76b"
            }
        },
        {
            "fullUrl": "urn:uuid:2c1ce1d4-2a4f-399c-9a09-f79be9c0edb7",
            "resource": {
                "resourceType": "AllergyIntolerance",
                "id": "2c1ce1d4-2a4f-399c-9a09-f79be9c0edb7",
                "identifier": [
                    {
                        "system": "urn:ietf:rfc:3986",
                        "value": "urn:uuid:4adc1020-7b14-11db-9fe1-0800200c9a66"
                    }
                ],
                "clinicalStatus": {
                    "coding": [
                        {
                            "system": "http://terminology.hl7.org/CodeSystem/allergyintolerance-clinical",
                            "code": "active"
                        }
                    ]
                },
                "reaction": [
                    {
                        "substance": {
                            "coding": [
                                {
                                    "code": "70618",
                                    "display": "Penicillin",
                                    "system": "http://www.nlm.nih.gov/research/umls/rxnorm"
                                }
                            ]
                        },
                        "manifestation": [
                            {
                                "coding": [
                                    {
                                        "code": "422587007",
                                        "display": "Nausea",
                                        "system": "http://snomed.info/sct"
                                    }
                                ]
                            }
                        ],
                        "onset": "2008-02-26T16:05:00.000Z"
                    }
                ],
                "onsetDateTime": "1998-05-01",
                "patient": {
                    "reference": "Patient/2745d583-e3d1-3f88-8b21-7b59adb60779"
                }
            },
            "request": {
                "method": "PUT",
                "url": "AllergyIntolerance/2c1ce1d4-2a4f-399c-9a09-f79be9c0edb7"
            }
        },
        {
            "fullUrl": "urn:uuid:10a6e5b9-6550-3bc7-844a-69061b0b5a6d",
            "resource": {
                "resourceType": "AllergyIntolerance",
                "id": "10a6e5b9-6550-3bc7-844a-69061b0b5a6d",
                "identifier": [
                    {
                        "system": "urn:ietf:rfc:3986",
                        "value": "urn:uuid:901db0f8-9355-4794-81cd-fd951ef07917"
                    }
                ],
                "clinicalStatus": {
                    "coding": [
                        {
                            "system": "http://terminology.hl7.org/CodeSystem/allergyintolerance-clinical",
                            "code": "active"
                        }
                    ]
                },
                "reaction": [
                    {
                        "substance": {
                            "coding": [
                                {
                                    "code": "2670",
                                    "display": "Codeine",
                                    "system": "http://www.nlm.nih.gov/research/umls/rxnorm"
                                }
                            ]
                        },
                        "manifestation": [
                            {
                                "coding": [
                                    {
                                        "code": "56018004",
                                        "display": "Wheezing",
                                        "system": "http://snomed.info/sct"
                                    }
                                ]
                            }
                        ],
                        "severity": "mild"
                    }
                ],
                "patient": {
                    "reference": "Patient/2745d583-e3d1-3f88-8b21-7b59adb60779"
                }
            },
            "request": {
                "method": "PUT",
                "url": "AllergyIntolerance/10a6e5b9-6550-3bc7-844a-69061b0b5a6d"
            }
        },
        {
            "fullUrl": "urn:uuid:93a30562-b470-3223-bd61-619e3a87e08e",
            "resource": {
                "resourceType": "MedicationStatement",
                "id": "93a30562-b470-3223-bd61-619e3a87e08e",
                "identifier": [
                    {
                        "system": "urn:ietf:rfc:3986",
                        "value": "urn:uuid:cdbd33f0-6cde-11db-9fe1-0800200c9a66"
                    }
                ],
                "status": "active",
                "dosage": [
                    {
                        "doseAndRate": [
                            {
                                "doseQuantity": {
                                    "value": 2
                                }
                            }
                        ]
                    }
                ],
                "subject": {
                    "reference": "Patient/2745d583-e3d1-3f88-8b21-7b59adb60779"
                },
                "medicationReference": {
                    "reference": "Medication/e8542bc8-91e7-32e4-96a5-7b2e159b8672"
                }
            },
            "request": {
                "method": "PUT",
                "url": "MedicationStatement/93a30562-b470-3223-bd61-619e3a87e08e"
            }
        },
        {
            "fullUrl": "urn:uuid:e8542bc8-91e7-32e4-96a5-7b2e159b8672",
            "resource": {
                "resourceType": "Medication",
                "id": "e8542bc8-91e7-32e4-96a5-7b2e159b8672",
                "code": {
                    "coding": [
                        {
                            "code": "573621",
                            "display": "Proventil 0.09 MG/ACTUAT inhalant solution",
                            "system": "http://www.nlm.nih.gov/research/umls/rxnorm"
                        }
                    ]
                }
            },
            "request": {
                "method": "PUT",
                "url": "Medication/e8542bc8-91e7-32e4-96a5-7b2e159b8672"
            }
        },
        {
            "fullUrl": "urn:uuid:0d3aac13-5767-385c-ace0-2a20a5d2a143",
            "resource": {
                "resourceType": "MedicationStatement",
                "id": "0d3aac13-5767-385c-ace0-2a20a5d2a143",
                "identifier": [
                    {
                        "system": "urn:ietf:rfc:3986",
                        "value": "urn:uuid:6c844c75-aa34-411c-b7bd-5e4a9f206e29"
                    }
                ],
                "status": "active",
                "dosage": [
                    {
                        "doseAndRate": [
                            {
                                "doseQuantity": {
                                    "value": 1
                                }
                            }
                        ]
                    }
                ],
                "subject": {
                    "reference": "Patient/2745d583-e3d1-3f88-8b21-7b59adb60779"
                },
                "medicationReference": {
                    "reference": "Medication/eaa01790-b0cc-3c1e-bfa1-bce758cbc962"
                }
            },
            "request": {
                "method": "PUT",
                "url": "MedicationStatement/0d3aac13-5767-385c-ace0-2a20a5d2a143"
            }
        },
        {
            "fullUrl": "urn:uuid:eaa01790-b0cc-3c1e-bfa1-bce758cbc962",
            "resource": {
                "resourceType": "Medication",
                "id": "eaa01790-b0cc-3c1e-bfa1-bce758cbc962",
                "code": {
                    "coding": [
                        {
                            "code": "197380",
                            "display": "Atenolol 25 MG Oral Tablet",
                            "system": "http://www.nlm.nih.gov/research/umls/rxnorm"
                        }
                    ]
                }
            },
            "request": {
                "method": "PUT",
                "url": "Medication/eaa01790-b0cc-3c1e-bfa1-bce758cbc962"
            }
        },
        {
            "fullUrl": "urn:uuid:e4b5a412-4bad-33fc-91aa-ebc767a97cd8",
            "resource": {
                "resourceType": "Condition",
                "id": "e4b5a412-4bad-33fc-91aa-ebc767a97cd8",
                "identifier": [
                    {
                        "system": "urn:ietf:rfc:3986",
                        "value": "urn:uuid:ab1791b0-5c71-11db-b0de-0800200c9a66"
                    }
                ],
                "code": {
                    "coding": [
                        {
                            "code": "93870000",
                            "display": "malignant neoplasm of liver (disorder)",
                            "system": "http://snomed.info/sct"
                        }
                    ]
                },
                "onsetDateTime": "2013-07-03",
                "subject": {
                    "reference": "Patient/2745d583-e3d1-3f88-8b21-7b59adb60779"
                }
            },
            "request": {
                "method": "PUT",
                "url": "Condition/e4b5a412-4bad-33fc-91aa-ebc767a97cd8"
            }
        },
        {
            "fullUrl": "urn:uuid:83b44a02-fdf9-3db6-b4cc-f376f53aeef6",
            "resource": {
                "resourceType": "Condition",
                "id": "83b44a02-fdf9-3db6-b4cc-f376f53aeef6",
                "identifier": [
                    {
                        "system": "urn:ietf:rfc:3986",
                        "value": "urn:uuid:11d088a8-b957-401c-8ee0-3bd20a772fc0"
                    }
                ],
                "code": {
                    "coding": [
                        {
                            "code": "29857009",
                            "display": "Chest pain",
                            "system": "http://snomed.info/sct"
                        }
                    ]
                },
                "onsetDateTime": "2007-04-14",
                "subject": {
                    "reference": "Patient/2745d583-e3d1-3f88-8b21-7b59adb60779"
                }
            },
            "request": {
                "method": "PUT",
                "url": "Condition/83b44a02-fdf9-3db6-b4cc-f376f53aeef6"
            }
        },
        {
            "fullUrl": "urn:uuid:9397b897-4ebc-342f-a98d-13a9abce8cd4",
            "resource": {
                "resourceType": "Condition",
                "id": "9397b897-4ebc-342f-a98d-13a9abce8cd4",
                "identifier": [
                    {
                        "system": "urn:ietf:rfc:3986",
                        "value": "urn:uuid:4991db40-4c4f-41e8-9146-50c12d716424"
                    }
                ],
                "code": {
                    "coding": [
                        {
                            "code": "194828000",
                            "display": "Angina",
                            "system": "http://snomed.info/sct"
                        }
                    ]
                },
                "onsetDateTime": "2007-04-17",
                "subject": {
                    "reference": "Patient/2745d583-e3d1-3f88-8b21-7b59adb60779"
                }
            },
            "request": {
                "method": "PUT",
                "url": "Condition/9397b897-4ebc-342f-a98d-13a9abce8cd4"
            }
        },
        {
            "fullUrl": "urn:uuid:bfd9fefb-7b4a-304d-b539-3f3c487b1249",
            "resource": {
                "resourceType": "Condition",
                "id": "bfd9fefb-7b4a-304d-b539-3f3c487b1249",
                "identifier": [
                    {
                        "system": "urn:ietf:rfc:3986",
                        "value": "urn:uuid:10506b4d-c30a-4220-8bec-97bff9568fd1"
                    }
                ],
                "code": {
                    "coding": [
                        {
                            "code": "233604007",
                            "display": "Pneumonia",
                            "system": "http://snomed.info/sct"
                        }
                    ]
                },
                "onsetDateTime": "1998-03-10",
                "subject": {
                    "reference": "Patient/2745d583-e3d1-3f88-8b21-7b59adb60779"
                }
            },
            "request": {
                "method": "PUT",
                "url": "Condition/bfd9fefb-7b4a-304d-b539-3f3c487b1249"
            }
        },
        {
            "fullUrl": "urn:uuid:b193253f-8da0-3001-a1b0-56b24b462773",
            "resource": {
                "resourceType": "DiagnosticReport",
                "id": "b193253f-8da0-3001-a1b0-56b24b462773",
                "identifier": [
                    {
                        "system": "urn:ietf:rfc:3986",
                        "value": "urn:uuid:7d5a02b0-67a4-11db-bd13-0800200c9a66"
                    }
                ],
                "status": "final",
                "code": {
                    "coding": [
                        {
                            "code": "57021-8",
                            "display": "CBC W Auto Differential panel in Blood",
                            "system": "http://loinc.org"
                        }
                    ]
                },
                "effectivePeriod": {
                    "start": "2013-03-11T16:30:00.000Z",
                    "end": "2013-03-11T16:30:00.000Z"
                },
                "subject": {
                    "reference": "Patient/2745d583-e3d1-3f88-8b21-7b59adb60779"
                },
                "result": [
                    {
                        "reference": "Observation/944f3bdc-d6ae-376d-a957-cc7cb322e519"
                    },
                    {
                        "reference": "Observation/418518fc-5b7d-3354-92f7-066ab0ea02ea"
                    },
                    {
                        "reference": "Observation/e1c756bd-a9d3-3723-95d1-4b318f9a0d4c"
                    },
                    {
                        "reference": "Observation/fc37a995-02b2-382c-9244-402f3328538c"
                    },
                    {
                        "reference": "Observation/7f4b5481-2d05-3e66-a1da-e1c2aaa68483"
                    }
                ]
            },
            "request": {
                "method": "PUT",
                "url": "DiagnosticReport/b193253f-8da0-3001-a1b0-56b24b462773"
            }
        },
        {
            "fullUrl": "urn:uuid:944f3bdc-d6ae-376d-a957-cc7cb322e519",
            "resource": {
                "resourceType": "Observation",
                "meta": {
                    "profile": [
                        "http://hl7.org/fhir/us/core/StructureDefinition/us-core-observationresults"
                    ]
                },
                "id": "944f3bdc-d6ae-376d-a957-cc7cb322e519",
                "identifier": [
                    {
                        "system": "urn:ietf:rfc:3986",
                        "value": "urn:uuid:107c2dc0-67a5-11db-bd13-0800200c9a66"
                    }
                ],
                "category": [
                    {
                        "coding": [
                            {
                                "system": "http://terminology.hl7.org/CodeSystem/observation-category",
                                "code": "laboratory"
                            }
                        ]
                    }
                ],
                "status": "final",
                "code": {
                    "coding": [
                        {
                            "code": "718-7",
                            "display": "Hemoglobin",
                            "system": "http://loinc.org"
                        }
                    ]
                },
                "effectiveDateTime": "2013-03-11T16:30:00.000Z",
                "valueQuantity": {
                    "value": 13.2,
                    "unit": "g/dL"
                },
                "referenceRange": [
                    {
                        "low": {
                            "value": 12,
                            "unit": "g/dL"
                        },
                        "high": {
                            "value": 15.5,
                            "unit": "g/dL"
                        }
                    }
                ],
                "interpretation": [
                    {
                        "coding": [
                            {
                                "code": "N",
                                "system": "http://terminology.hl7.org/CodeSystem/v3-ObservationInterpretation"
                            }
                        ]
                    }
                ],
                "subject": {
                    "reference": "Patient/2745d583-e3d1-3f88-8b21-7b59adb60779"
                },
                "performer": [
                    {
                        "reference": "Practitioner/7b28babc-fd6e-3540-b98f-2b6a0901138d"
                    }
                ]
            },
            "request": {
                "method": "PUT",
                "url": "Observation/944f3bdc-d6ae-376d-a957-cc7cb322e519"
            }
        },
        {
            "fullUrl": "urn:uuid:418518fc-5b7d-3354-92f7-066ab0ea02ea",
            "resource": {
                "resourceType": "Observation",
                "meta": {
                    "profile": [
                        "http://hl7.org/fhir/us/core/StructureDefinition/us-core-observationresults"
                    ]
                },
                "id": "418518fc-5b7d-3354-92f7-066ab0ea02ea",
                "identifier": [
                    {
                        "system": "urn:ietf:rfc:3986",
                        "value": "urn:uuid:a69b3d60-2ffd-4440-958b-72b3335ff35f"
                    }
                ],
                "category": [
                    {
                        "coding": [
                            {
                                "system": "http://terminology.hl7.org/CodeSystem/observation-category",
                                "code": "laboratory"
                            }
                        ]
                    }
                ],
                "status": "final",
                "code": {
                    "coding": [
                        {
                            "code": "6690-2",
                            "display": "Leukocytes",
                            "system": "http://loinc.org"
                        }
                    ]
                },
                "effectiveDateTime": "2013-03-11T16:30:00.000Z",
                "valueQuantity": {
                    "value": 6.7,
                    "unit": "10*9/L"
                },
                "referenceRange": [
                    {
                        "low": {
                            "value": 4.3,
                            "unit": "10*9/L"
                        },
                        "high": {
                            "value": 10.8,
                            "unit": "10*9/L"
                        }
                    }
                ],
                "interpretation": [
                    {
                        "coding": [
                            {
                                "code": "N",
                                "system": "http://terminology.hl7.org/CodeSystem/v3-ObservationInterpretation"
                            }
                        ]
                    }
                ],
                "subject": {
                    "reference": "Patient/2745d583-e3d1-3f88-8b21-7b59adb60779"
                },
                "performer": [
                    {
                        "reference": "Practitioner/7b28babc-fd6e-3540-b98f-2b6a0901138d"
                    }
                ]
            },
            "request": {
                "method": "PUT",
                "url": "Observation/418518fc-5b7d-3354-92f7-066ab0ea02ea"
            }
        },
        {
            "fullUrl": "urn:uuid:e1c756bd-a9d3-3723-95d1-4b318f9a0d4c",
            "resource": {
                "resourceType": "Observation",
                "meta": {
                    "profile": [
                        "http://hl7.org/fhir/us/core/StructureDefinition/us-core-observationresults"
                    ]
                },
                "id": "e1c756bd-a9d3-3723-95d1-4b318f9a0d4c",
                "identifier": [
                    {
                        "system": "urn:ietf:rfc:3986",
                        "value": "urn:uuid:ef5c1c58-4665-4556-a8e8-6e720d82f572"
                    }
                ],
                "category": [
                    {
                        "coding": [
                            {
                                "system": "http://terminology.hl7.org/CodeSystem/observation-category",
                                "code": "laboratory"
                            }
                        ]
                    }
                ],
                "status": "final",
                "code": {
                    "coding": [
                        {
                            "code": "777-3",
                            "display": "Platelets",
                            "system": "http://loinc.org"
                        }
                    ]
                },
                "effectiveDateTime": "2013-03-11T16:30:00.000Z",
                "valueQuantity": {
                    "value": 123,
                    "unit": "10*9/L"
                },
                "referenceRange": [
                    {
                        "low": {
                            "value": 150,
                            "unit": "10*9/L"
                        },
                        "high": {
                            "value": 350,
                            "unit": "10*9/L"
                        }
                    }
                ],
                "interpretation": [
                    {
                        "coding": [
                            {
                                "code": "LX",
                                "system": "http://terminology.hl7.org/CodeSystem/v3-ObservationInterpretation"
                            }
                        ]
                    }
                ],
                "subject": {
                    "reference": "Patient/2745d583-e3d1-3f88-8b21-7b59adb60779"
                },
                "performer": [
                    {
                        "reference": "Practitioner/7b28babc-fd6e-3540-b98f-2b6a0901138d"
                    }
                ]
            },
            "request": {
                "method": "PUT",
                "url": "Observation/e1c756bd-a9d3-3723-95d1-4b318f9a0d4c"
            }
        },
        {
            "fullUrl": "urn:uuid:fc37a995-02b2-382c-9244-402f3328538c",
            "resource": {
                "resourceType": "Observation",
                "meta": {
                    "profile": [
                        "http://hl7.org/fhir/us/core/StructureDefinition/us-core-observationresults"
                    ]
                },
                "id": "fc37a995-02b2-382c-9244-402f3328538c",
                "identifier": [
                    {
                        "system": "urn:ietf:rfc:3986",
                        "value": "urn:uuid:7c0704bb-9c40-41b5-9c7d-26b2d59e234f"
                    }
                ],
                "category": [
                    {
                        "coding": [
                            {
                                "system": "http://terminology.hl7.org/CodeSystem/observation-category",
                                "code": "laboratory"
                            }
                        ]
                    }
                ],
                "status": "final",
                "code": {
                    "coding": [
                        {
                            "code": "4544-3",
                            "display": "Hematocrit",
                            "system": "http://loinc.org"
                        }
                    ]
                },
                "effectiveDateTime": "2013-03-11T16:30:00.000Z",
                "valueQuantity": {
                    "value": 35.3,
                    "unit": "%"
                },
                "referenceRange": [
                    {
                        "low": {
                            "value": 34.9,
                            "unit": "%"
                        },
                        "high": {
                            "value": 44.5,
                            "unit": "%"
                        }
                    }
                ],
                "interpretation": [
                    {
                        "coding": [
                            {
                                "code": "LX",
                                "display": "below low threshold",
                                "system": "http://terminology.hl7.org/CodeSystem/v3-ObservationInterpretation"
                            }
                        ]
                    }
                ],
                "subject": {
                    "reference": "Patient/2745d583-e3d1-3f88-8b21-7b59adb60779"
                },
                "performer": [
                    {
                        "reference": "Practitioner/7b28babc-fd6e-3540-b98f-2b6a0901138d"
                    }
                ]
            },
            "request": {
                "method": "PUT",
                "url": "Observation/fc37a995-02b2-382c-9244-402f3328538c"
            }
        },
        {
            "fullUrl": "urn:uuid:7f4b5481-2d05-3e66-a1da-e1c2aaa68483",
            "resource": {
                "resourceType": "Observation",
                "meta": {
                    "profile": [
                        "http://hl7.org/fhir/us/core/StructureDefinition/us-core-observationresults"
                    ]
                },
                "id": "7f4b5481-2d05-3e66-a1da-e1c2aaa68483",
                "identifier": [
                    {
                        "system": "urn:ietf:rfc:3986",
                        "value": "urn:uuid:bccd6fc9-0c7f-455e-8616-923ed0d04d09"
                    }
                ],
                "category": [
                    {
                        "coding": [
                            {
                                "system": "http://terminology.hl7.org/CodeSystem/observation-category",
                                "code": "laboratory"
                            }
                        ]
                    }
                ],
                "status": "final",
                "code": {
                    "coding": [
                        {
                            "code": "789-8",
                            "display": "Erythrocytes",
                            "system": "http://loinc.org"
                        }
                    ]
                },
                "effectiveDateTime": "2013-03-11T16:30:00.000Z",
                "valueQuantity": {
                    "value": 4.21,
                    "unit": "10*12/L"
                },
                "referenceRange": [
                    {
                        "low": {
                            "value": 3.9,
                            "unit": "10*12/L"
                        },
                        "high": {
                            "value": 5.03,
                            "unit": "10*12/L"
                        }
                    }
                ],
                "interpretation": [
                    {
                        "coding": [
                            {
                                "code": "N",
                                "system": "http://terminology.hl7.org/CodeSystem/v3-ObservationInterpretation"
                            }
                        ]
                    }
                ],
                "subject": {
                    "reference": "Patient/2745d583-e3d1-3f88-8b21-7b59adb60779"
                },
                "performer": [
                    {
                        "reference": "Practitioner/7b28babc-fd6e-3540-b98f-2b6a0901138d"
                    }
                ]
            },
            "request": {
                "method": "PUT",
                "url": "Observation/7f4b5481-2d05-3e66-a1da-e1c2aaa68483"
            }
        },
        {
            "fullUrl": "urn:uuid:218585b9-ed08-375b-8b15-ab8035b61d50",
            "resource": {
                "resourceType": "DiagnosticReport",
                "id": "218585b9-ed08-375b-8b15-ab8035b61d50",
                "identifier": [
                    {
                        "system": "urn:ietf:rfc:3986",
                        "value": "urn:uuid:122ed3ae-6d9e-43d0-bfa2-434ea34b1426"
                    }
                ],
                "status": "unknown",
                "code": {
                    "coding": [
                        {
                            "code": "166312007",
                            "display": "Blood chemistry test",
                            "system": "http://snomed.info/sct"
                        }
                    ]
                },
                "effectivePeriod": {
                    "start": "2008-03-20T17:30:00.000Z",
                    "end": "2008-03-20T17:30:00.000Z"
                },
                "subject": {
                    "reference": "Patient/2745d583-e3d1-3f88-8b21-7b59adb60779"
                },
                "result": [
                    {
                        "reference": "Observation/6e9597b4-24e1-36d0-9c63-1b4208108b3f"
                    }
                ]
            },
            "request": {
                "method": "PUT",
                "url": "DiagnosticReport/218585b9-ed08-375b-8b15-ab8035b61d50"
            }
        },
        {
            "fullUrl": "urn:uuid:6e9597b4-24e1-36d0-9c63-1b4208108b3f",
            "resource": {
                "resourceType": "Observation",
                "meta": {
                    "profile": [
                        "http://hl7.org/fhir/us/core/StructureDefinition/us-core-observationresults"
                    ]
                },
                "id": "6e9597b4-24e1-36d0-9c63-1b4208108b3f",
                "identifier": [
                    {
                        "system": "urn:ietf:rfc:3986",
                        "value": "urn:uuid:aed821af-3330-4138-97f0-e84dfe5f3c35"
                    }
                ],
                "category": [
                    {
                        "coding": [
                            {
                                "system": "http://terminology.hl7.org/CodeSystem/observation-category",
                                "code": "laboratory"
                            }
                        ]
                    }
                ],
                "status": "unknown",
                "code": {
                    "coding": [
                        {
                            "code": "3094-0",
                            "display": "Urea nitrogen, Serum",
                            "system": "http://loinc.org"
                        }
                    ]
                },
                "effectiveDateTime": "2008-03-20T17:30:00.000Z",
                "interpretation": [
                    {
                        "coding": [
                            {
                                "code": "N",
                                "display": "normal",
                                "system": "http://terminology.hl7.org/CodeSystem/v3-ObservationInterpretation"
                            }
                        ]
                    }
                ],
                "subject": {
                    "reference": "Patient/2745d583-e3d1-3f88-8b21-7b59adb60779"
                }
            },
            "request": {
                "method": "PUT",
                "url": "Observation/6e9597b4-24e1-36d0-9c63-1b4208108b3f"
            }
        },
        {
            "fullUrl": "urn:uuid:7ba37464-7000-34af-be2a-29e781f11d8e",
            "resource": {
                "resourceType": "Observation",
                "meta": {
                    "profile": [
                        "http://hl7.org/fhir/us/core/StructureDefinition/us-core-observationresults"
                    ]
                },
                "id": "7ba37464-7000-34af-be2a-29e781f11d8e",
                "identifier": [
                    {
                        "system": "urn:ietf:rfc:3986",
                        "value": "urn:uuid:9b56c25d-9104-45ee-9fa4-e0f3afaa01c1"
                    }
                ],
                "category": [
                    {
                        "coding": [
                            {
                                "system": "http://terminology.hl7.org/CodeSystem/observation-category",
                                "code": "social-history"
                            }
                        ]
                    }
                ],
                "status": "final",
                "code": {
                    "coding": [
                        {
                            "code": "74013-4",
                            "display": "Alcoholic drinks per day",
                            "system": "http://loinc.org"
                        }
                    ]
                },
                "effectiveDateTime": "2013-03-12",
                "valueQuantity": {
                    "value": 1
                },
                "subject": {
                    "reference": "Patient/2745d583-e3d1-3f88-8b21-7b59adb60779"
                }
            },
            "request": {
                "method": "PUT",
                "url": "Observation/7ba37464-7000-34af-be2a-29e781f11d8e"
            }
        },
        {
            "fullUrl": "urn:uuid:dee20b2e-7761-365b-9451-cc82d9cad8a9",
            "resource": {
                "resourceType": "Observation",
                "meta": {
                    "profile": [
                        "http://hl7.org/fhir/us/core/StructureDefinition/us-core-observationresults"
                    ]
                },
                "id": "dee20b2e-7761-365b-9451-cc82d9cad8a9",
                "identifier": [
                    {
                        "system": "urn:oid:2.16.840.1.113883.19",
                        "value": "123456789"
                    }
                ],
                "category": [
                    {
                        "coding": [
                            {
                                "system": "http://terminology.hl7.org/CodeSystem/observation-category",
                                "code": "social-history"
                            }
                        ]
                    }
                ],
                "status": "final",
                "code": {
                    "coding": [
                        {
                            "code": "72166-2",
                            "display": "Tobacco smoking status NHIS",
                            "system": "http://loinc.org"
                        }
                    ]
                },
                "effectiveDateTime": "2013-06-21",
                "valueCodeableConcept": {
                    "coding": [
                        {
                            "code": "8517006",
                            "display": "Former smoker",
                            "system": "http://snomed.info/sct"
                        }
                    ]
                },
                "subject": {
                    "reference": "Patient/2745d583-e3d1-3f88-8b21-7b59adb60779"
                }
            },
            "request": {
                "method": "PUT",
                "url": "Observation/dee20b2e-7761-365b-9451-cc82d9cad8a9"
            }
        },
        {
            "fullUrl": "urn:uuid:61df9cf6-4bb5-3f2d-a31e-921ec5e681f4",
            "resource": {
                "resourceType": "Observation",
                "meta": {
                    "profile": [
                        "http://hl7.org/fhir/us/core/StructureDefinition/us-core-observationresults"
                    ]
                },
                "id": "61df9cf6-4bb5-3f2d-a31e-921ec5e681f4",
                "category": [
                    {
                        "coding": [
                            {
                                "system": "http://terminology.hl7.org/CodeSystem/observation-category",
                                "code": "social-history"
                            }
                        ]
                    }
                ],
                "status": "final",
                "code": {
                    "coding": [
                        {
                            "code": "ASSERTION",
                            "system": "urn:oid:2.16.840.1.113883.5.4"
                        }
                    ]
                },
                "effectiveDateTime": "2013-03-12",
                "valueCodeableConcept": {
                    "coding": [
                        {
                            "code": "422615001",
                            "display": "caregiver difficulty providing physical care",
                            "system": "http://snomed.info/sct"
                        }
                    ]
                },
                "subject": {
                    "reference": "Patient/2745d583-e3d1-3f88-8b21-7b59adb60779"
                }
            },
            "request": {
                "method": "PUT",
                "url": "Observation/61df9cf6-4bb5-3f2d-a31e-921ec5e681f4"
            }
        },
        {
            "fullUrl": "urn:uuid:842ed91d-5620-3a70-8d74-de134748fb67",
            "resource": {
                "resourceType": "Observation",
                "meta": {
                    "profile": [
                        "http://hl7.org/fhir/us/core/StructureDefinition/us-core-observationresults"
                    ]
                },
                "id": "842ed91d-5620-3a70-8d74-de134748fb67",
                "identifier": [
                    {
                        "system": "urn:ietf:rfc:3986",
                        "value": "urn:uuid:37f76c51-6411-4e1d-8a37-957fd49d2cef"
                    }
                ],
                "category": [
                    {
                        "coding": [
                            {
                                "system": "http://terminology.hl7.org/CodeSystem/observation-category",
                                "code": "social-history"
                            }
                        ]
                    }
                ],
                "status": "final",
                "code": {
                    "coding": [
                        {
                            "code": "75281-6",
                            "display": "Personal belief",
                            "system": "http://loinc.org"
                        }
                    ]
                },
                "effectiveDateTime": "2013-03-12",
                "subject": {
                    "reference": "Patient/2745d583-e3d1-3f88-8b21-7b59adb60779"
                }
            },
            "request": {
                "method": "PUT",
                "url": "Observation/842ed91d-5620-3a70-8d74-de134748fb67"
            }
        },
        {
            "fullUrl": "urn:uuid:68903f38-80f6-305d-b0dd-3b10200613bd",
            "resource": {
                "resourceType": "Observation",
                "meta": {
                    "profile": [
                        "http://hl7.org/fhir/us/core/StructureDefinition/us-core-observationresults"
                    ]
                },
                "id": "68903f38-80f6-305d-b0dd-3b10200613bd",
                "identifier": [
                    {
                        "system": "urn:ietf:rfc:3986",
                        "value": "urn:uuid:37f76c51-6411-4e1d-8a37-957fd49d2ceg"
                    }
                ],
                "category": [
                    {
                        "coding": [
                            {
                                "system": "http://terminology.hl7.org/CodeSystem/observation-category",
                                "code": "social-history"
                            }
                        ]
                    }
                ],
                "status": "final",
                "code": {
                    "coding": [
                        {
                            "code": "75274-1",
                            "display": "Characteristics of residence",
                            "system": "http://loinc.org"
                        }
                    ]
                },
                "effectiveDateTime": "2013-03-12",
                "valueCodeableConcept": {
                    "coding": [
                        {
                            "code": "308899009",
                            "display": "unsatisfactory living conditions (finding)",
                            "system": "http://snomed.info/sct"
                        }
                    ]
                },
                "subject": {
                    "reference": "Patient/2745d583-e3d1-3f88-8b21-7b59adb60779"
                }
            },
            "request": {
                "method": "PUT",
                "url": "Observation/68903f38-80f6-305d-b0dd-3b10200613bd"
            }
        },
        {
            "fullUrl": "urn:uuid:8d70b851-7856-36c2-8df0-d17dec9898fe",
            "resource": {
                "resourceType": "Observation",
                "meta": {
                    "profile": [
                        "http://hl7.org/fhir/us/core/StructureDefinition/us-core-observationresults"
                    ]
                },
                "id": "8d70b851-7856-36c2-8df0-d17dec9898fe",
                "identifier": [
                    {
                        "system": "urn:ietf:rfc:3986",
                        "value": "urn:uuid:ed9589fd-fda0-41f7-a3d0-dc537554f5c2"
                    }
                ],
                "category": [
                    {
                        "coding": [
                            {
                                "system": "http://terminology.hl7.org/CodeSystem/observation-category",
                                "code": "vital-signs"
                            }
                        ]
                    }
                ],
                "status": "final",
                "code": {
                    "coding": [
                        {
                            "code": "8302-2",
                            "display": "Height",
                            "system": "http://loinc.org"
                        }
                    ]
                },
                "effectiveDateTime": "2012-09-10",
                "valueQuantity": {
                    "value": 177,
                    "unit": "cm"
                },
                "interpretation": [
                    {
                        "coding": [
                            {
                                "code": "N",
                                "system": "http://terminology.hl7.org/CodeSystem/v3-ObservationInterpretation"
                            }
                        ]
                    }
                ],
                "subject": {
                    "reference": "Patient/2745d583-e3d1-3f88-8b21-7b59adb60779"
                }
            },
            "request": {
                "method": "PUT",
                "url": "Observation/8d70b851-7856-36c2-8df0-d17dec9898fe"
            }
        },
        {
            "fullUrl": "urn:uuid:89a2fc22-8c36-37c1-86b5-a410f4f191c9",
            "resource": {
                "resourceType": "Observation",
                "meta": {
                    "profile": [
                        "http://hl7.org/fhir/us/core/StructureDefinition/us-core-observationresults"
                    ]
                },
                "id": "89a2fc22-8c36-37c1-86b5-a410f4f191c9",
                "identifier": [
                    {
                        "system": "urn:ietf:rfc:3986",
                        "value": "urn:uuid:f4e729e2-a97f-4a7e-8e23-c92f9b6b55cf"
                    }
                ],
                "category": [
                    {
                        "coding": [
                            {
                                "system": "http://terminology.hl7.org/CodeSystem/observation-category",
                                "code": "vital-signs"
                            }
                        ]
                    }
                ],
                "status": "final",
                "code": {
                    "coding": [
                        {
                            "code": "3141-9",
                            "display": "Patient Body Weight - Measured",
                            "system": "http://loinc.org"
                        }
                    ]
                },
                "effectiveDateTime": "2013-02-12",
                "valueQuantity": {
                    "value": 86,
                    "unit": "kg"
                },
                "interpretation": [
                    {
                        "coding": [
                            {
                                "code": "N",
                                "system": "http://terminology.hl7.org/CodeSystem/v3-ObservationInterpretation"
                            }
                        ]
                    }
                ],
                "subject": {
                    "reference": "Patient/2745d583-e3d1-3f88-8b21-7b59adb60779"
                }
            },
            "request": {
                "method": "PUT",
                "url": "Observation/89a2fc22-8c36-37c1-86b5-a410f4f191c9"
            }
        },
        {
            "fullUrl": "urn:uuid:5a74fd95-c6ef-3257-9c71-fcf2835b5eb0",
            "resource": {
                "resourceType": "Observation",
                "meta": {
                    "profile": [
                        "http://hl7.org/fhir/us/core/StructureDefinition/us-core-observationresults"
                    ]
                },
                "id": "5a74fd95-c6ef-3257-9c71-fcf2835b5eb0",
                "identifier": [
                    {
                        "system": "urn:ietf:rfc:3986",
                        "value": "urn:uuid:a0e39c70-9674-4b2a-9837-cdf74200d8d5"
                    }
                ],
                "category": [
                    {
                        "coding": [
                            {
                                "system": "http://terminology.hl7.org/CodeSystem/observation-category",
                                "code": "vital-signs"
                            }
                        ]
                    }
                ],
                "status": "final",
                "code": {
                    "coding": [
                        {
                            "code": "8480-6",
                            "display": "Intravascular Systolic",
                            "system": "http://loinc.org"
                        }
                    ]
                },
                "effectiveDateTime": "2013-08-01",
                "valueQuantity": {
                    "value": 132,
                    "unit": "mm[Hg]"
                },
                "interpretation": [
                    {
                        "coding": [
                            {
                                "code": "N",
                                "system": "http://terminology.hl7.org/CodeSystem/v3-ObservationInterpretation"
                            }
                        ]
                    }
                ],
                "subject": {
                    "reference": "Patient/2745d583-e3d1-3f88-8b21-7b59adb60779"
                }
            },
            "request": {
                "method": "PUT",
                "url": "Observation/5a74fd95-c6ef-3257-9c71-fcf2835b5eb0"
            }
        },
        {
            "fullUrl": "urn:uuid:b888d6af-c786-380e-8368-feb3719a596e",
            "resource": {
                "resourceType": "Observation",
                "meta": {
                    "profile": [
                        "http://hl7.org/fhir/us/core/StructureDefinition/us-core-observationresults"
                    ]
                },
                "id": "b888d6af-c786-380e-8368-feb3719a596e",
                "identifier": [
                    {
                        "system": "urn:ietf:rfc:3986",
                        "value": "urn:uuid:1c2748b7-e440-41ba-bc01-dde97d84a036"
                    }
                ],
                "category": [
                    {
                        "coding": [
                            {
                                "system": "http://terminology.hl7.org/CodeSystem/observation-category",
                                "code": "vital-signs"
                            }
                        ]
                    }
                ],
                "status": "final",
                "code": {
                    "coding": [
                        {
                            "code": "8462-4",
                            "display": "BP Diastolic",
                            "system": "http://loinc.org"
                        }
                    ]
                },
                "effectiveDateTime": "2012-09-10",
                "valueQuantity": {
                    "value": 88,
                    "unit": "mm[Hg]"
                },
                "interpretation": [
                    {
                        "coding": [
                            {
                                "code": "N",
                                "system": "http://terminology.hl7.org/CodeSystem/v3-ObservationInterpretation"
                            }
                        ]
                    }
                ],
                "subject": {
                    "reference": "Patient/2745d583-e3d1-3f88-8b21-7b59adb60779"
                }
            },
            "request": {
                "method": "PUT",
                "url": "Observation/b888d6af-c786-380e-8368-feb3719a596e"
            }
        },
        {
            "fullUrl": "urn:uuid:23851cce-28a3-3dd4-8c28-4917d8cdfd07",
            "resource": {
                "resourceType": "Observation",
                "meta": {
                    "profile": [
                        "http://hl7.org/fhir/us/core/StructureDefinition/us-core-observationresults"
                    ]
                },
                "id": "23851cce-28a3-3dd4-8c28-4917d8cdfd07",
                "identifier": [
                    {
                        "system": "urn:ietf:rfc:3986",
                        "value": "urn:uuid:05c047cd-28c3-41cd-be6c-56f8cc0c3f2f"
                    }
                ],
                "category": [
                    {
                        "coding": [
                            {
                                "system": "http://terminology.hl7.org/CodeSystem/observation-category",
                                "code": "vital-signs"
                            }
                        ]
                    }
                ],
                "status": "final",
                "code": {
                    "coding": [
                        {
                            "code": "8302-2",
                            "display": "Height",
                            "system": "http://loinc.org"
                        }
                    ]
                },
                "effectiveDateTime": "2011-09-01",
                "valueQuantity": {
                    "value": 177,
                    "unit": "cm"
                },
                "interpretation": [
                    {
                        "coding": [
                            {
                                "code": "N",
                                "system": "http://terminology.hl7.org/CodeSystem/v3-ObservationInterpretation"
                            }
                        ]
                    }
                ],
                "subject": {
                    "reference": "Patient/2745d583-e3d1-3f88-8b21-7b59adb60779"
                }
            },
            "request": {
                "method": "PUT",
                "url": "Observation/23851cce-28a3-3dd4-8c28-4917d8cdfd07"
            }
        },
        {
            "fullUrl": "urn:uuid:7bcb5a43-2246-3107-a7e1-2bf9dc7e9928",
            "resource": {
                "resourceType": "Observation",
                "meta": {
                    "profile": [
                        "http://hl7.org/fhir/us/core/StructureDefinition/us-core-observationresults"
                    ]
                },
                "id": "7bcb5a43-2246-3107-a7e1-2bf9dc7e9928",
                "identifier": [
                    {
                        "system": "urn:ietf:rfc:3986",
                        "value": "urn:uuid:21b0f3d5-7d07-4f4f-ad7e-c33dc2ca3835"
                    }
                ],
                "category": [
                    {
                        "coding": [
                            {
                                "system": "http://terminology.hl7.org/CodeSystem/observation-category",
                                "code": "vital-signs"
                            }
                        ]
                    }
                ],
                "status": "final",
                "code": {
                    "coding": [
                        {
                            "code": "3141-9",
                            "display": "Patient Body Weight - Measured",
                            "system": "http://loinc.org"
                        }
                    ]
                },
                "effectiveDateTime": "2011-09-01",
                "valueQuantity": {
                    "value": 88,
                    "unit": "kg"
                },
                "interpretation": [
                    {
                        "coding": [
                            {
                                "code": "N",
                                "system": "http://terminology.hl7.org/CodeSystem/v3-ObservationInterpretation"
                            }
                        ]
                    }
                ],
                "subject": {
                    "reference": "Patient/2745d583-e3d1-3f88-8b21-7b59adb60779"
                }
            },
            "request": {
                "method": "PUT",
                "url": "Observation/7bcb5a43-2246-3107-a7e1-2bf9dc7e9928"
            }
        },
        {
            "fullUrl": "urn:uuid:eb53bd93-b10b-3a9c-9853-09cbe363ca65",
            "resource": {
                "resourceType": "Observation",
                "meta": {
                    "profile": [
                        "http://hl7.org/fhir/us/core/StructureDefinition/us-core-observationresults"
                    ]
                },
                "id": "eb53bd93-b10b-3a9c-9853-09cbe363ca65",
                "identifier": [
                    {
                        "system": "urn:ietf:rfc:3986",
                        "value": "urn:uuid:b046c35a-59c7-4215-ae09-9a8409a30b21"
                    }
                ],
                "category": [
                    {
                        "coding": [
                            {
                                "system": "http://terminology.hl7.org/CodeSystem/observation-category",
                                "code": "vital-signs"
                            }
                        ]
                    }
                ],
                "status": "final",
                "code": {
                    "coding": [
                        {
                            "code": "8480-6",
                            "display": "BP Systolic",
                            "system": "http://loinc.org"
                        }
                    ]
                },
                "effectiveDateTime": "2011-09-01",
                "valueQuantity": {
                    "value": 128,
                    "unit": "mm[Hg]"
                },
                "interpretation": [
                    {
                        "coding": [
                            {
                                "code": "N",
                                "system": "http://terminology.hl7.org/CodeSystem/v3-ObservationInterpretation"
                            }
                        ]
                    }
                ],
                "subject": {
                    "reference": "Patient/2745d583-e3d1-3f88-8b21-7b59adb60779"
                }
            },
            "request": {
                "method": "PUT",
                "url": "Observation/eb53bd93-b10b-3a9c-9853-09cbe363ca65"
            }
        },
        {
            "fullUrl": "urn:uuid:bf7a9d31-0918-3321-9512-15ce4baf1285",
            "resource": {
                "resourceType": "Observation",
                "meta": {
                    "profile": [
                        "http://hl7.org/fhir/us/core/StructureDefinition/us-core-observationresults"
                    ]
                },
                "id": "bf7a9d31-0918-3321-9512-15ce4baf1285",
                "identifier": [
                    {
                        "system": "urn:ietf:rfc:3986",
                        "value": "urn:uuid:44f54e66-fb4b-4ee5-9ced-9574ef307a23"
                    }
                ],
                "category": [
                    {
                        "coding": [
                            {
                                "system": "http://terminology.hl7.org/CodeSystem/observation-category",
                                "code": "vital-signs"
                            }
                        ]
                    }
                ],
                "status": "final",
                "code": {
                    "coding": [
                        {
                            "code": "8462-4",
                            "display": "BP Diastolic",
                            "system": "http://loinc.org"
                        }
                    ]
                },
                "effectiveDateTime": "2011-09-01",
                "valueQuantity": {
                    "value": 80,
                    "unit": "mm[Hg]"
                },
                "interpretation": [
                    {
                        "coding": [
                            {
                                "code": "N",
                                "system": "http://terminology.hl7.org/CodeSystem/v3-ObservationInterpretation"
                            }
                        ]
                    }
                ],
                "subject": {
                    "reference": "Patient/2745d583-e3d1-3f88-8b21-7b59adb60779"
                }
            },
            "request": {
                "method": "PUT",
                "url": "Observation/bf7a9d31-0918-3321-9512-15ce4baf1285"
            }
        },
        {
            "fullUrl": "urn:uuid:9b03ba69-a9f0-3668-8fbd-27c6dbbd049b",
            "resource": {
                "resourceType": "Procedure",
                "meta": {
                    "profile": [
                        "http://hl7.org/fhir/us/core/StructureDefinition/us-core-procedure"
                    ]
                },
                "id": "9b03ba69-a9f0-3668-8fbd-27c6dbbd049b",
                "identifier": [
                    {
                        "system": "urn:ietf:rfc:3986",
                        "value": "urn:uuid:d68b7e32-7810-4f5b-9cc2-acd54b0fd85d"
                    }
                ],
                "status": "completed",
                "code": {
                    "coding": [
                        {
                            "code": "274025005",
                            "display": "Colonic polypectomy",
                            "system": "http://snomed.info/sct"
                        }
                    ]
                },
                "performedDateTime": "2011-02-15",
                "subject": {
                    "reference": "Patient/2745d583-e3d1-3f88-8b21-7b59adb60779"
                },
                "performer": [
                    {
                        "actor": {
                            "reference": "Organization/d75ea4ed-14c0-3fc1-9f9c-3bfb7041870c"
                        }
                    }
                ]
            },
            "request": {
                "method": "PUT",
                "url": "Procedure/9b03ba69-a9f0-3668-8fbd-27c6dbbd049b"
            }
        },
        {
            "fullUrl": "urn:uuid:d75ea4ed-14c0-3fc1-9f9c-3bfb7041870c",
            "resource": {
                "resourceType": "Organization",
                "id": "d75ea4ed-14c0-3fc1-9f9c-3bfb7041870c",
                "identifier": [
                    {
                        "system": "urn:ietf:rfc:3986",
                        "value": "urn:uuid:c2ee9ee9-ae31-4628-a919-fec1cbb58686"
                    }
                ],
                "name": "Good Health Clinic",
                "address": [
                    {
                        "line": [
                            "17 Daws Rd."
                        ],
                        "city": "Blue Bell",
                        "state": "MA",
                        "country": "US",
                        "postalCode": "02368"
                    }
                ]
            },
            "request": {
                "method": "PUT",
                "url": "Organization/d75ea4ed-14c0-3fc1-9f9c-3bfb7041870c"
            }
        },
        {
            "fullUrl": "urn:uuid:b4033326-5c3a-3609-851c-149cf6fd26e7",
            "resource": {
                "resourceType": "Observation",
                "meta": {
                    "profile": [
                        "http://hl7.org/fhir/us/core/StructureDefinition/us-core-observationresults"
                    ]
                },
                "id": "b4033326-5c3a-3609-851c-149cf6fd26e7",
                "identifier": [
                    {
                        "system": "urn:oid:2.16.840.1.113883.19",
                        "value": "123456789"
                    }
                ],
                "category": [
                    {
                        "coding": [
                            {
                                "system": "http://terminology.hl7.org/CodeSystem/observation-category",
                                "code": "procedure"
                            }
                        ]
                    }
                ],
                "status": "unknown",
                "code": {
                    "coding": [
                        {
                            "code": "274025005",
                            "display": "Colonic polypectomy",
                            "system": "http://snomed.info/sct"
                        }
                    ]
                },
                "effectiveDateTime": "2011-02-03",
                "bodySite": {
                    "coding": [
                        {
                            "code": "416949008",
                            "display": "Abdomen and pelvis",
                            "system": "http://snomed.info/sct"
                        }
                    ]
                },
                "subject": {
                    "reference": "Patient/2745d583-e3d1-3f88-8b21-7b59adb60779"
                }
            },
            "request": {
                "method": "PUT",
                "url": "Observation/b4033326-5c3a-3609-851c-149cf6fd26e7"
            }
        },
        {
            "fullUrl": "urn:uuid:03fa485e-00c0-3c04-b396-4c30a879d4b5",
            "resource": {
                "resourceType": "Encounter",
                "id": "03fa485e-00c0-3c04-b396-4c30a879d4b5",
                "status": "unknown",
                "class": {
                    "code": "AMB",
                    "display": "Ambulatory",
                    "system": "urn:oid:2.16.840.1.113883.5.4"
                },
                "type": [
                    {
                        "coding": [
                            {
                                "code": "99241",
                                "display": "Office consultation - 15 minutes",
                                "system": "urn:oid:2.16.840.1.113883.6.12"
                            }
                        ]
                    }
                ],
                "identifier": [
                    {
                        "system": "urn:ietf:rfc:3986",
                        "value": "urn:uuid:2a620155-9d11-439e-92b3-5d9815ff4de8"
                    }
                ],
                "subject": {
                    "reference": "Patient/2745d583-e3d1-3f88-8b21-7b59adb60779"
                },
                "participant": [
                    {
                        "individual": {
                            "reference": "Practitioner/undefined"
                        }
                    }
                ],
                "location": [
                    {
                        "location": {
                            "reference": "Location/2cee07b7-74d4-3c85-83f7-de7053755816"
                        }
                    }
                ]
            },
            "request": {
                "method": "PUT",
                "url": "Encounter/03fa485e-00c0-3c04-b396-4c30a879d4b5"
            }
        },
        {
            "fullUrl": "urn:uuid:",
            "resource": {
                "resourceType": "Practitioner",
                "meta": {
                    "profile": [
                        "http://hl7.org/fhir/us/core/StructureDefinition/us-core-practitioner"
                    ]
                },
                "name": [
                    {
                        "family": "Assigned",
                        "given": [
                            "Amanda"
                        ]
                    }
                ],
                "address": [
                    {
                        "line": [
                            "102 Health Drive"
                        ],
                        "city": "Ann Arbor",
                        "state": "MI",
                        "country": "US",
                        "postalCode": "99099"
                    }
                ],
                "qualification": [
                    {
                        "code": {
                            "coding": [
                                {
                                    "code": "59058001",
                                    "display": "General Physician",
                                    "system": "http://snomed.info/sct"
                                }
                            ]
                        }
                    }
                ]
            },
            "request": {
                "method": "PUT",
                "url": "Practitioner/"
            }
        },
        {
            "fullUrl": "urn:uuid:2cee07b7-74d4-3c85-83f7-de7053755816",
            "resource": {
                "resourceType": "Location",
                "id": "2cee07b7-74d4-3c85-83f7-de7053755816",
                "name": "Good Health Clinic",
                "address": {
                    "line": [
                        "17 Daws Rd."
                    ],
                    "city": "Blue Bell",
                    "state": "MA",
                    "country": "US",
                    "postalCode": "02368"
                },
                "type": [
                    {
                        "coding": [
                            {
                                "code": "1060-3",
                                "display": "Inpatient medical ward",
                                "system": "urn:oid:2.16.840.1.113883.6.259"
                            }
                        ]
                    }
                ]
            },
            "request": {
                "method": "PUT",
                "url": "Location/2cee07b7-74d4-3c85-83f7-de7053755816"
            }
        },
        {
            "fullUrl": "urn:uuid:60bbd22d-4122-3201-a007-aca16d947015",
            "resource": {
                "resourceType": "Immunization",
                "id": "60bbd22d-4122-3201-a007-aca16d947015",
                "identifier": [
                    {
                        "system": "urn:ietf:rfc:3986",
                        "value": "urn:uuid:e6f1ba43-c0ed-4b9b-9f12-f435d8ad8f92"
                    }
                ],
                "occurrenceDateTime": "1999-11",
                "vaccineCode": {
                    "coding": [
                        {
                            "code": "88",
                            "display": "Influenza virus vaccine",
                            "system": "http://hl7.org/fhir/sid/cvx"
                        }
                    ]
                },
                "status": "completed",
                "route": {
                    "coding": [
                        {
                            "code": "C28161",
                            "display": "Intramuscular injection",
                            "system": "urn:oid:2.16.840.1.113883.3.26.1.1"
                        }
                    ]
                },
                "patient": {
                    "reference": "Patient/2745d583-e3d1-3f88-8b21-7b59adb60779"
                }
            },
            "request": {
                "method": "PUT",
                "url": "Immunization/60bbd22d-4122-3201-a007-aca16d947015"
            }
        },
        {
            "fullUrl": "urn:uuid:1da8828a-fbaa-3bcd-9156-58b4b7084909",
            "resource": {
                "resourceType": "Immunization",
                "id": "1da8828a-fbaa-3bcd-9156-58b4b7084909",
                "identifier": [
                    {
                        "system": "urn:ietf:rfc:3986",
                        "value": "urn:uuid:e6f1ba43-c0ed-4b9b-9f12-f435d8ad8f92"
                    }
                ],
                "occurrenceDateTime": "1998-12-15",
                "vaccineCode": {
                    "coding": [
                        {
                            "code": "88",
                            "display": "Influenza virus vaccine",
                            "system": "http://hl7.org/fhir/sid/cvx"
                        }
                    ]
                },
                "status": "completed",
                "route": {
                    "coding": [
                        {
                            "code": "C28161",
                            "display": "Intramuscular injection",
                            "system": "urn:oid:2.16.840.1.113883.3.26.1.1"
                        }
                    ]
                },
                "patient": {
                    "reference": "Patient/2745d583-e3d1-3f88-8b21-7b59adb60779"
                }
            },
            "request": {
                "method": "PUT",
                "url": "Immunization/1da8828a-fbaa-3bcd-9156-58b4b7084909"
            }
        },
        {
            "fullUrl": "urn:uuid:b38af891-373a-38d6-b2aa-a4bfb52f9947",
            "resource": {
                "resourceType": "Immunization",
                "id": "b38af891-373a-38d6-b2aa-a4bfb52f9947",
                "identifier": [
                    {
                        "system": "urn:ietf:rfc:3986",
                        "value": "urn:uuid:e6f1ba43-c0ed-4b9b-9f12-f435d8ad8f92"
                    }
                ],
                "occurrenceDateTime": "1998-12-15",
                "vaccineCode": {
                    "coding": [
                        {
                            "code": "33",
                            "display": "Pneumococcal polysaccharide vaccine",
                            "system": "http://hl7.org/fhir/sid/cvx"
                        }
                    ]
                },
                "status": "completed",
                "route": {
                    "coding": [
                        {
                            "code": "C28161",
                            "display": "Intramuscular injection",
                            "system": "urn:oid:2.16.840.1.113883.3.26.1.1"
                        }
                    ]
                },
                "patient": {
                    "reference": "Patient/2745d583-e3d1-3f88-8b21-7b59adb60779"
                }
            },
            "request": {
                "method": "PUT",
                "url": "Immunization/b38af891-373a-38d6-b2aa-a4bfb52f9947"
            }
        },
        {
            "fullUrl": "urn:uuid:47627e71-ba37-3b82-b7a6-694aae29af01",
            "resource": {
                "resourceType": "Immunization",
                "id": "47627e71-ba37-3b82-b7a6-694aae29af01",
                "identifier": [
                    {
                        "system": "urn:ietf:rfc:3986",
                        "value": "urn:uuid:e6f1ba43-c0ed-4b9b-9f12-f435d8ad8f92"
                    }
                ],
                "statusReason": {
                    "coding": [
                        {
                            "code": "PATOBJ",
                            "display": "Patient Objection",
                            "system": "urn:oid:2.16.840.1.113883.5.8"
                        }
                    ]
                },
                "occurrenceDateTime": "1998-12-15",
                "vaccineCode": {
                    "coding": [
                        {
                            "code": "103",
                            "display": "Tetanus and diphtheria toxoids - preservative free",
                            "system": "http://hl7.org/fhir/sid/cvx"
                        }
                    ]
                },
                "status": "completed",
                "route": {
                    "coding": [
                        {
                            "code": "C28161",
                            "display": "Intramuscular injection",
                            "system": "urn:oid:2.16.840.1.113883.3.26.1.1"
                        }
                    ]
                },
                "patient": {
                    "reference": "Patient/2745d583-e3d1-3f88-8b21-7b59adb60779"
                }
            },
            "request": {
                "method": "PUT",
                "url": "Immunization/47627e71-ba37-3b82-b7a6-694aae29af01"
            }
        },
        {
            "fullUrl": "urn:uuid:4ad2db55-e732-3173-8b74-03139859afbe",
            "resource": {
                "resourceType": "Immunization",
                "id": "4ad2db55-e732-3173-8b74-03139859afbe",
                "identifier": [
                    {
                        "system": "urn:ietf:rfc:3986",
                        "value": "urn:uuid:de10790f-1496-4719-8fe6-f1b87b6219f7"
                    }
                ],
                "occurrenceDateTime": "2013-08-01",
                "vaccineCode": {
                    "coding": [
                        {
                            "code": "45",
                            "display": "Hepatitis B vaccine",
                            "system": "http://hl7.org/fhir/sid/cvx"
                        }
                    ]
                },
                "status": "completed",
                "route": {
                    "coding": [
                        {
                            "code": "C28161",
                            "display": "Intramuscular injection",
                            "system": "urn:oid:2.16.840.1.113883.3.26.1.1"
                        }
                    ]
                },
                "patient": {
                    "reference": "Patient/2745d583-e3d1-3f88-8b21-7b59adb60779"
                }
            },
            "request": {
                "method": "PUT",
                "url": "Immunization/4ad2db55-e732-3173-8b74-03139859afbe"
            }
        },
        {
            "fullUrl": "urn:uuid:8eb197bc-3489-3a21-ba5a-997b786fbf51",
            "resource": {
                "resourceType": "FamilyMemberHistory",
                "id": "8eb197bc-3489-3a21-ba5a-997b786fbf51",
                "identifier": [
                    {
                        "system": "urn:ietf:rfc:3986",
                        "value": "urn:uuid:d42ebf70-5c89-11db-b0de-0855200c9a66"
                    }
                ],
                "status": "completed",
                "relationship": {
                    "coding": [
                        {
                            "code": "9947008",
                            "display": "Biological father",
                            "system": "http://snomed.info/sct"
                        }
                    ]
                },
                "sex": {
                    "coding": [
                        {
                            "code": "M",
                            "display": "Male",
                            "system": "urn:oid:2.16.840.1.113883.1.11.1"
                        }
                    ]
                },
                "bornString": "1910",
                "condition": [
                    {
                        "code": {
                            "coding": [
                                {
                                    "code": "22298006",
                                    "display": "Myocardial infarction",
                                    "system": "http://snomed.info/sct"
                                }
                            ]
                        },
                        "contributedToDeath": true,
                        "onsetAge": {
                            "value": 57,
                            "system": "http://unitsofmeasure.org",
                            "code": "a"
                        }
                    },
                    {
                        "code": {
                            "coding": [
                                {
                                    "code": "44054006",
                                    "display": "Diabetes mellitus type 2",
                                    "system": "http://snomed.info/sct"
                                }
                            ]
                        },
                        "onsetAge": {
                            "value": 40,
                            "system": "http://unitsofmeasure.org",
                            "code": "a"
                        }
                    }
                ],
                "patient": {
                    "reference": "Patient/2745d583-e3d1-3f88-8b21-7b59adb60779"
                }
            },
            "request": {
                "method": "PUT",
                "url": "FamilyMemberHistory/8eb197bc-3489-3a21-ba5a-997b786fbf51"
            }
        },
        {
            "fullUrl": "urn:uuid:61f7bb74-8bd9-3fef-a734-5d9c01a1c39b",
            "resource": {
                "resourceType": "Consent",
                "id": "61f7bb74-8bd9-3fef-a734-5d9c01a1c39b",
                "identifier": [
                    {
                        "system": "urn:ietf:rfc:3986",
                        "value": "urn:uuid:af6ebdf2-d996-11e2-a5b8-f23c91aec05e"
                    }
                ],
                "status": "active",
                "scope": {
                    "coding": [
                        {
                            "system": "http://terminology.hl7.org/CodeSystem/consentscope",
                            "code": "adr"
                        }
                    ]
                },
                "category": [
                    {
                        "coding": [
                            {
                                "code": "45473-6",
                                "system": "http://loinc.org"
                            }
                        ]
                    }
                ],
                "dateTime": "2011-02-19",
                "provision": {
                    "code": [
                        {
                            "coding": [
                                {
                                    "code": "304253006",
                                    "display": "Do not resuscitate",
                                    "system": "http://snomed.info/sct"
                                }
                            ]
                        }
                    ]
                },
                "patient": {
                    "reference": "Patient/2745d583-e3d1-3f88-8b21-7b59adb60779"
                },
                "sourceReference": {
                    "reference": "DocumentReference/0913b609-6f9b-3d6b-9a1c-8e69fb9414f6"
                },
                "performer": [
                    {
                        "reference": "Practitioner/4533ef76-e935-3802-8cb7-6a076afafc08"
                    }
                ]
            },
            "request": {
                "method": "PUT",
                "url": "Consent/61f7bb74-8bd9-3fef-a734-5d9c01a1c39b"
            }
        },
        {
            "fullUrl": "urn:uuid:0913b609-6f9b-3d6b-9a1c-8e69fb9414f6",
            "resource": {
                "resourceType": "DocumentReference",
                "id": "0913b609-6f9b-3d6b-9a1c-8e69fb9414f6",
                "status": "current",
                "content": [
                    {
                        "attachment": {
                            "contentType": "application/pdf",
                            "url": "AdvanceDirective.b50b7910.pdf"
                        }
                    }
                ]
            },
            "request": {
                "method": "PUT",
                "url": "DocumentReference/0913b609-6f9b-3d6b-9a1c-8e69fb9414f6"
            }
        },
        {
            "fullUrl": "urn:uuid:4533ef76-e935-3802-8cb7-6a076afafc08",
            "resource": {
                "resourceType": "Practitioner",
                "meta": {
                    "profile": [
                        "http://hl7.org/fhir/us/core/StructureDefinition/us-core-practitioner"
                    ]
                },
                "id": "4533ef76-e935-3802-8cb7-6a076afafc08",
                "identifier": [
                    {
                        "system": "urn:ietf:rfc:3986",
                        "value": "urn:uuid:20cf14fb-b65c-4c8c-a54d-b0cca834c18c"
                    }
                ],
                "name": [
                    {
                        "family": "Nightingale",
                        "given": [
                            "Nurse"
                        ],
                        "suffix": [
                            "RN"
                        ]
                    }
                ],
                "qualification": [
                    {
                        "code": {
                            "coding": [
                                {
                                    "code": "163W00000X",
                                    "display": "Registered nurse",
                                    "system": "http://nucc.org/provider-taxonomy"
                                }
                            ]
                        }
                    }
                ]
            },
            "request": {
                "method": "PUT",
                "url": "Practitioner/4533ef76-e935-3802-8cb7-6a076afafc08"
            }
        },
        {
            "fullUrl": "urn:uuid:706ccc3d-c0a0-3533-9f7e-b1571c63ede2",
            "resource": {
                "resourceType": "Device",
                "id": "706ccc3d-c0a0-3533-9f7e-b1571c63ede2",
                "identifier": [
                    {
                        "system": "urn:ietf:rfc:3986",
                        "value": "urn:uuid:3e414708-0e61-4d48-8863-484a2d473a02"
                    }
                ],
                "type": {
                    "coding": [
                        {
                            "code": "40388003",
                            "display": "Implant",
                            "system": "http://snomed.info/sct"
                        }
                    ]
                }
            },
            "request": {
                "method": "PUT",
                "url": "Device/706ccc3d-c0a0-3533-9f7e-b1571c63ede2"
            }
        },
        {
            "fullUrl": "urn:uuid:7616e8d0-7adc-3d70-8d91-a8de1cf5c60b",
            "resource": {
                "resourceType": "Device",
                "id": "7616e8d0-7adc-3d70-8d91-a8de1cf5c60b",
                "identifier": [
                    {
                        "system": "urn:ietf:rfc:3986",
                        "value": "urn:uuid:39b5f1b4-a8e1-4ad7-8849-0deab10c97b1"
                    }
                ],
                "type": {
                    "coding": [
                        {
                            "code": "14106009",
                            "display": "cardiac pacemaker, device (physical object)",
                            "system": "http://snomed.info/sct"
                        }
                    ]
                },
                "manufacturer": "Good Health Durable Medical Equipment"
            },
            "request": {
                "method": "PUT",
                "url": "Device/7616e8d0-7adc-3d70-8d91-a8de1cf5c60b"
            }
        },
        {
            "fullUrl": "urn:uuid:16dbbbbb-6d53-376c-ae74-cec0e0c98be9",
            "resource": {
                "resourceType": "Device",
                "id": "16dbbbbb-6d53-376c-ae74-cec0e0c98be9",
                "identifier": [
                    {
                        "system": "urn:ietf:rfc:3986",
                        "value": "urn:uuid:39b5f1b4-a8e1-4ad7-8849-0deab10c97b1"
                    }
                ],
                "type": {
                    "coding": [
                        {
                            "code": "303406003",
                            "display": "upper gastrointestinal prosthesis (physical object)",
                            "system": "http://snomed.info/sct"
                        }
                    ]
                },
                "manufacturer": "Good Health Durable Medical Equipment"
            },
            "request": {
                "method": "PUT",
                "url": "Device/16dbbbbb-6d53-376c-ae74-cec0e0c98be9"
            }
        },
        {
            "fullUrl": "urn:uuid:f5c08613-b1b3-36b3-8e09-1dee059c5678",
            "resource": {
                "resourceType": "Device",
                "id": "f5c08613-b1b3-36b3-8e09-1dee059c5678",
                "identifier": [
                    {
                        "system": "urn:ietf:rfc:3986",
                        "value": "urn:uuid:cf75f5be-1da0-4256-8276-94b7fc73f9f9"
                    }
                ],
                "type": {
                    "coding": [
                        {
                            "code": "87405001",
                            "display": "cane",
                            "system": "http://snomed.info/sct"
                        }
                    ]
                },
                "manufacturer": "Good Health Durable Medical Equipment"
            },
            "request": {
                "method": "PUT",
                "url": "Device/f5c08613-b1b3-36b3-8e09-1dee059c5678"
            }
        },
        {
            "fullUrl": "urn:uuid:93071ead-008e-35d1-bd15-02ce06afff13",
            "resource": {
                "resourceType": "Procedure",
                "meta": {
                    "profile": [
                        "http://hl7.org/fhir/us/core/StructureDefinition/us-core-procedure"
                    ]
                },
                "id": "93071ead-008e-35d1-bd15-02ce06afff13",
                "identifier": [
                    {
                        "system": "urn:ietf:rfc:3986",
                        "value": "urn:uuid:d5b614bd-01ce-410d-8726-e1fd01dcc72a"
                    }
                ],
                "status": "completed",
                "code": {
                    "coding": [
                        {
                            "code": "103716009",
                            "display": "Stent Placement",
                            "system": "http://snomed.info/sct"
                        }
                    ]
                },
                "performedDateTime": "2013-05-12",
                "bodySite": [
                    {
                        "coding": [
                            {
                                "code": "28273000",
                                "display": "bile duct",
                                "system": "http://snomed.info/sct"
                            }
                        ]
                    }
                ],
                "subject": {
                    "reference": "Patient/2745d583-e3d1-3f88-8b21-7b59adb60779"
                },
                "performer": [
                    {
                        "actor": {
                            "reference": "Organization/8d8751fd-3baa-3525-a506-7464ec4687f4"
                        }
                    }
                ]
            },
            "request": {
                "method": "PUT",
                "url": "Procedure/93071ead-008e-35d1-bd15-02ce06afff13"
            }
        },
        {
            "fullUrl": "urn:uuid:8d8751fd-3baa-3525-a506-7464ec4687f4",
            "resource": {
                "resourceType": "Organization",
                "id": "8d8751fd-3baa-3525-a506-7464ec4687f4",
                "identifier": [
                    {
                        "system": "urn:ietf:rfc:3986",
                        "value": "urn:uuid:2.16.840.1.113883.19.5"
                    }
                ],
                "name": "Community Health and Hospitals",
                "address": [
                    {
                        "line": [
                            "1003 Health Care Drive"
                        ],
                        "city": "Ann Arbor",
                        "state": "MI",
                        "country": "US",
                        "postalCode": "02368"
                    }
                ],
                "telecom": [
                    {
                        "system": "phone",
                        "value": "+1(555)-555-5005",
                        "use": "work"
                    }
                ]
            },
            "request": {
                "method": "PUT",
                "url": "Organization/8d8751fd-3baa-3525-a506-7464ec4687f4"
            }
        },
        {
            "fullUrl": "urn:uuid:5ba91e07-1ddb-39c2-8765-dc3b3996502a",
            "resource": {
                "resourceType": "Observation",
                "meta": {
                    "profile": [
                        "http://hl7.org/fhir/us/core/StructureDefinition/us-core-observationresults"
                    ]
                },
                "id": "5ba91e07-1ddb-39c2-8765-dc3b3996502a",
                "identifier": [
                    {
                        "system": "urn:ietf:rfc:3986",
                        "value": "urn:uuid:c12ecaaf-53f8-4593-8f79-359aeaa3948b"
                    }
                ],
                "status": "final",
                "code": {
                    "coding": [
                        {
                            "code": "75275-8",
                            "display": "Cognitive function",
                            "system": "http://loinc.org"
                        }
                    ]
                },
                "effectiveDateTime": "2013-03-11",
                "valueCodeableConcept": {
                    "coding": [
                        {
                            "code": "11163003",
                            "display": "Intact",
                            "system": "http://snomed.info/sct"
                        }
                    ]
                },
                "subject": {
                    "reference": "Patient/2745d583-e3d1-3f88-8b21-7b59adb60779"
                },
                "performer": [
                    {
                        "reference": "Practitioner/d276aed6-83a7-313b-b45b-d59f2aafe9ad"
                    }
                ]
            },
            "request": {
                "method": "PUT",
                "url": "Observation/5ba91e07-1ddb-39c2-8765-dc3b3996502a"
            }
        },
        {
            "fullUrl": "urn:uuid:d276aed6-83a7-313b-b45b-d59f2aafe9ad",
            "resource": {
                "resourceType": "Practitioner",
                "meta": {
                    "profile": [
                        "http://hl7.org/fhir/us/core/StructureDefinition/us-core-practitioner"
                    ]
                },
                "id": "d276aed6-83a7-313b-b45b-d59f2aafe9ad",
                "identifier": [
                    {
                        "system": "urn:oid:2.16.840.1.113883.19.5",
                        "value": "KP00017"
                    }
                ],
                "name": [
                    {
                        "family": "Amanda",
                        "given": [
                            "Assigned"
                        ]
                    }
                ],
                "address": [
                    {
                        "line": [
                            "1003 Health Care Drive"
                        ],
                        "city": "Ann Arbor",
                        "state": "MI",
                        "country": "US",
                        "postalCode": "02368"
                    }
                ],
                "telecom": [
                    {
                        "system": "phone",
                        "value": "+1(555)555-1003",
                        "use": "work"
                    }
                ]
            },
            "request": {
                "method": "PUT",
                "url": "Practitioner/d276aed6-83a7-313b-b45b-d59f2aafe9ad"
            }
        },
        {
            "fullUrl": "urn:uuid:eea4d885-96e6-3d2e-9c9e-9d5b29754eea",
            "resource": {
                "resourceType": "Observation",
                "meta": {
                    "profile": [
                        "http://hl7.org/fhir/us/core/StructureDefinition/us-core-observationresults"
                    ]
                },
                "id": "eea4d885-96e6-3d2e-9c9e-9d5b29754eea",
                "identifier": [
                    {
                        "system": "urn:ietf:rfc:3986",
                        "value": "urn:uuid:c6b5a04b-2bf4-49d1-8336-636a3813df0a"
                    }
                ],
                "status": "final",
                "code": {
                    "coding": [
                        {
                            "code": "75275-8",
                            "display": "Cognitive function",
                            "system": "http://loinc.org"
                        }
                    ]
                },
                "effectiveDateTime": "2013-03-11",
                "valueCodeableConcept": {
                    "coding": [
                        {
                            "code": "61372001",
                            "display": "Aggressive behavior",
                            "system": "http://snomed.info/sct"
                        }
                    ]
                },
                "subject": {
                    "reference": "Patient/2745d583-e3d1-3f88-8b21-7b59adb60779"
                },
                "performer": [
                    {
                        "reference": "Practitioner/d276aed6-83a7-313b-b45b-d59f2aafe9ad"
                    }
                ]
            },
            "request": {
                "method": "PUT",
                "url": "Observation/eea4d885-96e6-3d2e-9c9e-9d5b29754eea"
            }
        },
        {
            "fullUrl": "urn:uuid:769fec4f-6551-39e5-aa9b-f7bce8f7a83d",
            "resource": {
                "resourceType": "Observation",
                "meta": {
                    "profile": [
                        "http://hl7.org/fhir/us/core/StructureDefinition/us-core-observationresults"
                    ]
                },
                "id": "769fec4f-6551-39e5-aa9b-f7bce8f7a83d",
                "identifier": [
                    {
                        "system": "urn:ietf:rfc:3986",
                        "value": "urn:uuid:c6b5a04b-2bf4-49d1-8336-636a3813df0a"
                    }
                ],
                "status": "final",
                "code": {
                    "coding": [
                        {
                            "code": "75275-8",
                            "display": "Cognitive function",
                            "system": "http://loinc.org"
                        }
                    ]
                },
                "effectiveDateTime": "2013-03-11",
                "valueCodeableConcept": {
                    "coding": [
                        {
                            "code": "286569004",
                            "display": "difficulty understanding own emotions",
                            "system": "http://snomed.info/sct"
                        }
                    ]
                },
                "subject": {
                    "reference": "Patient/2745d583-e3d1-3f88-8b21-7b59adb60779"
                },
                "performer": [
                    {
                        "reference": "Practitioner/d276aed6-83a7-313b-b45b-d59f2aafe9ad"
                    }
                ]
            },
            "request": {
                "method": "PUT",
                "url": "Observation/769fec4f-6551-39e5-aa9b-f7bce8f7a83d"
            }
        },
        {
            "fullUrl": "urn:uuid:0a13e8e0-008f-3d52-b865-490bd50345ae",
            "resource": {
                "resourceType": "Observation",
                "meta": {
                    "profile": [
                        "http://hl7.org/fhir/us/core/StructureDefinition/us-core-observationresults"
                    ]
                },
                "id": "0a13e8e0-008f-3d52-b865-490bd50345ae",
                "identifier": [
                    {
                        "system": "urn:ietf:rfc:3986",
                        "value": "urn:uuid:c6b5a04b-2bf4-49d1-8336-636a3813df0a"
                    }
                ],
                "status": "final",
                "code": {
                    "coding": [
                        {
                            "code": "75275-8",
                            "display": "Cognitive function",
                            "system": "http://loinc.org"
                        }
                    ]
                },
                "effectiveDateTime": "2013-03-11",
                "valueCodeableConcept": {
                    "coding": [
                        {
                            "code": "288760009",
                            "display": "difficulty communicating thoughts",
                            "system": "http://snomed.info/sct"
                        }
                    ]
                },
                "subject": {
                    "reference": "Patient/2745d583-e3d1-3f88-8b21-7b59adb60779"
                },
                "performer": [
                    {
                        "reference": "Practitioner/d276aed6-83a7-313b-b45b-d59f2aafe9ad"
                    }
                ]
            },
            "request": {
                "method": "PUT",
                "url": "Observation/0a13e8e0-008f-3d52-b865-490bd50345ae"
            }
        },
        {
            "fullUrl": "urn:uuid:ca141695-b2d7-3ca0-a86d-20780f710424",
            "resource": {
                "resourceType": "Observation",
                "meta": {
                    "profile": [
                        "http://hl7.org/fhir/us/core/StructureDefinition/us-core-observationresults"
                    ]
                },
                "id": "ca141695-b2d7-3ca0-a86d-20780f710424",
                "identifier": [
                    {
                        "system": "urn:ietf:rfc:3986",
                        "value": "urn:uuid:c12ecaaf-53f8-4593-8f79-359aeaa3948b"
                    }
                ],
                "status": "final",
                "code": {
                    "coding": [
                        {
                            "code": "75305-3",
                            "display": "Nutritional status",
                            "system": "http://loinc.org"
                        }
                    ]
                },
                "effectiveDateTime": "2013-05-12",
                "valueCodeableConcept": {
                    "coding": [
                        {
                            "code": "248324001",
                            "display": "well nourished",
                            "system": "http://snomed.info/sct"
                        }
                    ]
                },
                "subject": {
                    "reference": "Patient/2745d583-e3d1-3f88-8b21-7b59adb60779"
                }
            },
            "request": {
                "method": "PUT",
                "url": "Observation/ca141695-b2d7-3ca0-a86d-20780f710424"
            }
        },
        {
            "fullUrl": "urn:uuid:27fdc752-b876-324b-a530-225b15a9315a",
            "resource": {
                "resourceType": "Observation",
                "meta": {
                    "profile": [
                        "http://hl7.org/fhir/us/core/StructureDefinition/us-core-observationresults"
                    ]
                },
                "id": "27fdc752-b876-324b-a530-225b15a9315a",
                "identifier": [
                    {
                        "system": "urn:ietf:rfc:3986",
                        "value": "urn:uuid:ab1791b0-5c71-11db-b0de-0800200c9a66"
                    }
                ],
                "status": "final",
                "code": {
                    "coding": [
                        {
                            "code": "75303-8",
                            "display": "Nutrition assessment",
                            "system": "http://loinc.org"
                        }
                    ]
                },
                "effectiveDateTime": "2013-05-12",
                "valueCodeableConcept": {
                    "coding": [
                        {
                            "code": "386619000",
                            "display": "low sodium diet (finding)",
                            "system": "http://snomed.info/sct"
                        }
                    ]
                },
                "subject": {
                    "reference": "Patient/2745d583-e3d1-3f88-8b21-7b59adb60779"
                },
                "performer": [
                    {
                        "reference": "Practitioner/4939e179-a309-30ef-9889-e04751868181"
                    }
                ]
            },
            "request": {
                "method": "PUT",
                "url": "Observation/27fdc752-b876-324b-a530-225b15a9315a"
            }
        },
        {
            "fullUrl": "urn:uuid:bf566c0e-2909-3db0-95a3-ba8c9c235429",
            "resource": {
                "resourceType": "Observation",
                "meta": {
                    "profile": [
                        "http://hl7.org/fhir/us/core/StructureDefinition/us-core-observationresults"
                    ]
                },
                "id": "bf566c0e-2909-3db0-95a3-ba8c9c235429",
                "identifier": [
                    {
                        "system": "urn:ietf:rfc:3986",
                        "value": "urn:uuid:ab1791b0-5c71-11db-b0de-0800200c9a66"
                    }
                ],
                "status": "final",
                "code": {
                    "coding": [
                        {
                            "code": "75303-8",
                            "display": "Nutrition assessment",
                            "system": "http://loinc.org"
                        }
                    ]
                },
                "effectiveDateTime": "2013-05-12",
                "valueCodeableConcept": {
                    "coding": [
                        {
                            "code": "430186007",
                            "display": "excessive dietary carbohydrate intake(finding)",
                            "system": "http://snomed.info/sct"
                        }
                    ]
                },
                "subject": {
                    "reference": "Patient/2745d583-e3d1-3f88-8b21-7b59adb60779"
                },
                "performer": [
                    {
                        "reference": "Practitioner/4939e179-a309-30ef-9889-e04751868181"
                    }
                ]
            },
            "request": {
                "method": "PUT",
                "url": "Observation/bf566c0e-2909-3db0-95a3-ba8c9c235429"
            }
        },
        {
            "fullUrl": "urn:uuid:12a84366-312d-3dcf-a5ef-f6c2f15ddf61",
            "resource": {
                "resourceType": "Coverage",
                "id": "12a84366-312d-3dcf-a5ef-f6c2f15ddf61",
                "identifier": [
                    {
                        "system": "urn:ietf:rfc:3986",
                        "value": "urn:uuid:3e676a50-7aac-11db-9fe1-0800200c9a66"
                    }
                ],
                "status": "active",
                "relationship": {
                    "coding": [
                        {
                            "code": "SELF",
                            "system": "urn:oid:2.16.840.1.113883.5.110"
                        }
                    ]
                }
            },
            "request": {
                "method": "PUT",
                "url": "Coverage/12a84366-312d-3dcf-a5ef-f6c2f15ddf61"
            }
        },
        {
            "fullUrl": "urn:uuid:7e790879-ce94-3ff4-b0e3-5df48fda517b",
            "resource": {
                "resourceType": "Organization",
                "id": "7e790879-ce94-3ff4-b0e3-5df48fda517b",
                "name": "Good Health Insurance"
            },
            "request": {
                "method": "PUT",
                "url": "Organization/7e790879-ce94-3ff4-b0e3-5df48fda517b"
            }
        },
        {
            "fullUrl": "urn:uuid:eef572d1-6a5c-3a42-b3a4-c535972bd5ae",
            "resource": {
                "resourceType": "DocumentReference",
                "id": "eef572d1-6a5c-3a42-b3a4-c535972bd5ae",
                "type": {
                    "coding": [
                        {
                            "code": "18761-7",
                            "display": "Provider Unspecified Transfer Summary",
                            "system": "http://loinc.org"
                        }
                    ]
                },
                "date": "2020-08-31T07:43:35.515Z",
                "status": "current",
                "content": [
                    {
                        "attachment": {
                            "contentType": "text/plain",
                            "data": "",
                            "hash": "BE/h5iPuSK5CdKdRf3OokzxrPwE="
                        }
                    }
                ]
            },
            "request": {
                "method": "PUT",
                "url": "DocumentReference/eef572d1-6a5c-3a42-b3a4-c535972bd5ae"
            }
        }
    ]
}