{
    "resourceType": "Bundle",
    "type": "batch",
    "entry": [
        {
            "fullUrl": "urn:uuid:4e02bcc9-f037-308b-86af-4fde007f9805",
            "resource": {
                "resourceType": "Composition",
                "id": "4e02bcc9-f037-308b-86af-4fde007f9805",
                "identifier": {
                    "use": "official",
                    "value": "2.16.840.1.113883.19.5.99999.1"
                },
                "status": "final",
                "type": {
                    "coding": [
                        {
                            "code": "11504-8",
                            "display": "Surgical Operation Note",
                            "system": "http://loinc.org"
                        }
                    ]
                },
                "date": "2012-09-16T23:10:00.000Z",
                "title": "Community Health and Hospitals: Operative Note",
                "confidentiality": "N",
                "attester": [
                    {
                        "mode": "legal",
                        "time": "2009-02-27T18:00:00.000Z",
                        "party": {
                            "reference": "Practitioner/6a84aefd-6f50-3666-8ccb-bdad442a4c6a"
                        }
                    }
                ],
                "event": [
                    {
                        "period": {
                            "start": "2012-09-09T23:10:00.000Z"
                        }
                    }
                ],
                "section": [
                    {
                        "title": "PROCEDURE ANESTHESIA",
                        "text": {
                            "status": "generated",
                            "div": "<div xmlns=\"http://www.w3.org/1999/xhtml\">PROCEDURE ANESTHESIA</div>"
                        },
                        "code": {
                            "coding": [
                                {
                                    "code": "59774-0",
                                    "display": "PROCEDURE ANESTHESIA",
                                    "system": "http://loinc.org"
                                }
                            ]
                        },
                        "mode": "snapshot"
                    },
                    {
                        "title": "COMPLICATIONS",
                        "text": {
                            "status": "generated",
                            "div": "<div xmlns=\"http://www.w3.org/1999/xhtml\">COMPLICATIONS</div>"
                        },
                        "code": {
                            "coding": [
                                {
                                    "code": "55109-3",
                                    "display": "Complications",
                                    "system": "http://loinc.org"
                                }
                            ]
                        },
                        "mode": "snapshot"
                    },
                    {
                        "title": "OPERATIVE NOTE FLUIDS",
                        "text": {
                            "status": "generated",
                            "div": "<div xmlns=\"http://www.w3.org/1999/xhtml\">OPERATIVE NOTE FLUIDS</div>"
                        },
                        "code": {
                            "coding": [
                                {
                                    "code": "10216-0",
                                    "display": "SURGICAL OPERATION NOTE FLUIDS",
                                    "system": "http://loinc.org"
                                }
                            ]
                        },
                        "mode": "snapshot"
                    },
                    {
                        "title": "SURGICAL PROCEDURE",
                        "text": {
                            "status": "generated",
                            "div": "<div xmlns=\"http://www.w3.org/1999/xhtml\">SURGICAL PROCEDURE</div>"
                        },
                        "code": {
                            "coding": [
                                {
                                    "code": "10223-6",
                                    "display": "SURGICAL OPERATION NOTE SURGICAL PROCEDURE",
                                    "system": "http://loinc.org"
                                }
                            ]
                        },
                        "mode": "snapshot"
                    },
                    {
                        "title": "PLAN OF TREATMENT",
                        "text": {
                            "status": "generated",
                            "div": "<div xmlns=\"http://www.w3.org/1999/xhtml\">PLAN OF TREATMENT</div>"
                        },
                        "code": {
                            "coding": [
                                {
                                    "code": "18776-5",
                                    "display": "Treatment plan",
                                    "system": "http://loinc.org"
                                }
                            ]
                        },
                        "mode": "snapshot",
                        "entry": [
                            {
                                "reference": "CarePlan/944b9312-647a-337b-9c55-0be580fcc76b"
                            }
                        ]
                    },
                    {
                        "title": "PLANNED PROCEDURE",
                        "text": {
                            "status": "generated",
                            "div": "<div xmlns=\"http://www.w3.org/1999/xhtml\">PLANNED PROCEDURE</div>"
                        },
                        "code": {
                            "coding": [
                                {
                                    "code": "59772-4",
                                    "display": "Planned Procedure",
                                    "system": "http://loinc.org"
                                }
                            ]
                        },
                        "mode": "snapshot"
                    },
                    {
                        "title": "POSTOPERATIVE DIAGNOSIS",
                        "text": {
                            "status": "generated",
                            "div": "<div xmlns=\"http://www.w3.org/1999/xhtml\">POSTOPERATIVE DIAGNOSIS</div>"
                        },
                        "code": {
                            "coding": [
                                {
                                    "code": "10218-6",
                                    "display": "POSTOPERATIVE DIAGNOSIS",
                                    "system": "http://loinc.org"
                                }
                            ]
                        },
                        "mode": "snapshot"
                    },
                    {
                        "title": "PREOPERATIVE DIAGNOSIS",
                        "text": {
                            "status": "generated",
                            "div": "<div xmlns=\"http://www.w3.org/1999/xhtml\">PREOPERATIVE DIAGNOSIS</div>"
                        },
                        "code": {
                            "coding": [
                                {
                                    "code": "10219-4",
                                    "display": "SURGICAL OPERATION NOTE PREOPERATIVE DX",
                                    "system": "http://loinc.org"
                                }
                            ]
                        },
                        "mode": "snapshot"
                    },
                    {
                        "title": "PROCEDURE DESCRIPTION",
                        "text": {
                            "status": "generated",
                            "div": "<div xmlns=\"http://www.w3.org/1999/xhtml\">PROCEDURE DESCRIPTION</div>"
                        },
                        "code": {
                            "coding": [
                                {
                                    "code": "29554-3",
                                    "display": "PROCEDURE DESCRIPTION",
                                    "system": "http://loinc.org"
                                }
                            ]
                        },
                        "mode": "snapshot"
                    },
                    {
                        "title": "PROCEDURE DISPOSITION",
                        "text": {
                            "status": "generated",
                            "div": "<div xmlns=\"http://www.w3.org/1999/xhtml\">PROCEDURE DISPOSITION</div>"
                        },
                        "code": {
                            "coding": [
                                {
                                    "code": "59775-7",
                                    "display": "PROCEDURE DISPOSITION",
                                    "system": "http://loinc.org"
                                }
                            ]
                        },
                        "mode": "snapshot"
                    },
                    {
                        "title": "PROCEDURE ESTIMATED BLOOD LOSS",
                        "text": {
                            "status": "generated",
                            "div": "<div xmlns=\"http://www.w3.org/1999/xhtml\">PROCEDURE ESTIMATED BLOOD LOSS</div>"
                        },
                        "code": {
                            "coding": [
                                {
                                    "code": "59770-8",
                                    "display": "PROCEDURE ESTIMATED BLOOD LOSS",
                                    "system": "http://loinc.org"
                                }
                            ]
                        },
                        "mode": "snapshot"
                    },
                    {
                        "title": "PROCEDURE FINDINGS",
                        "text": {
                            "status": "generated",
                            "div": "<div xmlns=\"http://www.w3.org/1999/xhtml\">PROCEDURE FINDINGS</div>"
                        },
                        "code": {
                            "coding": [
                                {
                                    "code": "59776-5",
                                    "display": "PROCEDURE FINDINGS",
                                    "system": "http://loinc.org"
                                }
                            ]
                        },
                        "mode": "snapshot"
                    },
                    {
                        "title": "PROCEDURE IMPLANTS",
                        "text": {
                            "status": "generated",
                            "div": "<div xmlns=\"http://www.w3.org/1999/xhtml\">PROCEDURE IMPLANTS</div>"
                        },
                        "code": {
                            "coding": [
                                {
                                    "code": "59771-6",
                                    "display": "PROCEDURE IMPLANTS",
                                    "system": "http://loinc.org"
                                }
                            ]
                        },
                        "mode": "snapshot"
                    },
                    {
                        "title": "PROCEDURE INDICATIONS",
                        "text": {
                            "status": "generated",
                            "div": "<div xmlns=\"http://www.w3.org/1999/xhtml\">PROCEDURE INDICATIONS</div>"
                        },
                        "code": {
                            "coding": [
                                {
                                    "code": "59768-2",
                                    "display": "PROCEDURE INDICATIONS",
                                    "system": "http://loinc.org"
                                }
                            ]
                        },
                        "mode": "snapshot"
                    },
                    {
                        "title": "PROCEDURE SPECIMENS TAKEN",
                        "text": {
                            "status": "generated",
                            "div": "<div xmlns=\"http://www.w3.org/1999/xhtml\">PROCEDURE SPECIMENS TAKEN</div>"
                        },
                        "code": {
                            "coding": [
                                {
                                    "code": "59773-2",
                                    "display": "PROCEDURE SPECIMENS TAKEN",
                                    "system": "http://loinc.org"
                                }
                            ]
                        },
                        "mode": "snapshot"
                    },
                    {
                        "title": "SURGICAL DRAINS",
                        "text": {
                            "status": "generated",
                            "div": "<div xmlns=\"http://www.w3.org/1999/xhtml\">SURGICAL DRAINS</div>"
                        },
                        "code": {
                            "coding": [
                                {
                                    "code": "11537-8",
                                    "display": "SURGICAL DRAINS",
                                    "system": "http://loinc.org"
                                }
                            ]
                        },
                        "mode": "snapshot"
                    }
                ],
                "subject": {
                    "reference": "Patient/f40da2df-7505-315a-9acb-55513a02c37b"
                },
                "custodian": {
                    "reference": "Organization/ce67676d-faa6-3ac3-8d71-f0a778b99cd0"
                },
                "author": [
                    {
                        "reference": "Practitioner/5942c17c-61a6-351b-a314-39fb9fc72561"
                    }
                ]
            },
            "request": {
                "method": "PUT",
                "url": "Composition/4e02bcc9-f037-308b-86af-4fde007f9805"
            }
        },
        {
            "fullUrl": "urn:uuid:6a84aefd-6f50-3666-8ccb-bdad442a4c6a",
            "resource": {
                "resourceType": "Practitioner",
                "meta": {
                    "profile": [
                        "http://hl7.org/fhir/us/core/StructureDefinition/us-core-practitioner"
                    ]
                },
                "id": "6a84aefd-6f50-3666-8ccb-bdad442a4c6a"
            },
            "request": {
                "method": "PUT",
                "url": "Practitioner/6a84aefd-6f50-3666-8ccb-bdad442a4c6a"
            }
        },
        {
            "fullUrl": "urn:uuid:ce67676d-faa6-3ac3-8d71-f0a778b99cd0",
            "resource": {
                "resourceType": "Organization",
                "id": "ce67676d-faa6-3ac3-8d71-f0a778b99cd0",
                "identifier": [
                    {
                        "system": "http://hl7.org/fhir/sid/us-npi",
                        "value": "99999999"
                    }
                ],
                "name": "Community Health and Hospitals",
                "address": [
                    {
                        "use": "work",
                        "line": [
                            "1002 Healthcare Drive"
                        ],
                        "city": "Portland",
                        "state": "OR",
                        "country": "US",
                        "postalCode": "99123"
                    }
                ],
                "telecom": [
                    {
                        "system": "phone",
                        "value": "555-555-1002",
                        "use": "work"
                    }
                ]
            },
            "request": {
                "method": "PUT",
                "url": "Organization/ce67676d-faa6-3ac3-8d71-f0a778b99cd0"
            }
        },
        {
            "fullUrl": "urn:uuid:5942c17c-61a6-351b-a314-39fb9fc72561",
            "resource": {
                "resourceType": "Practitioner",
                "meta": {
                    "profile": [
                        "http://hl7.org/fhir/us/core/StructureDefinition/us-core-practitioner"
                    ]
                },
                "id": "5942c17c-61a6-351b-a314-39fb9fc72561",
                "identifier": [
                    {
                        "system": "http://hl7.org/fhir/sid/us-npi",
                        "value": "99999999"
                    }
                ],
                "name": [
                    {
                        "family": "Seven",
                        "given": [
                            "Henry"
                        ]
                    }
                ],
                "address": [
                    {
                        "line": [
                            "1002 Healthcare Drive"
                        ],
                        "city": "Portland",
                        "state": "OR",
                        "country": "US",
                        "postalCode": "99123"
                    }
                ],
                "telecom": [
                    {
                        "system": "phone",
                        "value": "555-555-1002",
                        "use": "work"
                    }
                ],
                "qualification": [
                    {
                        "code": {
                            "coding": [
                                {
                                    "code": "200000000X",
                                    "display": "Allopathic &amp; Osteopathic Physicians",
                                    "system": "http://nucc.org/provider-taxonomy"
                                }
                            ]
                        }
                    }
                ]
            },
            "request": {
                "method": "PUT",
                "url": "Practitioner/5942c17c-61a6-351b-a314-39fb9fc72561"
            }
        },
        {
            "fullUrl": "urn:uuid:f40da2df-7505-315a-9acb-55513a02c37b",
            "resource": {
                "resourceType": "Patient",
                "meta": {
                    "profile": [
                        "http://hl7.org/fhir/us/core/StructureDefinition/us-core-patient"
                    ]
                },
                "id": "f40da2df-7505-315a-9acb-55513a02c37b",
                "identifier": [
                    {
                        "system": "urn:oid:2.16.840.1.113883.19.5.99999.2",
                        "value": "998991"
                    },
                    {
                        "system": "http://hl7.org/fhir/sid/us-ssn",
                        "value": "111-00-2330"
                    }
                ],
                "name": [
                    {
                        "use": "usual",
                        "family": "Jones",
                        "given": [
                            "Isabella",
                            "Isa"
                        ]
                    }
                ],
                "birthDate": "2005-05-01",
                "gender": "female",
                "extension": [
                    {
                        "url": "http://hl7.org/fhir/us/core/StructureDefinition/us-core-race",
                        "extension": [
                            {
                                "url": "detailed",
                                "valueCoding": {
                                    "code": "1966-1",
                                    "display": "Aleut",
                                    "system": "urn:oid:2.16.840.1.113883.6.238"
                                }
                            },
                            {
                                "url": "text",
                                "valueString": "Aleut"
                            }
                        ]
                    },
                    {
                        "url": "http://hl7.org/fhir/us/core/StructureDefinition/us-core-ethnicity",
                        "extension": [
                            {
                                "url": "ombCategory",
                                "valueCoding": {
                                    "code": "2186-5",
                                    "display": "Not Hispanic or Latino",
                                    "system": "urn:oid:2.16.840.1.113883.6.238"
                                }
                            },
                            {
                                "url": "text",
                                "valueString": "Not Hispanic or Latino"
                            }
                        ]
                    }
                ],
                "address": [
                    {
                        "use": "home",
                        "line": [
                            "1357 Amber Drive"
                        ],
                        "city": "Beaverton",
                        "state": "OR",
                        "country": "US",
                        "postalCode": "97867"
                    }
                ],
                "telecom": [
                    {
                        "system": "phone",
                        "value": "(816)276-6909",
                        "use": "home"
                    }
                ],
                "communication": [
                    {
                        "language": {
                            "coding": [
                                {
                                    "system": "urn:ietf:bcp:47",
                                    "code": "en",
                                    "display": "English"
                                }
                            ]
                        },
                        "preferred": true
                    }
                ]
            },
            "request": {
                "method": "PUT",
                "url": "Patient/f40da2df-7505-315a-9acb-55513a02c37b"
            }
        },
        {
            "fullUrl": "urn:uuid:404aabde-037c-3ea6-85cb-d4ceefa1d2c8",
            "resource": {
                "resourceType": "RelatedPerson",
                "id": "404aabde-037c-3ea6-85cb-d4ceefa1d2c8",
                "relationship": [
                    {
                        "coding": [
                            {
                                "code": "GRPRN",
                                "display": "Grandparent",
                                "system": "urn:oid:2.16.840.1.113883.5.111"
                            }
                        ]
                    }
                ],
                "name": [
                    {
                        "family": "Jones",
                        "given": [
                            "Ralph"
                        ]
                    }
                ],
                "telecom": [
                    {
                        "system": "phone",
                        "value": "(816)276-6909",
                        "use": "home"
                    }
                ],
                "address": [
                    {
                        "use": "home",
                        "line": [
                            "1357 Amber Drive"
                        ],
                        "city": "Beaverton",
                        "state": "OR",
                        "country": "US",
                        "postalCode": "97867"
                    }
                ],
                "patient": {
                    "reference": "Patient/f40da2df-7505-315a-9acb-55513a02c37b"
                }
            },
            "request": {
                "method": "PUT",
                "url": "RelatedPerson/404aabde-037c-3ea6-85cb-d4ceefa1d2c8"
            }
        },
        {
            "fullUrl": "urn:uuid:b5153325-379c-34a0-9f98-323ced0e6d2e",
            "resource": {
                "resourceType": "DocumentReference",
                "id": "b5153325-379c-34a0-9f98-323ced0e6d2e",
                "type": {
                    "coding": [
                        {
                            "code": "11504-8",
                            "display": "Surgical Operation Note",
                            "system": "http://loinc.org"
                        }
                    ]
                },
                "date": "2020-08-31T07:43:35.018Z",
                "status": "current",
                "content": [
                    {
                        "attachment": {
                            "contentType": "text/plain",
                            "data": "",
                            "hash": "OmiKfqn2Y1S/p3usbhQCmWOS0/w="
                        }
                    }
                ]
            },
            "request": {
                "method": "PUT",
                "url": "DocumentReference/b5153325-379c-34a0-9f98-323ced0e6d2e"
            }
        }
    ]
}