{
    "resourceType": "Bundle",
    "type": "batch",
    "entry": [
        {
            "fullUrl": "urn:uuid:2371a22d-bdee-390b-a58e-5522a3aa06b1",
            "resource": {
                "resourceType": "Composition",
                "id": "2371a22d-bdee-390b-a58e-5522a3aa06b1",
                "identifier": {
                    "use": "official",
                    "value": "2.16.840.1.113883.19.5.99999.1"
                },
                "status": "final",
                "type": {
                    "coding": [
                        {
                            "code": "11488-4",
                            "display": "Consultation Note",
                            "system": "http://loinc.org"
                        }
                    ]
                },
                "date": "2018-06-23T17:00:00.000Z",
                "title": "Community Health Consult Note",
                "confidentiality": "N",
                "subject": {
                    "reference": "Patient/448f27b7-6a33-3b81-9dc5-e3450ef7b588"
                },
                "encounter": {
                    "reference": "Encounter/bec286ce-8eb4-383a-9b9f-5da77e4e2301"
                },
                "custodian": {
                    "reference": "Organization/2db1cde5-fcf8-341d-94fb-fa21b03c1415"
                },
                "author": [
                    {
                        "reference": "Practitioner/59f03d66-d1fe-3b14-adbf-483a56746c05"
                    }
                ]
            },
            "request": {
                "method": "PUT",
                "url": "Composition/2371a22d-bdee-390b-a58e-5522a3aa06b1"
            }
        },
        {
            "fullUrl": "urn:uuid:bec286ce-8eb4-383a-9b9f-5da77e4e2301",
            "resource": {
                "resourceType": "Encounter",
                "id": "bec286ce-8eb4-383a-9b9f-5da77e4e2301",
                "status": "unknown",
                "class": {
                    "code": "99213",
                    "display": "Evaluation and Management",
                    "system": "urn:oid:2.16.840.1.113883.6.12"
                },
                "type": [
                    {
                        "coding": [
                            {
                                "code": "99213",
                                "display": "Evaluation and Management",
                                "system": "urn:oid:2.16.840.1.113883.6.12"
                            }
                        ]
                    }
                ],
                "identifier": [
                    {
                        "system": "urn:oid:2.16.840.1.113883.19",
                        "value": "9937012"
                    }
                ],
                "location": [
                    {
                        "location": {
                            "reference": "Location/2c3b30b5-39e7-3c88-b345-eed888cc36f0"
                        }
                    }
                ]
            },
            "request": {
                "method": "PUT",
                "url": "Encounter/bec286ce-8eb4-383a-9b9f-5da77e4e2301"
            }
        },
        {
            "fullUrl": "urn:uuid:2c3b30b5-39e7-3c88-b345-eed888cc36f0",
            "resource": {
                "resourceType": "Location",
                "id": "2c3b30b5-39e7-3c88-b345-eed888cc36f0"
            },
            "request": {
                "method": "PUT",
                "url": "Location/2c3b30b5-39e7-3c88-b345-eed888cc36f0"
            }
        },
        {
            "fullUrl": "urn:uuid:2db1cde5-fcf8-341d-94fb-fa21b03c1415",
            "resource": {
                "resourceType": "Organization",
                "id": "2db1cde5-fcf8-341d-94fb-fa21b03c1415",
                "identifier": [
                    {
                        "system": "http://hl7.org/fhir/sid/us-npi",
                        "value": "321CX"
                    }
                ],
                "name": "Good Health HIE",
                "address": [
                    {
                        "use": "work",
                        "line": [
                            "1009 Healthcare Drive"
                        ],
                        "city": "Portland",
                        "state": "OR",
                        "country": "US",
                        "postalCode": "99123"
                    }
                ],
                "telecom": [
                    {
                        "system": "phone",
                        "value": "+1(555)-1009",
                        "use": "work"
                    }
                ]
            },
            "request": {
                "method": "PUT",
                "url": "Organization/2db1cde5-fcf8-341d-94fb-fa21b03c1415"
            }
        },
        {
            "fullUrl": "urn:uuid:59f03d66-d1fe-3b14-adbf-483a56746c05",
            "resource": {
                "resourceType": "Practitioner",
                "meta": {
                    "profile": [
                        "http://hl7.org/fhir/us/core/StructureDefinition/us-core-practitioner"
                    ]
                },
                "id": "59f03d66-d1fe-3b14-adbf-483a56746c05",
                "identifier": [
                    {
                        "system": "http://hl7.org/fhir/sid/us-npi",
                        "value": "555555555"
                    }
                ],
                "name": [
                    {
                        "family": "Primary",
                        "given": [
                            "Patricia",
                            "Patty"
                        ],
                        "suffix": [
                            "M.D."
                        ]
                    }
                ],
                "address": [
                    {
                        "line": [
                            "1004 Healthcare Drive"
                        ],
                        "city": "Portland",
                        "state": "OR",
                        "country": "US",
                        "postalCode": "99123"
                    }
                ],
                "telecom": [
                    {
                        "system": "phone",
                        "value": "+1(555)-1004",
                        "use": "work"
                    }
                ],
                "qualification": [
                    {
                        "code": {
                            "coding": [
                                {
                                    "code": "207QA0505X",
                                    "display": "Adult Medicine",
                                    "system": "http://nucc.org/provider-taxonomy"
                                }
                            ]
                        }
                    }
                ]
            },
            "request": {
                "method": "PUT",
                "url": "Practitioner/59f03d66-d1fe-3b14-adbf-483a56746c05"
            }
        },
        {
            "fullUrl": "urn:uuid:448f27b7-6a33-3b81-9dc5-e3450ef7b588",
            "resource": {
                "resourceType": "Patient",
                "meta": {
                    "profile": [
                        "http://hl7.org/fhir/us/core/StructureDefinition/us-core-patient"
                    ]
                },
                "id": "448f27b7-6a33-3b81-9dc5-e3450ef7b588",
                "identifier": [
                    {
                        "system": "http://hl7.org/fhir/sid/us-ssn",
                        "value": "000-00-0000"
                    }
                ],
                "name": [
                    {
                        "use": "usual",
                        "family": "Betterhalf",
                        "given": [
                            "Eve"
                        ]
                    },
                    {
                        "family": "Everywoman",
                        "given": [
                            "Eve"
                        ]
                    }
                ],
                "birthDate": "1975-05-01",
                "gender": "female",
                "extension": [
                    {
                        "url": "http://hl7.org/fhir/us/core/StructureDefinition/us-core-race",
                        "extension": [
                            {
                                "url": "ombCategory",
                                "valueCoding": {
                                    "code": "2106-3",
                                    "display": "White",
                                    "system": "urn:oid:2.16.840.1.113883.6.238"
                                }
                            },
                            {
                                "url": "ombCategory",
                                "valueCoding": {
                                    "code": "2076-8",
                                    "display": "Hawaiian or Other Pacific Islander",
                                    "system": "urn:oid:2.16.840.1.113883.6.238"
                                }
                            },
                            {
                                "url": "text",
                                "valueString": "Mixed"
                            }
                        ]
                    },
                    {
                        "url": "http://hl7.org/fhir/us/core/StructureDefinition/us-core-ethnicity",
                        "extension": [
                            {
                                "url": "ombCategory",
                                "valueCoding": {
                                    "code": "2186-5",
                                    "display": "Not Hispanic or Latino",
                                    "system": "urn:oid:2.16.840.1.113883.6.238"
                                }
                            },
                            {
                                "url": "text",
                                "valueString": "Not Hispanic or Latino"
                            }
                        ]
                    }
                ],
                "address": [
                    {
                        "use": "home",
                        "line": [
                            "2222 Home Street"
                        ],
                        "city": "Beaverton",
                        "state": "OR",
                        "country": "US",
                        "postalCode": "97867"
                    }
                ],
                "telecom": [
                    {
                        "system": "phone",
                        "value": "+1(555)555-2003",
                        "use": "home"
                    }
                ],
                "communication": [
                    {
                        "language": {
                            "coding": [
                                {
                                    "system": "urn:ietf:bcp:47",
                                    "code": "eng"
                                }
                            ]
                        },
                        "preferred": true
                    }
                ]
            },
            "request": {
                "method": "PUT",
                "url": "Patient/448f27b7-6a33-3b81-9dc5-e3450ef7b588"
            }
        },
        {
            "fullUrl": "urn:uuid:5fab84f6-27ae-3100-a4be-3785d3a7a76b",
            "resource": {
                "resourceType": "RelatedPerson",
                "id": "5fab84f6-27ae-3100-a4be-3785d3a7a76b",
                "relationship": [
                    {
                        "coding": [
                            {
                                "code": "POWATT",
                                "display": "Power of Attorney",
                                "system": "urn:oid:2.16.840.1.113883.1.11.19830"
                            }
                        ]
                    }
                ],
                "name": [
                    {
                        "family": "Betterhalf",
                        "given": [
                            "Boris",
                            "Bo"
                        ]
                    }
                ],
                "telecom": [
                    {
                        "system": "phone",
                        "value": "+1(555)555-2008",
                        "use": "mobile"
                    }
                ],
                "address": [
                    {
                        "use": "home",
                        "line": [
                            "2222 Home Street"
                        ],
                        "city": "Beaverton",
                        "state": "OR",
                        "country": "US",
                        "postalCode": "97867"
                    }
                ],
                "patient": {
                    "reference": "Patient/448f27b7-6a33-3b81-9dc5-e3450ef7b588"
                }
            },
            "request": {
                "method": "PUT",
                "url": "RelatedPerson/5fab84f6-27ae-3100-a4be-3785d3a7a76b"
            }
        },
        {
            "fullUrl": "urn:uuid:0db50de6-1696-3875-b570-0d10a049f31f",
            "resource": {
                "resourceType": "DocumentReference",
                "id": "0db50de6-1696-3875-b570-0d10a049f31f",
                "type": {
                    "coding": [
                        {
                            "code": "11488-4",
                            "display": "Consultation Note",
                            "system": "http://loinc.org"
                        }
                    ]
                },
                "date": "2020-08-31T07:43:34.694Z",
                "status": "current",
                "content": [
                    {
                        "attachment": {
                            "contentType": "text/plain",
                            "data": "",
                            "hash": "2W2JN8LdfXbAPnyDVOd4VIzO/IA="
                        }
                    }
                ]
            },
            "request": {
                "method": "PUT",
                "url": "DocumentReference/0db50de6-1696-3875-b570-0d10a049f31f"
            }
        }
    ]
}