{
    "resourceType": "Bundle",
    "type": "batch",
    "entry": [
        {
            "fullUrl": "urn:uuid:a01846e4-06e4-3dc3-8e5d-4bb5bc0bc4fe",
            "resource": {
                "resourceType": "Composition",
                "id": "a01846e4-06e4-3dc3-8e5d-4bb5bc0bc4fe",
                "identifier": {
                    "use": "official",
                    "value": "2.16.840.1.113883.19.5.99999.1"
                },
                "status": "final",
                "type": {
                    "coding": [
                        {
                            "code": "34133-9",
                            "display": "Summarization of Episode Note",
                            "system": "http://loinc.org"
                        }
                    ]
                },
                "date": "2013-08-15T18:30:00.000Z",
                "title": "Patient Chart Summary",
                "confidentiality": "N",
                "attester": [
                    {
                        "mode": "legal",
                        "time": "2013-08-16T06:36:15.000Z",
                        "party": {
                            "reference": "Practitioner/4939e179-a309-30ef-9889-e04751868181"
                        }
                    }
                ],
                "event": [
                    {
                        "period": {
                            "start": "1975-05-01"
                        }
                    }
                ],
                "section": [
                    {
                        "title": "ADVANCE DIRECTIVES",
                        "text": {
                            "status": "generated",
                            "div": "<div xmlns=\"http://www.w3.org/1999/xhtml\">ADVANCE DIRECTIVES</div>"
                        },
                        "code": {
                            "coding": [
                                {
                                    "code": "42348-3",
                                    "system": "http://loinc.org"
                                }
                            ]
                        },
                        "mode": "snapshot",
                        "entry": [
                            {
                                "reference": "Consent/e655e17a-3850-326c-9081-59d63212b1eb"
                            }
                        ]
                    },
                    {
                        "title": "ALLERGIES AND ADVERSE REACTIONS",
                        "text": {
                            "status": "generated",
                            "div": "<div xmlns=\"http://www.w3.org/1999/xhtml\">ALLERGIES AND ADVERSE REACTIONS</div>"
                        },
                        "code": {
                            "coding": [
                                {
                                    "code": "48765-2",
                                    "system": "http://loinc.org"
                                }
                            ]
                        },
                        "mode": "snapshot",
                        "entry": [
                            {
                                "reference": "AllergyIntolerance/61bbd40b-0b3b-3e0d-9cd9-69fdd42123b1",
                                "display": "Penicillin"
                            },
                            {
                                "reference": "AllergyIntolerance/131b3d3c-cf82-36a8-b36f-ac955f1582f1",
                                "display": "Codeine"
                            }
                        ]
                    },
                    {
                        "title": "ENCOUNTERS",
                        "text": {
                            "status": "generated",
                            "div": "<div xmlns=\"http://www.w3.org/1999/xhtml\">ENCOUNTERS</div>"
                        },
                        "code": {
                            "coding": [
                                {
                                    "code": "46240-8",
                                    "display": "History of encounters",
                                    "system": "http://loinc.org"
                                }
                            ]
                        },
                        "mode": "snapshot",
                        "entry": [
                            {
                                "reference": "Encounter/92d8ae57-642b-3c3f-9b42-d2288e192af1"
                            }
                        ]
                    },
                    {
                        "title": "FAMILY HISTORY",
                        "text": {
                            "status": "generated",
                            "div": "<div xmlns=\"http://www.w3.org/1999/xhtml\">FAMILY HISTORY</div>"
                        },
                        "code": {
                            "coding": [
                                {
                                    "code": "10157-6",
                                    "system": "http://loinc.org"
                                }
                            ]
                        },
                        "mode": "snapshot",
                        "entry": [
                            {
                                "reference": "FamilyMemberHistory/4dd6e8b6-9325-3039-8074-e016b302374b"
                            }
                        ]
                    },
                    {
                        "title": "FUNCTIONAL STATUS",
                        "text": {
                            "status": "generated",
                            "div": "<div xmlns=\"http://www.w3.org/1999/xhtml\">FUNCTIONAL STATUS</div>"
                        },
                        "code": {
                            "coding": [
                                {
                                    "code": "47420-5",
                                    "display": "Functional Status",
                                    "system": "http://loinc.org"
                                }
                            ]
                        },
                        "mode": "snapshot",
                        "entry": [
                            {
                                "reference": "Condition/5217b883-b833-3031-91a3-6086d8c18d53"
                            }
                        ]
                    },
                    {
                        "title": "IMMUNIZATIONS",
                        "text": {
                            "status": "generated",
                            "div": "<div xmlns=\"http://www.w3.org/1999/xhtml\">IMMUNIZATIONS</div>"
                        },
                        "code": {
                            "coding": [
                                {
                                    "code": "11369-6",
                                    "display": "History of immunizations",
                                    "system": "http://loinc.org"
                                }
                            ]
                        },
                        "mode": "snapshot",
                        "entry": [
                            {
                                "reference": "Immunization/c5fd5033-3d18-3d01-b862-59010b5df38d"
                            },
                            {
                                "reference": "Immunization/eed03d0c-fb75-3fbc-ae01-b220ee3b64b6"
                            },
                            {
                                "reference": "Immunization/8609ad01-466e-3223-b2e2-a5b8ff507da3"
                            },
                            {
                                "reference": "Immunization/77ae769f-60e2-3972-be7b-c351b8096e21"
                            },
                            {
                                "reference": "Immunization/3548444b-b346-36bc-9fe8-e1c62513f6e6"
                            }
                        ]
                    },
                    {
                        "title": "MEDICAL EQUIPMENT",
                        "text": {
                            "status": "generated",
                            "div": "<div xmlns=\"http://www.w3.org/1999/xhtml\">MEDICAL EQUIPMENT</div>"
                        },
                        "code": {
                            "coding": [
                                {
                                    "code": "46264-8",
                                    "system": "http://loinc.org"
                                }
                            ]
                        },
                        "mode": "snapshot",
                        "entry": [
                            {
                                "reference": "Device/bcc3e5c2-c2ca-3ccc-8884-a1fde79bf034"
                            },
                            {
                                "reference": "Device/3209d685-05b3-3273-826c-4f0f816c2da4"
                            },
                            {
                                "reference": "Device/ec66a98d-628e-3c23-abf5-6dde424d1c12"
                            }
                        ]
                    },
                    {
                        "title": "MEDICATIONS",
                        "text": {
                            "status": "generated",
                            "div": "<div xmlns=\"http://www.w3.org/1999/xhtml\">MEDICATIONS</div>"
                        },
                        "code": {
                            "coding": [
                                {
                                    "code": "10160-0",
                                    "display": "HISTORY OF MEDICATION USE",
                                    "system": "http://loinc.org"
                                }
                            ]
                        },
                        "mode": "snapshot",
                        "entry": [
                            {
                                "reference": "MedicationStatement/91bcd0c6-6484-3791-ad39-8a1daf1d8c69"
                            },
                            {
                                "reference": "MedicationStatement/17e0e7b9-f210-3c8e-962e-7c4e1b7a6d4f"
                            }
                        ]
                    },
                    {
                        "title": "INSURANCE PROVIDERS",
                        "text": {
                            "status": "generated",
                            "div": "<div xmlns=\"http://www.w3.org/1999/xhtml\">INSURANCE PROVIDERS</div>"
                        },
                        "code": {
                            "coding": [
                                {
                                    "code": "48768-6",
                                    "display": "Payer",
                                    "system": "http://loinc.org"
                                }
                            ]
                        },
                        "mode": "snapshot",
                        "entry": [
                            {
                                "reference": "Coverage/fffe9d0d-f55a-3f47-8cde-6050311d7865"
                            }
                        ]
                    },
                    {
                        "title": "TREATMENT PLAN",
                        "text": {
                            "status": "generated",
                            "div": "<div xmlns=\"http://www.w3.org/1999/xhtml\">TREATMENT PLAN</div>"
                        },
                        "code": {
                            "coding": [
                                {
                                    "code": "18776-5",
                                    "display": "Treatment plan",
                                    "system": "http://loinc.org"
                                }
                            ]
                        },
                        "mode": "snapshot",
                        "entry": [
                            {
                                "reference": "CarePlan/49625e6f-184e-3b5d-83aa-d849dbbf27d2"
                            }
                        ]
                    },
                    {
                        "title": "PROBLEMS",
                        "text": {
                            "status": "generated",
                            "div": "<div xmlns=\"http://www.w3.org/1999/xhtml\">PROBLEMS</div>"
                        },
                        "code": {
                            "coding": [
                                {
                                    "code": "11450-4",
                                    "display": "PROBLEM LIST",
                                    "system": "http://loinc.org"
                                }
                            ]
                        },
                        "mode": "snapshot",
                        "entry": [
                            {
                                "reference": "Condition/48945b45-7368-3e07-b435-5f39f0e30801"
                            },
                            {
                                "reference": "Condition/afdb0c15-f682-3699-9a84-b36cb70b53c9"
                            },
                            {
                                "reference": "Condition/b1d71e78-2544-3cbf-bfdc-a99babc8b618"
                            }
                        ]
                    },
                    {
                        "title": "PROCEDURES",
                        "text": {
                            "status": "generated",
                            "div": "<div xmlns=\"http://www.w3.org/1999/xhtml\">PROCEDURES</div>"
                        },
                        "code": {
                            "coding": [
                                {
                                    "code": "47519-4",
                                    "display": "HISTORY OF PROCEDURES",
                                    "system": "http://loinc.org"
                                }
                            ]
                        },
                        "mode": "snapshot",
                        "entry": [
                            {
                                "reference": "Procedure/5522f250-5af5-3f6d-9cac-dfef1040ba23"
                            },
                            {
                                "reference": "Procedure/41b03a81-b47a-3bb1-813c-38d1667a198d"
                            },
                            {
                                "reference": "Procedure/0a87f1cd-2bb5-3d18-af31-d94499d733e4"
                            }
                        ]
                    },
                    {
                        "title": "RESULTS",
                        "text": {
                            "status": "generated",
                            "div": "<div xmlns=\"http://www.w3.org/1999/xhtml\">RESULTS</div>"
                        },
                        "code": {
                            "coding": [
                                {
                                    "code": "30954-2",
                                    "display": "RESULTS",
                                    "system": "http://loinc.org"
                                }
                            ]
                        },
                        "mode": "snapshot",
                        "entry": [
                            {
                                "reference": "DiagnosticReport/2e97c53f-663c-31fb-b76e-8b6d6694eb9a"
                            },
                            {
                                "reference": "DiagnosticReport/7c2beaa8-edcc-314f-8d03-913ce7d5bf85"
                            }
                        ]
                    },
                    {
                        "title": "SOCIAL HISTORY",
                        "text": {
                            "status": "generated",
                            "div": "<div xmlns=\"http://www.w3.org/1999/xhtml\">SOCIAL HISTORY</div>"
                        },
                        "code": {
                            "coding": [
                                {
                                    "code": "29762-2",
                                    "display": "Social History",
                                    "system": "http://loinc.org"
                                }
                            ]
                        },
                        "mode": "snapshot",
                        "entry": [
                            {
                                "reference": "Observation/61aed473-9e0b-37ee-b053-6990c70e68be",
                                "display": "Tobacco smoking status NHIS"
                            },
                            {
                                "reference": "Observation/404f5144-0447-3e6c-8cb0-7822c89ffa6b",
                                "display": "History of tobacco use"
                            },
                            {
                                "reference": "Observation/5c8a1a77-47d7-35fd-bc39-3a9006785142",
                                "display": "Alcoholic drinks per day"
                            }
                        ]
                    },
                    {
                        "title": "VITAL SIGNS",
                        "text": {
                            "status": "generated",
                            "div": "<div xmlns=\"http://www.w3.org/1999/xhtml\">VITAL SIGNS</div>"
                        },
                        "code": {
                            "coding": [
                                {
                                    "code": "8716-3",
                                    "display": "VITAL SIGNS",
                                    "system": "http://loinc.org"
                                }
                            ]
                        },
                        "mode": "snapshot",
                        "entry": [
                            {
                                "reference": "Observation/996be67a-9cae-3077-a047-3bad8e029b4d",
                                "display": "Height"
                            },
                            {
                                "reference": "Observation/6f5c3a06-8e3e-3db2-8d89-8784414086f5",
                                "display": "Patient Body Weight - Measured"
                            },
                            {
                                "reference": "Observation/59113ad5-2fc7-3eb3-9274-a941f9aaac07",
                                "display": "Intravascular Systolic"
                            },
                            {
                                "reference": "Observation/38e8a22d-e5e2-3e32-9607-bffb10a11da5",
                                "display": "BP Diastolic"
                            },
                            {
                                "reference": "Observation/dacc3558-e5ac-3a5e-adfb-c3036f7ddfd0",
                                "display": "Height"
                            },
                            {
                                "reference": "Observation/2bb23f76-bc33-3688-befe-e08c859c5f95",
                                "display": "Patient Body Weight - Measured"
                            },
                            {
                                "reference": "Observation/9c083b26-23ae-3f99-b9e8-a3905d314a09",
                                "display": "BP Systolic"
                            },
                            {
                                "reference": "Observation/11a7a445-d65f-3728-81af-31f56f10b554",
                                "display": "BP Diastolic"
                            }
                        ]
                    }
                ],
                "subject": {
                    "reference": "Patient/2745d583-e3d1-3f88-8b21-7b59adb60779"
                },
                "custodian": {
                    "reference": "Organization/0dc0370e-b3dc-3c4e-b2e3-34a72f1facdf"
                },
                "author": [
                    {
                        "reference": "Practitioner/4939e179-a309-30ef-9889-e04751868181"
                    }
                ]
            },
            "request": {
                "method": "PUT",
                "url": "Composition/a01846e4-06e4-3dc3-8e5d-4bb5bc0bc4fe"
            }
        },
        {
            "fullUrl": "urn:uuid:4939e179-a309-30ef-9889-e04751868181",
            "resource": {
                "resourceType": "Practitioner",
                "meta": {
                    "profile": [
                        "http://hl7.org/fhir/us/core/StructureDefinition/us-core-practitioner"
                    ]
                },
                "id": "4939e179-a309-30ef-9889-e04751868181",
                "identifier": [
                    {
                        "system": "http://hl7.org/fhir/sid/us-npi",
                        "value": "5555555555"
                    }
                ],
                "name": [
                    {
                        "family": "Primary",
                        "given": [
                            "Patricia",
                            "Patty"
                        ],
                        "suffix": [
                            "M.D."
                        ]
                    }
                ],
                "address": [
                    {
                        "line": [
                            "1004 Healthcare Drive"
                        ],
                        "city": "Portland",
                        "state": "OR",
                        "country": "US",
                        "postalCode": "99123"
                    }
                ],
                "telecom": [
                    {
                        "system": "phone",
                        "value": "+1(555)555-1004",
                        "use": "work"
                    }
                ],
                "qualification": [
                    {
                        "code": {
                            "coding": [
                                {
                                    "code": "207QA0505X",
                                    "display": "Adult Medicine",
                                    "system": "http://nucc.org/provider-taxonomy"
                                }
                            ]
                        }
                    }
                ]
            },
            "request": {
                "method": "PUT",
                "url": "Practitioner/4939e179-a309-30ef-9889-e04751868181"
            }
        },
        {
            "fullUrl": "urn:uuid:0dc0370e-b3dc-3c4e-b2e3-34a72f1facdf",
            "resource": {
                "resourceType": "Organization",
                "id": "0dc0370e-b3dc-3c4e-b2e3-34a72f1facdf",
                "identifier": [
                    {
                        "system": "http://hl7.org/fhir/sid/us-npi",
                        "value": "321CX"
                    }
                ],
                "name": "Good Health HIE",
                "address": [
                    {
                        "use": "work",
                        "line": [
                            "1009 Healthcare Drive"
                        ],
                        "city": "Portland",
                        "state": "OR",
                        "country": "US",
                        "postalCode": "99123"
                    }
                ],
                "telecom": [
                    {
                        "system": "phone",
                        "value": "+1(555)555-1009",
                        "use": "work"
                    }
                ]
            },
            "request": {
                "method": "PUT",
                "url": "Organization/0dc0370e-b3dc-3c4e-b2e3-34a72f1facdf"
            }
        },
        {
            "fullUrl": "urn:uuid:2745d583-e3d1-3f88-8b21-7b59adb60779",
            "resource": {
                "resourceType": "Patient",
                "meta": {
                    "profile": [
                        "http://hl7.org/fhir/us/core/StructureDefinition/us-core-patient"
                    ]
                },
                "id": "2745d583-e3d1-3f88-8b21-7b59adb60779",
                "identifier": [
                    {
                        "system": "http://hl7.org/fhir/sid/us-ssn",
                        "value": "444222222"
                    }
                ],
                "name": [
                    {
                        "use": "usual",
                        "family": "Betterhalf",
                        "given": [
                            "Eve"
                        ]
                    }
                ],
                "birthDate": "1975-05-01",
                "gender": "female",
                "extension": [
                    {
                        "url": "http://hl7.org/fhir/us/core/StructureDefinition/us-core-race",
                        "extension": [
                            {
                                "url": "ombCategory",
                                "valueCoding": {
                                    "code": "2106-3",
                                    "display": "White",
                                    "system": "urn:oid:2.16.840.1.113883.6.238"
                                }
                            },
                            {
                                "url": "ombCategory",
                                "valueCoding": {
                                    "code": "2076-8",
                                    "display": "Hawaiian or Other Pacific Islander",
                                    "system": "urn:oid:2.16.840.1.113883.6.238"
                                }
                            },
                            {
                                "url": "text",
                                "valueString": "Mixed"
                            }
                        ]
                    },
                    {
                        "url": "http://hl7.org/fhir/us/core/StructureDefinition/us-core-ethnicity",
                        "extension": [
                            {
                                "url": "ombCategory",
                                "valueCoding": {
                                    "code": "2186-5",
                                    "display": "Not Hispanic or Latino",
                                    "system": "urn:oid:2.16.840.1.113883.6.238"
                                }
                            },
                            {
                                "url": "text",
                                "valueString": "Not Hispanic or Latino"
                            }
                        ]
                    }
                ],
                "address": [
                    {
                        "use": "home",
                        "line": [
                            "2222 Home Street"
                        ],
                        "city": "Beaverton",
                        "state": "OR",
                        "country": "US",
                        "postalCode": "97867"
                    }
                ],
                "telecom": [
                    {
                        "system": "phone",
                        "value": "+1(555)555-2003",
                        "use": "home"
                    }
                ],
                "communication": [
                    {
                        "language": {
                            "coding": [
                                {
                                    "system": "urn:ietf:bcp:47",
                                    "code": "en",
                                    "display": "English"
                                }
                            ]
                        },
                        "preferred": true
                    }
                ]
            },
            "request": {
                "method": "PUT",
                "url": "Patient/2745d583-e3d1-3f88-8b21-7b59adb60779"
            }
        },
        {
            "fullUrl": "urn:uuid:6ac0080d-fcc6-3056-b6a4-f60d80e50de6",
            "resource": {
                "resourceType": "RelatedPerson",
                "id": "6ac0080d-fcc6-3056-b6a4-f60d80e50de6",
                "relationship": [
                    {
                        "coding": [
                            {
                                "code": "POWATT",
                                "display": "Power of Attorney",
                                "system": "urn:oid:2.16.840.1.113883.1.11.19830"
                            }
                        ]
                    }
                ],
                "name": [
                    {
                        "family": "Betterhalf",
                        "given": [
                            "Boris",
                            "Bo"
                        ]
                    }
                ],
                "telecom": [
                    {
                        "system": "phone",
                        "value": "+1(555)555-2008",
                        "use": "mobile"
                    }
                ],
                "address": [
                    {
                        "use": "home",
                        "line": [
                            "2222 Home Street"
                        ],
                        "city": "Beaverton",
                        "state": "OR",
                        "country": "US",
                        "postalCode": "97867"
                    }
                ],
                "patient": {
                    "reference": "Patient/2745d583-e3d1-3f88-8b21-7b59adb60779"
                }
            },
            "request": {
                "method": "PUT",
                "url": "RelatedPerson/6ac0080d-fcc6-3056-b6a4-f60d80e50de6"
            }
        },
        {
            "fullUrl": "urn:uuid:b9bd98a1-42f4-3281-8c5c-c1e93362ee1c",
            "resource": {
                "resourceType": "AllergyIntolerance",
                "id": "b9bd98a1-42f4-3281-8c5c-c1e93362ee1c",
                "identifier": [
                    {
                        "system": "urn:ietf:rfc:3986",
                        "value": "urn:uuid:4adc1020-7b14-11db-9fe1-0800200c9a66"
                    }
                ],
                "clinicalStatus": {
                    "coding": [
                        {
                            "system": "http://terminology.hl7.org/CodeSystem/allergyintolerance-clinical",
                            "code": "active"
                        }
                    ]
                },
                "reaction": [
                    {
                        "substance": {
                            "coding": [
                                {
                                    "code": "70618",
                                    "display": "Penicillin",
                                    "system": "http://www.nlm.nih.gov/research/umls/rxnorm"
                                }
                            ]
                        },
                        "severity": "severe",
                        "manifestation": [
                            {
                                "coding": [
                                    {
                                        "code": "422587007",
                                        "display": "Nausea",
                                        "system": "http://snomed.info/sct"
                                    }
                                ]
                            }
                        ],
                        "onset": "2008-02-26T16:05:00.000Z"
                    }
                ],
                "onsetDateTime": "1998-05-01",
                "patient": {
                    "reference": "Patient/2745d583-e3d1-3f88-8b21-7b59adb60779"
                }
            },
            "request": {
                "method": "PUT",
                "url": "AllergyIntolerance/b9bd98a1-42f4-3281-8c5c-c1e93362ee1c"
            }
        },
        {
            "fullUrl": "urn:uuid:9abaccae-6cd1-3858-a9c5-df8e3ded7195",
            "resource": {
                "resourceType": "AllergyIntolerance",
                "id": "9abaccae-6cd1-3858-a9c5-df8e3ded7195",
                "identifier": [
                    {
                        "system": "urn:ietf:rfc:3986",
                        "value": "urn:uuid:901db0f8-9355-4794-81cd-fd951ef07917"
                    }
                ],
                "clinicalStatus": {
                    "coding": [
                        {
                            "system": "http://terminology.hl7.org/CodeSystem/allergyintolerance-clinical",
                            "code": "active"
                        }
                    ]
                },
                "reaction": [
                    {
                        "substance": {
                            "coding": [
                                {
                                    "code": "2670",
                                    "display": "Codeine",
                                    "system": "http://www.nlm.nih.gov/research/umls/rxnorm"
                                }
                            ]
                        },
                        "manifestation": [
                            {
                                "coding": [
                                    {
                                        "code": "56018004",
                                        "display": "Wheezing",
                                        "system": "http://snomed.info/sct"
                                    }
                                ]
                            }
                        ],
                        "severity": "mild"
                    }
                ],
                "patient": {
                    "reference": "Patient/2745d583-e3d1-3f88-8b21-7b59adb60779"
                }
            },
            "request": {
                "method": "PUT",
                "url": "AllergyIntolerance/9abaccae-6cd1-3858-a9c5-df8e3ded7195"
            }
        },
        {
            "fullUrl": "urn:uuid:781745c3-aafa-3701-9f36-cea0c49b779a",
            "resource": {
                "resourceType": "MedicationStatement",
                "id": "781745c3-aafa-3701-9f36-cea0c49b779a",
                "identifier": [
                    {
                        "system": "urn:ietf:rfc:3986",
                        "value": "urn:uuid:cdbd33f0-6cde-11db-9fe1-0800200c9a66"
                    }
                ],
                "status": "active",
                "dosage": [
                    {
                        "doseAndRate": [
                            {
                                "doseQuantity": {
                                    "value": 2
                                }
                            }
                        ]
                    }
                ],
                "subject": {
                    "reference": "Patient/2745d583-e3d1-3f88-8b21-7b59adb60779"
                },
                "medicationReference": {
                    "reference": "Medication/992de5cc-7fb9-330e-bd92-33fa4e5463f3"
                }
            },
            "request": {
                "method": "PUT",
                "url": "MedicationStatement/781745c3-aafa-3701-9f36-cea0c49b779a"
            }
        },
        {
            "fullUrl": "urn:uuid:992de5cc-7fb9-330e-bd92-33fa4e5463f3",
            "resource": {
                "resourceType": "Medication",
                "id": "992de5cc-7fb9-330e-bd92-33fa4e5463f3",
                "code": {
                    "coding": [
                        {
                            "code": "573621",
                            "display": "Proventil 0.09 MG/ACTUAT inhalant solution",
                            "system": "http://www.nlm.nih.gov/research/umls/rxnorm"
                        }
                    ]
                }
            },
            "request": {
                "method": "PUT",
                "url": "Medication/992de5cc-7fb9-330e-bd92-33fa4e5463f3"
            }
        },
        {
            "fullUrl": "urn:uuid:e8e6664b-c88f-3370-ad36-ac509d832889",
            "resource": {
                "resourceType": "MedicationRequest",
                "id": "e8e6664b-c88f-3370-ad36-ac509d832889",
                "intent": "order",
                "status": "completed",
                "subject": {
                    "reference": "Patient/2745d583-e3d1-3f88-8b21-7b59adb60779"
                },
                "medicationReference": {
                    "reference": "Medication/992de5cc-7fb9-330e-bd92-33fa4e5463f3"
                },
                "requester": {
                    "reference": "Practitioner/4939e179-a309-30ef-9889-e04751868181"
                }
            },
            "request": {
                "method": "PUT",
                "url": "MedicationRequest/e8e6664b-c88f-3370-ad36-ac509d832889"
            }
        },
        {
            "fullUrl": "urn:uuid:070e7c44-767c-369b-9b9b-e883e625045d",
            "resource": {
                "resourceType": "MedicationRequest",
                "id": "070e7c44-767c-369b-9b9b-e883e625045d",
                "identifier": [
                    {
                        "system": "urn:oid:1.2.3.4.56789.1",
                        "value": "cb734647-fc99-424c-a864-7e3cda82e704"
                    }
                ],
                "intent": "order",
                "status": "completed",
                "subject": {
                    "reference": "Patient/2745d583-e3d1-3f88-8b21-7b59adb60779"
                },
                "medicationReference": {
                    "reference": "Medication/992de5cc-7fb9-330e-bd92-33fa4e5463f3"
                }
            },
            "request": {
                "method": "PUT",
                "url": "MedicationRequest/070e7c44-767c-369b-9b9b-e883e625045d"
            }
        },
        {
            "fullUrl": "urn:uuid:0be8891c-1155-3899-a94f-7bdd6178c62d",
            "resource": {
                "resourceType": "MedicationStatement",
                "id": "0be8891c-1155-3899-a94f-7bdd6178c62d",
                "identifier": [
                    {
                        "system": "urn:ietf:rfc:3986",
                        "value": "urn:uuid:6c844c75-aa34-411c-b7bd-5e4a9f206e29"
                    }
                ],
                "status": "active",
                "dosage": [
                    {
                        "doseAndRate": [
                            {
                                "doseQuantity": {
                                    "value": 1
                                }
                            }
                        ]
                    }
                ],
                "subject": {
                    "reference": "Patient/2745d583-e3d1-3f88-8b21-7b59adb60779"
                },
                "medicationReference": {
                    "reference": "Medication/763d6184-60ef-3a91-af10-614e8e67b852"
                }
            },
            "request": {
                "method": "PUT",
                "url": "MedicationStatement/0be8891c-1155-3899-a94f-7bdd6178c62d"
            }
        },
        {
            "fullUrl": "urn:uuid:763d6184-60ef-3a91-af10-614e8e67b852",
            "resource": {
                "resourceType": "Medication",
                "id": "763d6184-60ef-3a91-af10-614e8e67b852",
                "code": {
                    "coding": [
                        {
                            "code": "197380",
                            "display": "Atenolol 25 MG Oral Tablet",
                            "system": "http://www.nlm.nih.gov/research/umls/rxnorm"
                        }
                    ]
                }
            },
            "request": {
                "method": "PUT",
                "url": "Medication/763d6184-60ef-3a91-af10-614e8e67b852"
            }
        },
        {
            "fullUrl": "urn:uuid:fe3921ba-0ce4-3697-9941-d41d4dec2a15",
            "resource": {
                "resourceType": "Condition",
                "id": "fe3921ba-0ce4-3697-9941-d41d4dec2a15",
                "identifier": [
                    {
                        "system": "urn:ietf:rfc:3986",
                        "value": "urn:uuid:ab1791b0-5c71-11db-b0de-0800200c9a66"
                    }
                ],
                "code": {
                    "coding": [
                        {
                            "code": "233604007",
                            "display": "Pneumonia",
                            "system": "http://snomed.info/sct"
                        }
                    ]
                },
                "onsetDateTime": "2013-07-03",
                "subject": {
                    "reference": "Patient/2745d583-e3d1-3f88-8b21-7b59adb60779"
                }
            },
            "request": {
                "method": "PUT",
                "url": "Condition/fe3921ba-0ce4-3697-9941-d41d4dec2a15"
            }
        },
        {
            "fullUrl": "urn:uuid:6720acdb-37b7-35c0-bcc5-227a628b2a1d",
            "resource": {
                "resourceType": "Condition",
                "id": "6720acdb-37b7-35c0-bcc5-227a628b2a1d",
                "identifier": [
                    {
                        "system": "urn:ietf:rfc:3986",
                        "value": "urn:uuid:11d088a8-b957-401c-8ee0-3bd20a772fc0"
                    }
                ],
                "code": {
                    "coding": [
                        {
                            "code": "29857009",
                            "display": "Chest pain",
                            "system": "http://snomed.info/sct"
                        }
                    ]
                },
                "onsetDateTime": "2007-04-14",
                "subject": {
                    "reference": "Patient/2745d583-e3d1-3f88-8b21-7b59adb60779"
                }
            },
            "request": {
                "method": "PUT",
                "url": "Condition/6720acdb-37b7-35c0-bcc5-227a628b2a1d"
            }
        },
        {
            "fullUrl": "urn:uuid:ff1f5a35-2e5d-33c2-a334-2762e7713278",
            "resource": {
                "resourceType": "Condition",
                "id": "ff1f5a35-2e5d-33c2-a334-2762e7713278",
                "identifier": [
                    {
                        "system": "urn:ietf:rfc:3986",
                        "value": "urn:uuid:4991db40-4c4f-41e8-9146-50c12d716424"
                    }
                ],
                "code": {
                    "coding": [
                        {
                            "code": "194828000",
                            "display": "Angina",
                            "system": "http://snomed.info/sct"
                        }
                    ]
                },
                "onsetDateTime": "2007-04-17",
                "subject": {
                    "reference": "Patient/2745d583-e3d1-3f88-8b21-7b59adb60779"
                }
            },
            "request": {
                "method": "PUT",
                "url": "Condition/ff1f5a35-2e5d-33c2-a334-2762e7713278"
            }
        },
        {
            "fullUrl": "urn:uuid:c2d298e3-72cc-3080-ad27-9e44df8f8838",
            "resource": {
                "resourceType": "Condition",
                "id": "c2d298e3-72cc-3080-ad27-9e44df8f8838",
                "identifier": [
                    {
                        "system": "urn:ietf:rfc:3986",
                        "value": "urn:uuid:10506b4d-c30a-4220-8bec-97bff9568fd1"
                    }
                ],
                "code": {
                    "coding": [
                        {
                            "code": "233604007",
                            "display": "Pneumonia",
                            "system": "http://snomed.info/sct"
                        }
                    ]
                },
                "onsetDateTime": "1998-03-10",
                "subject": {
                    "reference": "Patient/2745d583-e3d1-3f88-8b21-7b59adb60779"
                }
            },
            "request": {
                "method": "PUT",
                "url": "Condition/c2d298e3-72cc-3080-ad27-9e44df8f8838"
            }
        },
        {
            "fullUrl": "urn:uuid:9289bbaf-5efc-3efd-ac7b-cc0d8366e894",
            "resource": {
                "resourceType": "DiagnosticReport",
                "id": "9289bbaf-5efc-3efd-ac7b-cc0d8366e894",
                "identifier": [
                    {
                        "system": "urn:ietf:rfc:3986",
                        "value": "urn:uuid:7d5a02b0-67a4-11db-bd13-0800200c9a66"
                    }
                ],
                "status": "final",
                "code": {
                    "coding": [
                        {
                            "code": "57021-8",
                            "display": "CBC W Auto Differential panel in Blood",
                            "system": "http://loinc.org"
                        }
                    ]
                },
                "effectivePeriod": {
                    "start": "2008-03-19T16:30:00.000Z",
                    "end": "2008-03-19T16:30:00.000Z"
                },
                "subject": {
                    "reference": "Patient/2745d583-e3d1-3f88-8b21-7b59adb60779"
                },
                "result": [
                    {
                        "reference": "Observation/d69fcec5-09fa-34ca-bbe6-56eada35158b"
                    },
                    {
                        "reference": "Observation/8daa65f1-56a5-30b0-ba29-716afc8d0a6b"
                    },
                    {
                        "reference": "Observation/59202cba-545e-3f39-a3ae-36a3a0f498be"
                    },
                    {
                        "reference": "Observation/91b4c48a-faa3-3525-97b9-be9945de9947"
                    },
                    {
                        "reference": "Observation/ffadc0ed-1c62-35f7-a934-9d05942c3310"
                    }
                ]
            },
            "request": {
                "method": "PUT",
                "url": "DiagnosticReport/9289bbaf-5efc-3efd-ac7b-cc0d8366e894"
            }
        },
        {
            "fullUrl": "urn:uuid:d69fcec5-09fa-34ca-bbe6-56eada35158b",
            "resource": {
                "resourceType": "Observation",
                "meta": {
                    "profile": [
                        "http://hl7.org/fhir/us/core/StructureDefinition/us-core-observationresults"
                    ]
                },
                "id": "d69fcec5-09fa-34ca-bbe6-56eada35158b",
                "identifier": [
                    {
                        "system": "urn:ietf:rfc:3986",
                        "value": "urn:uuid:107c2dc0-67a5-11db-bd13-0800200c9a66"
                    }
                ],
                "category": [
                    {
                        "coding": [
                            {
                                "system": "http://terminology.hl7.org/CodeSystem/observation-category",
                                "code": "laboratory"
                            }
                        ]
                    }
                ],
                "status": "final",
                "code": {
                    "coding": [
                        {
                            "code": "718-7",
                            "display": "Hemoglobin",
                            "system": "http://loinc.org"
                        }
                    ]
                },
                "effectiveDateTime": "2008-03-19T16:30:00.000Z",
                "valueQuantity": {
                    "value": 13.2,
                    "unit": "g/dL"
                },
                "referenceRange": [
                    {
                        "low": {
                            "value": 12,
                            "unit": "g/dL"
                        },
                        "high": {
                            "value": 15.5,
                            "unit": "g/dL"
                        }
                    }
                ],
                "interpretation": [
                    {
                        "coding": [
                            {
                                "code": "N",
                                "system": "http://terminology.hl7.org/CodeSystem/v3-ObservationInterpretation"
                            }
                        ]
                    }
                ],
                "subject": {
                    "reference": "Patient/2745d583-e3d1-3f88-8b21-7b59adb60779"
                },
                "performer": [
                    {
                        "reference": "Practitioner/7b28babc-fd6e-3540-b98f-2b6a0901138d"
                    }
                ]
            },
            "request": {
                "method": "PUT",
                "url": "Observation/d69fcec5-09fa-34ca-bbe6-56eada35158b"
            }
        },
        {
            "fullUrl": "urn:uuid:8daa65f1-56a5-30b0-ba29-716afc8d0a6b",
            "resource": {
                "resourceType": "Observation",
                "meta": {
                    "profile": [
                        "http://hl7.org/fhir/us/core/StructureDefinition/us-core-observationresults"
                    ]
                },
                "id": "8daa65f1-56a5-30b0-ba29-716afc8d0a6b",
                "identifier": [
                    {
                        "system": "urn:ietf:rfc:3986",
                        "value": "urn:uuid:a69b3d60-2ffd-4440-958b-72b3335ff35f"
                    }
                ],
                "category": [
                    {
                        "coding": [
                            {
                                "system": "http://terminology.hl7.org/CodeSystem/observation-category",
                                "code": "laboratory"
                            }
                        ]
                    }
                ],
                "status": "final",
                "code": {
                    "coding": [
                        {
                            "code": "6690-2",
                            "display": "Leukocytes",
                            "system": "http://loinc.org"
                        }
                    ]
                },
                "effectiveDateTime": "2008-03-19T16:30:00.000Z",
                "valueQuantity": {
                    "value": 6.7,
                    "unit": "10*9/L"
                },
                "referenceRange": [
                    {
                        "low": {
                            "value": 4.3,
                            "unit": "10*9/L"
                        },
                        "high": {
                            "value": 10.8,
                            "unit": "10*9/L"
                        }
                    }
                ],
                "interpretation": [
                    {
                        "coding": [
                            {
                                "code": "N",
                                "system": "http://terminology.hl7.org/CodeSystem/v3-ObservationInterpretation"
                            }
                        ]
                    }
                ],
                "subject": {
                    "reference": "Patient/2745d583-e3d1-3f88-8b21-7b59adb60779"
                },
                "performer": [
                    {
                        "reference": "Practitioner/7b28babc-fd6e-3540-b98f-2b6a0901138d"
                    }
                ]
            },
            "request": {
                "method": "PUT",
                "url": "Observation/8daa65f1-56a5-30b0-ba29-716afc8d0a6b"
            }
        },
        {
            "fullUrl": "urn:uuid:59202cba-545e-3f39-a3ae-36a3a0f498be",
            "resource": {
                "resourceType": "Observation",
                "meta": {
                    "profile": [
                        "http://hl7.org/fhir/us/core/StructureDefinition/us-core-observationresults"
                    ]
                },
                "id": "59202cba-545e-3f39-a3ae-36a3a0f498be",
                "identifier": [
                    {
                        "system": "urn:ietf:rfc:3986",
                        "value": "urn:uuid:ef5c1c58-4665-4556-a8e8-6e720d82f572"
                    }
                ],
                "category": [
                    {
                        "coding": [
                            {
                                "system": "http://terminology.hl7.org/CodeSystem/observation-category",
                                "code": "laboratory"
                            }
                        ]
                    }
                ],
                "status": "final",
                "code": {
                    "coding": [
                        {
                            "code": "777-3",
                            "display": "Platelets",
                            "system": "http://loinc.org"
                        }
                    ]
                },
                "effectiveDateTime": "2008-03-19T16:30:00.000Z",
                "valueQuantity": {
                    "value": 123,
                    "unit": "10*9/L"
                },
                "referenceRange": [
                    {
                        "low": {
                            "value": 150,
                            "unit": "10*9/L"
                        },
                        "high": {
                            "value": 350,
                            "unit": "10*9/L"
                        }
                    }
                ],
                "interpretation": [
                    {
                        "coding": [
                            {
                                "code": "LX",
                                "system": "http://terminology.hl7.org/CodeSystem/v3-ObservationInterpretation"
                            }
                        ]
                    }
                ],
                "subject": {
                    "reference": "Patient/2745d583-e3d1-3f88-8b21-7b59adb60779"
                },
                "performer": [
                    {
                        "reference": "Practitioner/7b28babc-fd6e-3540-b98f-2b6a0901138d"
                    }
                ]
            },
            "request": {
                "method": "PUT",
                "url": "Observation/59202cba-545e-3f39-a3ae-36a3a0f498be"
            }
        },
        {
            "fullUrl": "urn:uuid:91b4c48a-faa3-3525-97b9-be9945de9947",
            "resource": {
                "resourceType": "Observation",
                "meta": {
                    "profile": [
                        "http://hl7.org/fhir/us/core/StructureDefinition/us-core-observationresults"
                    ]
                },
                "id": "91b4c48a-faa3-3525-97b9-be9945de9947",
                "identifier": [
                    {
                        "system": "urn:ietf:rfc:3986",
                        "value": "urn:uuid:7c0704bb-9c40-41b5-9c7d-26b2d59e234f"
                    }
                ],
                "category": [
                    {
                        "coding": [
                            {
                                "system": "http://terminology.hl7.org/CodeSystem/observation-category",
                                "code": "laboratory"
                            }
                        ]
                    }
                ],
                "status": "final",
                "code": {
                    "coding": [
                        {
                            "code": "4544-3",
                            "display": "Hematocrit",
                            "system": "http://loinc.org"
                        }
                    ]
                },
                "effectiveDateTime": "2008-03-19T16:30:00.000Z",
                "valueQuantity": {
                    "value": 35.3,
                    "unit": "%"
                },
                "referenceRange": [
                    {
                        "low": {
                            "value": 34.9,
                            "unit": "%"
                        },
                        "high": {
                            "value": 44.5,
                            "unit": "%"
                        }
                    }
                ],
                "interpretation": [
                    {
                        "coding": [
                            {
                                "code": "LX",
                                "system": "http://terminology.hl7.org/CodeSystem/v3-ObservationInterpretation"
                            }
                        ]
                    }
                ],
                "subject": {
                    "reference": "Patient/2745d583-e3d1-3f88-8b21-7b59adb60779"
                },
                "performer": [
                    {
                        "reference": "Practitioner/7b28babc-fd6e-3540-b98f-2b6a0901138d"
                    }
                ]
            },
            "request": {
                "method": "PUT",
                "url": "Observation/91b4c48a-faa3-3525-97b9-be9945de9947"
            }
        },
        {
            "fullUrl": "urn:uuid:ffadc0ed-1c62-35f7-a934-9d05942c3310",
            "resource": {
                "resourceType": "Observation",
                "meta": {
                    "profile": [
                        "http://hl7.org/fhir/us/core/StructureDefinition/us-core-observationresults"
                    ]
                },
                "id": "ffadc0ed-1c62-35f7-a934-9d05942c3310",
                "identifier": [
                    {
                        "system": "urn:ietf:rfc:3986",
                        "value": "urn:uuid:bccd6fc9-0c7f-455e-8616-923ed0d04d09"
                    }
                ],
                "category": [
                    {
                        "coding": [
                            {
                                "system": "http://terminology.hl7.org/CodeSystem/observation-category",
                                "code": "laboratory"
                            }
                        ]
                    }
                ],
                "status": "final",
                "code": {
                    "coding": [
                        {
                            "code": "789-8",
                            "display": "Erythrocytes",
                            "system": "http://loinc.org"
                        }
                    ]
                },
                "effectiveDateTime": "2008-03-19T16:30:00.000Z",
                "valueQuantity": {
                    "value": 4.21,
                    "unit": "10*12/L"
                },
                "referenceRange": [
                    {
                        "low": {
                            "value": 3.9,
                            "unit": "10*12/L"
                        },
                        "high": {
                            "value": 5.03,
                            "unit": "10*12/L"
                        }
                    }
                ],
                "interpretation": [
                    {
                        "coding": [
                            {
                                "code": "N",
                                "system": "http://terminology.hl7.org/CodeSystem/v3-ObservationInterpretation"
                            }
                        ]
                    }
                ],
                "subject": {
                    "reference": "Patient/2745d583-e3d1-3f88-8b21-7b59adb60779"
                },
                "performer": [
                    {
                        "reference": "Practitioner/7b28babc-fd6e-3540-b98f-2b6a0901138d"
                    }
                ]
            },
            "request": {
                "method": "PUT",
                "url": "Observation/ffadc0ed-1c62-35f7-a934-9d05942c3310"
            }
        },
        {
            "fullUrl": "urn:uuid:604eb794-51f9-3b91-a36c-00ad393b3f6a",
            "resource": {
                "resourceType": "DiagnosticReport",
                "id": "604eb794-51f9-3b91-a36c-00ad393b3f6a",
                "identifier": [
                    {
                        "system": "urn:ietf:rfc:3986",
                        "value": "urn:uuid:122ed3ae-6d9e-43d0-bfa2-434ea34b1426"
                    }
                ],
                "status": "unknown",
                "code": {
                    "coding": [
                        {
                            "code": "166312007",
                            "display": "Blood chemistry test",
                            "system": "http://snomed.info/sct"
                        }
                    ]
                },
                "effectivePeriod": {
                    "start": "2008-03-20T17:30:00.000Z",
                    "end": "2008-03-20T17:30:00.000Z"
                },
                "subject": {
                    "reference": "Patient/2745d583-e3d1-3f88-8b21-7b59adb60779"
                },
                "result": [
                    {
                        "reference": "Observation/b916d6bd-e1db-3ccc-95aa-2d42351bcc8e"
                    }
                ]
            },
            "request": {
                "method": "PUT",
                "url": "DiagnosticReport/604eb794-51f9-3b91-a36c-00ad393b3f6a"
            }
        },
        {
            "fullUrl": "urn:uuid:b916d6bd-e1db-3ccc-95aa-2d42351bcc8e",
            "resource": {
                "resourceType": "Observation",
                "meta": {
                    "profile": [
                        "http://hl7.org/fhir/us/core/StructureDefinition/us-core-observationresults"
                    ]
                },
                "id": "b916d6bd-e1db-3ccc-95aa-2d42351bcc8e",
                "identifier": [
                    {
                        "system": "urn:ietf:rfc:3986",
                        "value": "urn:uuid:aed821af-3330-4138-97f0-e84dfe5f3c35"
                    }
                ],
                "category": [
                    {
                        "coding": [
                            {
                                "system": "http://terminology.hl7.org/CodeSystem/observation-category",
                                "code": "laboratory"
                            }
                        ]
                    }
                ],
                "status": "unknown",
                "code": {
                    "coding": [
                        {
                            "code": "3094-0",
                            "display": "Urea nitrogen, Serum",
                            "system": "http://loinc.org"
                        }
                    ]
                },
                "effectiveDateTime": "2008-03-20T17:30:00.000Z",
                "subject": {
                    "reference": "Patient/2745d583-e3d1-3f88-8b21-7b59adb60779"
                }
            },
            "request": {
                "method": "PUT",
                "url": "Observation/b916d6bd-e1db-3ccc-95aa-2d42351bcc8e"
            }
        },
        {
            "fullUrl": "urn:uuid:8011987a-64f9-3597-8be6-dfa0ceafef24",
            "resource": {
                "resourceType": "Observation",
                "meta": {
                    "profile": [
                        "http://hl7.org/fhir/us/core/StructureDefinition/us-core-observationresults"
                    ]
                },
                "id": "8011987a-64f9-3597-8be6-dfa0ceafef24",
                "identifier": [
                    {
                        "system": "urn:oid:2.16.840.1.113883.19",
                        "value": "123456789"
                    }
                ],
                "category": [
                    {
                        "coding": [
                            {
                                "system": "http://terminology.hl7.org/CodeSystem/observation-category",
                                "code": "social-history"
                            }
                        ]
                    }
                ],
                "status": "final",
                "code": {
                    "coding": [
                        {
                            "code": "72166-2",
                            "display": "Tobacco smoking status NHIS",
                            "system": "http://loinc.org"
                        }
                    ]
                },
                "effectiveDateTime": "2012-09-10",
                "valueCodeableConcept": {
                    "coding": [
                        {
                            "code": "8517006",
                            "display": "Former smoker",
                            "system": "http://snomed.info/sct"
                        }
                    ]
                },
                "subject": {
                    "reference": "Patient/2745d583-e3d1-3f88-8b21-7b59adb60779"
                }
            },
            "request": {
                "method": "PUT",
                "url": "Observation/8011987a-64f9-3597-8be6-dfa0ceafef24"
            }
        },
        {
            "fullUrl": "urn:uuid:ec060e42-f0f0-31dd-84ec-ae03ef78bba5",
            "resource": {
                "resourceType": "Observation",
                "meta": {
                    "profile": [
                        "http://hl7.org/fhir/us/core/StructureDefinition/us-core-observationresults"
                    ]
                },
                "id": "ec060e42-f0f0-31dd-84ec-ae03ef78bba5",
                "identifier": [
                    {
                        "system": "urn:ietf:rfc:3986",
                        "value": "urn:uuid:45efb604-7049-4a2e-ad33-d38556c9636c"
                    }
                ],
                "category": [
                    {
                        "coding": [
                            {
                                "system": "http://terminology.hl7.org/CodeSystem/observation-category",
                                "code": "social-history"
                            }
                        ]
                    }
                ],
                "status": "final",
                "code": {
                    "coding": [
                        {
                            "code": "11367-0",
                            "display": "History of tobacco use",
                            "system": "http://loinc.org"
                        }
                    ]
                },
                "effectivePeriod": {
                    "start": "2009-02-14",
                    "end": "2011-02-15"
                },
                "valueCodeableConcept": {
                    "coding": [
                        {
                            "code": "160604004",
                            "display": "Moderate cigarette smoker, 10-19/day",
                            "system": "http://snomed.info/sct"
                        }
                    ]
                },
                "subject": {
                    "reference": "Patient/2745d583-e3d1-3f88-8b21-7b59adb60779"
                }
            },
            "request": {
                "method": "PUT",
                "url": "Observation/ec060e42-f0f0-31dd-84ec-ae03ef78bba5"
            }
        },
        {
            "fullUrl": "urn:uuid:55ad9224-8e4c-343a-a7ae-b33bedb55592",
            "resource": {
                "resourceType": "Observation",
                "meta": {
                    "profile": [
                        "http://hl7.org/fhir/us/core/StructureDefinition/us-core-observationresults"
                    ]
                },
                "id": "55ad9224-8e4c-343a-a7ae-b33bedb55592",
                "identifier": [
                    {
                        "system": "urn:ietf:rfc:3986",
                        "value": "urn:uuid:37f76c51-6411-4e1d-8a37-957fd49d2cef"
                    }
                ],
                "category": [
                    {
                        "coding": [
                            {
                                "system": "http://terminology.hl7.org/CodeSystem/observation-category",
                                "code": "social-history"
                            }
                        ]
                    }
                ],
                "status": "final",
                "code": {
                    "coding": [
                        {
                            "code": "74013-4",
                            "display": "Alcoholic drinks per day",
                            "system": "http://loinc.org"
                        }
                    ]
                },
                "effectivePeriod": {
                    "start": "2012-02-15"
                },
                "valueQuantity": {
                    "value": 12
                },
                "subject": {
                    "reference": "Patient/2745d583-e3d1-3f88-8b21-7b59adb60779"
                }
            },
            "request": {
                "method": "PUT",
                "url": "Observation/55ad9224-8e4c-343a-a7ae-b33bedb55592"
            }
        },
        {
            "fullUrl": "urn:uuid:2acb6132-b9da-300b-9045-a7a13e2978a7",
            "resource": {
                "resourceType": "Observation",
                "meta": {
                    "profile": [
                        "http://hl7.org/fhir/us/core/StructureDefinition/us-core-observationresults"
                    ]
                },
                "id": "2acb6132-b9da-300b-9045-a7a13e2978a7",
                "identifier": [
                    {
                        "system": "urn:ietf:rfc:3986",
                        "value": "urn:uuid:ed9589fd-fda0-41f7-a3d0-dc537554f5c2"
                    }
                ],
                "category": [
                    {
                        "coding": [
                            {
                                "system": "http://terminology.hl7.org/CodeSystem/observation-category",
                                "code": "vital-signs"
                            }
                        ]
                    }
                ],
                "status": "final",
                "code": {
                    "coding": [
                        {
                            "code": "8302-2",
                            "display": "Height",
                            "system": "http://loinc.org"
                        }
                    ]
                },
                "effectiveDateTime": "2012-09-10",
                "valueQuantity": {
                    "value": 177,
                    "unit": "cm"
                },
                "interpretation": [
                    {
                        "coding": [
                            {
                                "code": "N",
                                "system": "http://terminology.hl7.org/CodeSystem/v3-ObservationInterpretation"
                            }
                        ]
                    }
                ],
                "subject": {
                    "reference": "Patient/2745d583-e3d1-3f88-8b21-7b59adb60779"
                }
            },
            "request": {
                "method": "PUT",
                "url": "Observation/2acb6132-b9da-300b-9045-a7a13e2978a7"
            }
        },
        {
            "fullUrl": "urn:uuid:0f9756cd-c832-3fd0-a3f9-d01073708e64",
            "resource": {
                "resourceType": "Observation",
                "meta": {
                    "profile": [
                        "http://hl7.org/fhir/us/core/StructureDefinition/us-core-observationresults"
                    ]
                },
                "id": "0f9756cd-c832-3fd0-a3f9-d01073708e64",
                "identifier": [
                    {
                        "system": "urn:ietf:rfc:3986",
                        "value": "urn:uuid:f4e729e2-a97f-4a7e-8e23-c92f9b6b55cf"
                    }
                ],
                "category": [
                    {
                        "coding": [
                            {
                                "system": "http://terminology.hl7.org/CodeSystem/observation-category",
                                "code": "vital-signs"
                            }
                        ]
                    }
                ],
                "status": "final",
                "code": {
                    "coding": [
                        {
                            "code": "3141-9",
                            "display": "Patient Body Weight - Measured",
                            "system": "http://loinc.org"
                        }
                    ]
                },
                "effectiveDateTime": "2012-09-10",
                "valueQuantity": {
                    "value": 86,
                    "unit": "kg"
                },
                "interpretation": [
                    {
                        "coding": [
                            {
                                "code": "N",
                                "system": "http://terminology.hl7.org/CodeSystem/v3-ObservationInterpretation"
                            }
                        ]
                    }
                ],
                "subject": {
                    "reference": "Patient/2745d583-e3d1-3f88-8b21-7b59adb60779"
                }
            },
            "request": {
                "method": "PUT",
                "url": "Observation/0f9756cd-c832-3fd0-a3f9-d01073708e64"
            }
        },
        {
            "fullUrl": "urn:uuid:e9dbdbd1-4eae-3121-b50a-445f9f7ec8c8",
            "resource": {
                "resourceType": "Observation",
                "meta": {
                    "profile": [
                        "http://hl7.org/fhir/us/core/StructureDefinition/us-core-observationresults"
                    ]
                },
                "id": "e9dbdbd1-4eae-3121-b50a-445f9f7ec8c8",
                "identifier": [
                    {
                        "system": "urn:ietf:rfc:3986",
                        "value": "urn:uuid:a0e39c70-9674-4b2a-9837-cdf74200d8d5"
                    }
                ],
                "category": [
                    {
                        "coding": [
                            {
                                "system": "http://terminology.hl7.org/CodeSystem/observation-category",
                                "code": "vital-signs"
                            }
                        ]
                    }
                ],
                "status": "final",
                "code": {
                    "coding": [
                        {
                            "code": "8480-6",
                            "display": "Intravascular Systolic",
                            "system": "http://loinc.org"
                        }
                    ]
                },
                "effectiveDateTime": "2012-09-10",
                "valueQuantity": {
                    "value": 132,
                    "unit": "mm[Hg]"
                },
                "interpretation": [
                    {
                        "coding": [
                            {
                                "code": "N",
                                "system": "http://terminology.hl7.org/CodeSystem/v3-ObservationInterpretation"
                            }
                        ]
                    }
                ],
                "subject": {
                    "reference": "Patient/2745d583-e3d1-3f88-8b21-7b59adb60779"
                }
            },
            "request": {
                "method": "PUT",
                "url": "Observation/e9dbdbd1-4eae-3121-b50a-445f9f7ec8c8"
            }
        },
        {
            "fullUrl": "urn:uuid:90919ed9-fcf8-378d-b628-eacc062f467b",
            "resource": {
                "resourceType": "Observation",
                "meta": {
                    "profile": [
                        "http://hl7.org/fhir/us/core/StructureDefinition/us-core-observationresults"
                    ]
                },
                "id": "90919ed9-fcf8-378d-b628-eacc062f467b",
                "identifier": [
                    {
                        "system": "urn:ietf:rfc:3986",
                        "value": "urn:uuid:1c2748b7-e440-41ba-bc01-dde97d84a036"
                    }
                ],
                "category": [
                    {
                        "coding": [
                            {
                                "system": "http://terminology.hl7.org/CodeSystem/observation-category",
                                "code": "vital-signs"
                            }
                        ]
                    }
                ],
                "status": "final",
                "code": {
                    "coding": [
                        {
                            "code": "8462-4",
                            "display": "BP Diastolic",
                            "system": "http://loinc.org"
                        }
                    ]
                },
                "effectiveDateTime": "2012-09-10",
                "valueQuantity": {
                    "value": 88,
                    "unit": "mm[Hg]"
                },
                "interpretation": [
                    {
                        "coding": [
                            {
                                "code": "N",
                                "system": "http://terminology.hl7.org/CodeSystem/v3-ObservationInterpretation"
                            }
                        ]
                    }
                ],
                "subject": {
                    "reference": "Patient/2745d583-e3d1-3f88-8b21-7b59adb60779"
                }
            },
            "request": {
                "method": "PUT",
                "url": "Observation/90919ed9-fcf8-378d-b628-eacc062f467b"
            }
        },
        {
            "fullUrl": "urn:uuid:6cdf939b-5ba1-38a7-9857-57a75865b8cd",
            "resource": {
                "resourceType": "Observation",
                "meta": {
                    "profile": [
                        "http://hl7.org/fhir/us/core/StructureDefinition/us-core-observationresults"
                    ]
                },
                "id": "6cdf939b-5ba1-38a7-9857-57a75865b8cd",
                "identifier": [
                    {
                        "system": "urn:ietf:rfc:3986",
                        "value": "urn:uuid:05c047cd-28c3-41cd-be6c-56f8cc0c3f2f"
                    }
                ],
                "category": [
                    {
                        "coding": [
                            {
                                "system": "http://terminology.hl7.org/CodeSystem/observation-category",
                                "code": "vital-signs"
                            }
                        ]
                    }
                ],
                "status": "final",
                "code": {
                    "coding": [
                        {
                            "code": "8302-2",
                            "display": "Height",
                            "system": "http://loinc.org"
                        }
                    ]
                },
                "effectiveDateTime": "2011-09-01",
                "valueQuantity": {
                    "value": 177,
                    "unit": "cm"
                },
                "interpretation": [
                    {
                        "coding": [
                            {
                                "code": "N",
                                "system": "http://terminology.hl7.org/CodeSystem/v3-ObservationInterpretation"
                            }
                        ]
                    }
                ],
                "subject": {
                    "reference": "Patient/2745d583-e3d1-3f88-8b21-7b59adb60779"
                }
            },
            "request": {
                "method": "PUT",
                "url": "Observation/6cdf939b-5ba1-38a7-9857-57a75865b8cd"
            }
        },
        {
            "fullUrl": "urn:uuid:af05b1fa-d85b-3f89-bd56-335e996fbf6f",
            "resource": {
                "resourceType": "Observation",
                "meta": {
                    "profile": [
                        "http://hl7.org/fhir/us/core/StructureDefinition/us-core-observationresults"
                    ]
                },
                "id": "af05b1fa-d85b-3f89-bd56-335e996fbf6f",
                "identifier": [
                    {
                        "system": "urn:ietf:rfc:3986",
                        "value": "urn:uuid:21b0f3d5-7d07-4f4f-ad7e-c33dc2ca3835"
                    }
                ],
                "category": [
                    {
                        "coding": [
                            {
                                "system": "http://terminology.hl7.org/CodeSystem/observation-category",
                                "code": "vital-signs"
                            }
                        ]
                    }
                ],
                "status": "final",
                "code": {
                    "coding": [
                        {
                            "code": "3141-9",
                            "display": "Patient Body Weight - Measured",
                            "system": "http://loinc.org"
                        }
                    ]
                },
                "effectiveDateTime": "2011-09-01",
                "valueQuantity": {
                    "value": 88,
                    "unit": "kg"
                },
                "interpretation": [
                    {
                        "coding": [
                            {
                                "code": "N",
                                "system": "http://terminology.hl7.org/CodeSystem/v3-ObservationInterpretation"
                            }
                        ]
                    }
                ],
                "subject": {
                    "reference": "Patient/2745d583-e3d1-3f88-8b21-7b59adb60779"
                }
            },
            "request": {
                "method": "PUT",
                "url": "Observation/af05b1fa-d85b-3f89-bd56-335e996fbf6f"
            }
        },
        {
            "fullUrl": "urn:uuid:4916ec8d-9da6-3122-8df4-0dd65a468c21",
            "resource": {
                "resourceType": "Observation",
                "meta": {
                    "profile": [
                        "http://hl7.org/fhir/us/core/StructureDefinition/us-core-observationresults"
                    ]
                },
                "id": "4916ec8d-9da6-3122-8df4-0dd65a468c21",
                "identifier": [
                    {
                        "system": "urn:ietf:rfc:3986",
                        "value": "urn:uuid:b046c35a-59c7-4215-ae09-9a8409a30b21"
                    }
                ],
                "category": [
                    {
                        "coding": [
                            {
                                "system": "http://terminology.hl7.org/CodeSystem/observation-category",
                                "code": "vital-signs"
                            }
                        ]
                    }
                ],
                "status": "final",
                "code": {
                    "coding": [
                        {
                            "code": "8480-6",
                            "display": "BP Systolic",
                            "system": "http://loinc.org"
                        }
                    ]
                },
                "effectiveDateTime": "2011-09-01",
                "valueQuantity": {
                    "value": 128,
                    "unit": "mm[Hg]"
                },
                "interpretation": [
                    {
                        "coding": [
                            {
                                "code": "N",
                                "system": "http://terminology.hl7.org/CodeSystem/v3-ObservationInterpretation"
                            }
                        ]
                    }
                ],
                "subject": {
                    "reference": "Patient/2745d583-e3d1-3f88-8b21-7b59adb60779"
                }
            },
            "request": {
                "method": "PUT",
                "url": "Observation/4916ec8d-9da6-3122-8df4-0dd65a468c21"
            }
        },
        {
            "fullUrl": "urn:uuid:629b0cbb-efd2-3938-9757-a26883d7991e",
            "resource": {
                "resourceType": "Observation",
                "meta": {
                    "profile": [
                        "http://hl7.org/fhir/us/core/StructureDefinition/us-core-observationresults"
                    ]
                },
                "id": "629b0cbb-efd2-3938-9757-a26883d7991e",
                "identifier": [
                    {
                        "system": "urn:ietf:rfc:3986",
                        "value": "urn:uuid:44f54e66-fb4b-4ee5-9ced-9574ef307a23"
                    }
                ],
                "category": [
                    {
                        "coding": [
                            {
                                "system": "http://terminology.hl7.org/CodeSystem/observation-category",
                                "code": "vital-signs"
                            }
                        ]
                    }
                ],
                "status": "final",
                "code": {
                    "coding": [
                        {
                            "code": "8462-4",
                            "display": "BP Diastolic",
                            "system": "http://loinc.org"
                        }
                    ]
                },
                "effectiveDateTime": "2011-09-01",
                "valueQuantity": {
                    "value": 80,
                    "unit": "mm[Hg]"
                },
                "interpretation": [
                    {
                        "coding": [
                            {
                                "code": "N",
                                "system": "http://terminology.hl7.org/CodeSystem/v3-ObservationInterpretation"
                            }
                        ]
                    }
                ],
                "subject": {
                    "reference": "Patient/2745d583-e3d1-3f88-8b21-7b59adb60779"
                }
            },
            "request": {
                "method": "PUT",
                "url": "Observation/629b0cbb-efd2-3938-9757-a26883d7991e"
            }
        },
        {
            "fullUrl": "urn:uuid:af051988-60b4-3619-85d9-b4931f5aca8d",
            "resource": {
                "resourceType": "Procedure",
                "meta": {
                    "profile": [
                        "http://hl7.org/fhir/us/core/StructureDefinition/us-core-procedure"
                    ]
                },
                "id": "af051988-60b4-3619-85d9-b4931f5aca8d",
                "identifier": [
                    {
                        "system": "urn:ietf:rfc:3986",
                        "value": "urn:uuid:d68b7e32-7810-4f5b-9cc2-acd54b0fd85d"
                    }
                ],
                "status": "completed",
                "code": {
                    "coding": [
                        {
                            "code": "73761001",
                            "display": "Colonoscopy",
                            "system": "http://snomed.info/sct"
                        }
                    ]
                },
                "performedDateTime": "2012-05-12",
                "bodySite": [
                    {
                        "coding": [
                            {
                                "code": "appropriate_code",
                                "display": "colon",
                                "system": "http://snomed.info/sct"
                            }
                        ]
                    }
                ],
                "subject": {
                    "reference": "Patient/2745d583-e3d1-3f88-8b21-7b59adb60779"
                },
                "performer": [
                    {
                        "actor": {
                            "reference": "Organization/ab91a755-ac56-32bd-8c3e-9450e90b5533"
                        }
                    }
                ]
            },
            "request": {
                "method": "PUT",
                "url": "Procedure/af051988-60b4-3619-85d9-b4931f5aca8d"
            }
        },
        {
            "fullUrl": "urn:uuid:ab91a755-ac56-32bd-8c3e-9450e90b5533",
            "resource": {
                "resourceType": "Organization",
                "id": "ab91a755-ac56-32bd-8c3e-9450e90b5533",
                "identifier": [
                    {
                        "system": "urn:ietf:rfc:3986",
                        "value": "urn:uuid:2.16.840.1.113883.19.5.9999.1393"
                    }
                ],
                "name": "Community Health and Hospitals",
                "address": [
                    {
                        "line": [
                            "1001 Village Avenue"
                        ],
                        "city": "Portland",
                        "state": "OR",
                        "country": "US",
                        "postalCode": "99123"
                    }
                ]
            },
            "request": {
                "method": "PUT",
                "url": "Organization/ab91a755-ac56-32bd-8c3e-9450e90b5533"
            }
        },
        {
            "fullUrl": "urn:uuid:8adb73ae-7f37-3677-8658-6e5613ee41da",
            "resource": {
                "resourceType": "Observation",
                "meta": {
                    "profile": [
                        "http://hl7.org/fhir/us/core/StructureDefinition/us-core-observationresults"
                    ]
                },
                "id": "8adb73ae-7f37-3677-8658-6e5613ee41da",
                "identifier": [
                    {
                        "system": "urn:oid:2.16.840.1.113883.19",
                        "value": "123456789"
                    }
                ],
                "category": [
                    {
                        "coding": [
                            {
                                "system": "http://terminology.hl7.org/CodeSystem/observation-category",
                                "code": "procedure"
                            }
                        ]
                    }
                ],
                "status": "unknown",
                "code": {
                    "coding": [
                        {
                            "code": "274025005",
                            "display": "Colonic polypectomy",
                            "system": "http://snomed.info/sct"
                        }
                    ]
                },
                "effectiveDateTime": "2011-02-03",
                "bodySite": {
                    "coding": [
                        {
                            "code": "416949008",
                            "display": "Abdomen and pelvis",
                            "system": "http://snomed.info/sct"
                        }
                    ]
                },
                "subject": {
                    "reference": "Patient/2745d583-e3d1-3f88-8b21-7b59adb60779"
                }
            },
            "request": {
                "method": "PUT",
                "url": "Observation/8adb73ae-7f37-3677-8658-6e5613ee41da"
            }
        },
        {
            "fullUrl": "urn:uuid:92d8ae57-642b-3c3f-9b42-d2288e192af1",
            "resource": {
                "resourceType": "Encounter",
                "id": "92d8ae57-642b-3c3f-9b42-d2288e192af1",
                "status": "unknown",
                "class": {
                    "code": "99213",
                    "display": "Office outpatient visit 15 minutes",
                    "system": "urn:oid:2.16.840.1.113883.6.12"
                },
                "type": [
                    {
                        "coding": [
                            {
                                "code": "99213",
                                "display": "Office outpatient visit 15 minutes",
                                "system": "urn:oid:2.16.840.1.113883.6.12"
                            }
                        ]
                    }
                ],
                "identifier": [
                    {
                        "system": "urn:ietf:rfc:3986",
                        "value": "urn:uuid:2a620155-9d11-439e-92b3-5d9815ff4de8"
                    }
                ],
                "subject": {
                    "reference": "Patient/2745d583-e3d1-3f88-8b21-7b59adb60779"
                },
                "participant": [
                    {
                        "individual": {
                            "reference": "Practitioner/0e9f2de7-8312-3017-9c6d-0a27c4fe93b4"
                        }
                    }
                ],
                "location": [
                    {
                        "location": {
                            "reference": "Location/ff72d168-7cca-37a1-b430-89b694a4b8e6"
                        }
                    }
                ]
            },
            "request": {
                "method": "PUT",
                "url": "Encounter/92d8ae57-642b-3c3f-9b42-d2288e192af1"
            }
        },
        {
            "fullUrl": "urn:uuid:0e9f2de7-8312-3017-9c6d-0a27c4fe93b4",
            "resource": {
                "resourceType": "Practitioner",
                "meta": {
                    "profile": [
                        "http://hl7.org/fhir/us/core/StructureDefinition/us-core-practitioner"
                    ]
                },
                "id": "0e9f2de7-8312-3017-9c6d-0a27c4fe93b4",
                "identifier": [
                    {
                        "system": "http://hl7.org/fhir/sid/us-npi",
                        "value": "333444555"
                    }
                ],
                "qualification": [
                    {
                        "code": {
                            "coding": [
                                {
                                    "code": "59058001",
                                    "display": "General Physician",
                                    "system": "http://snomed.info/sct"
                                }
                            ]
                        }
                    }
                ]
            },
            "request": {
                "method": "PUT",
                "url": "Practitioner/0e9f2de7-8312-3017-9c6d-0a27c4fe93b4"
            }
        },
        {
            "fullUrl": "urn:uuid:ff72d168-7cca-37a1-b430-89b694a4b8e6",
            "resource": {
                "resourceType": "Location",
                "id": "ff72d168-7cca-37a1-b430-89b694a4b8e6",
                "name": "Good Health Urgent Care",
                "address": {
                    "line": [
                        "1007 Health Drive"
                    ],
                    "city": "Portland",
                    "state": "OR",
                    "country": "US",
                    "postalCode": "99123"
                },
                "telecom": [
                    {
                        "system": "phone",
                        "value": "+1(555)555-1030",
                        "use": "work"
                    }
                ],
                "type": [
                    {
                        "coding": [
                            {
                                "code": "1160-1",
                                "display": "Urgent Care Center",
                                "system": "urn:oid:2.16.840.1.113883.6.259"
                            }
                        ]
                    }
                ]
            },
            "request": {
                "method": "PUT",
                "url": "Location/ff72d168-7cca-37a1-b430-89b694a4b8e6"
            }
        },
        {
            "fullUrl": "urn:uuid:c5fd5033-3d18-3d01-b862-59010b5df38d",
            "resource": {
                "resourceType": "Immunization",
                "id": "c5fd5033-3d18-3d01-b862-59010b5df38d",
                "identifier": [
                    {
                        "system": "urn:ietf:rfc:3986",
                        "value": "urn:uuid:e6f1ba43-c0ed-4b9b-9f12-f435d8ad8f92"
                    }
                ],
                "occurrenceDateTime": "1999-11",
                "vaccineCode": {
                    "coding": [
                        {
                            "code": "88",
                            "display": "Influenza virus vaccine",
                            "system": "http://hl7.org/fhir/sid/cvx"
                        }
                    ]
                },
                "status": "completed",
                "route": {
                    "coding": [
                        {
                            "code": "C28161",
                            "display": "Intramuscular injection",
                            "system": "urn:oid:2.16.840.1.113883.3.26.1.1"
                        }
                    ]
                },
                "patient": {
                    "reference": "Patient/2745d583-e3d1-3f88-8b21-7b59adb60779"
                }
            },
            "request": {
                "method": "PUT",
                "url": "Immunization/c5fd5033-3d18-3d01-b862-59010b5df38d"
            }
        },
        {
            "fullUrl": "urn:uuid:eed03d0c-fb75-3fbc-ae01-b220ee3b64b6",
            "resource": {
                "resourceType": "Immunization",
                "id": "eed03d0c-fb75-3fbc-ae01-b220ee3b64b6",
                "identifier": [
                    {
                        "system": "urn:ietf:rfc:3986",
                        "value": "urn:uuid:e6f1ba43-c0ed-4b9b-9f12-f435d8ad8f92"
                    }
                ],
                "occurrenceDateTime": "1998-12-15",
                "vaccineCode": {
                    "coding": [
                        {
                            "code": "88",
                            "display": "Influenza virus vaccine",
                            "system": "http://hl7.org/fhir/sid/cvx"
                        }
                    ]
                },
                "status": "completed",
                "route": {
                    "coding": [
                        {
                            "code": "C28161",
                            "display": "Intramuscular injection",
                            "system": "urn:oid:2.16.840.1.113883.3.26.1.1"
                        }
                    ]
                },
                "patient": {
                    "reference": "Patient/2745d583-e3d1-3f88-8b21-7b59adb60779"
                }
            },
            "request": {
                "method": "PUT",
                "url": "Immunization/eed03d0c-fb75-3fbc-ae01-b220ee3b64b6"
            }
        },
        {
            "fullUrl": "urn:uuid:8609ad01-466e-3223-b2e2-a5b8ff507da3",
            "resource": {
                "resourceType": "Immunization",
                "id": "8609ad01-466e-3223-b2e2-a5b8ff507da3",
                "identifier": [
                    {
                        "system": "urn:ietf:rfc:3986",
                        "value": "urn:uuid:e6f1ba43-c0ed-4b9b-9f12-f435d8ad8f92"
                    }
                ],
                "occurrenceDateTime": "1998-12-15",
                "vaccineCode": {
                    "coding": [
                        {
                            "code": "33",
                            "display": "Pneumococcal polysaccharide vaccine",
                            "system": "http://hl7.org/fhir/sid/cvx"
                        }
                    ]
                },
                "status": "completed",
                "route": {
                    "coding": [
                        {
                            "code": "C28161",
                            "display": "Intramuscular injection",
                            "system": "urn:oid:2.16.840.1.113883.3.26.1.1"
                        }
                    ]
                },
                "patient": {
                    "reference": "Patient/2745d583-e3d1-3f88-8b21-7b59adb60779"
                }
            },
            "request": {
                "method": "PUT",
                "url": "Immunization/8609ad01-466e-3223-b2e2-a5b8ff507da3"
            }
        },
        {
            "fullUrl": "urn:uuid:77ae769f-60e2-3972-be7b-c351b8096e21",
            "resource": {
                "resourceType": "Immunization",
                "id": "77ae769f-60e2-3972-be7b-c351b8096e21",
                "identifier": [
                    {
                        "system": "urn:ietf:rfc:3986",
                        "value": "urn:uuid:e6f1ba43-c0ed-4b9b-9f12-f435d8ad8f92"
                    }
                ],
                "statusReason": {
                    "coding": [
                        {
                            "code": "PATOBJ",
                            "display": "Patient Objection",
                            "system": "urn:oid:2.16.840.1.113883.5.8"
                        }
                    ]
                },
                "occurrenceDateTime": "1998-12-15",
                "vaccineCode": {
                    "coding": [
                        {
                            "code": "103",
                            "display": "Tetanus and diphtheria toxoids - preservative free",
                            "system": "http://hl7.org/fhir/sid/cvx"
                        }
                    ]
                },
                "status": "completed",
                "route": {
                    "coding": [
                        {
                            "code": "C28161",
                            "display": "Intramuscular injection",
                            "system": "urn:oid:2.16.840.1.113883.3.26.1.1"
                        }
                    ]
                },
                "patient": {
                    "reference": "Patient/2745d583-e3d1-3f88-8b21-7b59adb60779"
                }
            },
            "request": {
                "method": "PUT",
                "url": "Immunization/77ae769f-60e2-3972-be7b-c351b8096e21"
            }
        },
        {
            "fullUrl": "urn:uuid:3548444b-b346-36bc-9fe8-e1c62513f6e6",
            "resource": {
                "resourceType": "Immunization",
                "id": "3548444b-b346-36bc-9fe8-e1c62513f6e6",
                "identifier": [
                    {
                        "system": "urn:ietf:rfc:3986",
                        "value": "urn:uuid:de10790f-1496-4719-8fe6-f1b87b6219f7"
                    }
                ],
                "occurrenceDateTime": "2013-08-01",
                "vaccineCode": {
                    "coding": [
                        {
                            "code": "45",
                            "display": "Hepatitis B vaccine",
                            "system": "http://hl7.org/fhir/sid/cvx"
                        }
                    ]
                },
                "status": "completed",
                "route": {
                    "coding": [
                        {
                            "code": "C28161",
                            "display": "Intramuscular injection",
                            "system": "urn:oid:2.16.840.1.113883.3.26.1.1"
                        }
                    ]
                },
                "patient": {
                    "reference": "Patient/2745d583-e3d1-3f88-8b21-7b59adb60779"
                }
            },
            "request": {
                "method": "PUT",
                "url": "Immunization/3548444b-b346-36bc-9fe8-e1c62513f6e6"
            }
        },
        {
            "fullUrl": "urn:uuid:be8333bf-eae0-34e2-b6a7-e3e5a12e768e",
            "resource": {
                "resourceType": "FamilyMemberHistory",
                "id": "be8333bf-eae0-34e2-b6a7-e3e5a12e768e",
                "identifier": [
                    {
                        "system": "urn:ietf:rfc:3986",
                        "value": "urn:uuid:d42ebf70-5c89-11db-b0de-0855200c9a66"
                    }
                ],
                "status": "completed",
                "relationship": {
                    "coding": [
                        {
                            "code": "FTH",
                            "display": "Father",
                            "system": "urn:oid:2.16.840.1.113883.5.111"
                        }
                    ]
                },
                "sex": {
                    "coding": [
                        {
                            "code": "M",
                            "display": "Male",
                            "system": "urn:oid:2.16.840.1.113883.1.11.1"
                        }
                    ]
                },
                "bornString": "1910",
                "condition": [
                    {
                        "code": {
                            "coding": [
                                {
                                    "code": "22298006",
                                    "display": "Myocardial infarction",
                                    "system": "http://snomed.info/sct"
                                }
                            ]
                        },
                        "contributedToDeath": true,
                        "onsetAge": {
                            "value": 57,
                            "system": "http://unitsofmeasure.org",
                            "code": "a"
                        }
                    },
                    {
                        "code": {
                            "coding": [
                                {
                                    "code": "44054006",
                                    "display": "Diabetes mellitus type 2",
                                    "system": "http://snomed.info/sct"
                                }
                            ]
                        },
                        "onsetAge": {
                            "value": 40,
                            "system": "http://unitsofmeasure.org",
                            "code": "a"
                        }
                    }
                ],
                "patient": {
                    "reference": "Patient/2745d583-e3d1-3f88-8b21-7b59adb60779"
                }
            },
            "request": {
                "method": "PUT",
                "url": "FamilyMemberHistory/be8333bf-eae0-34e2-b6a7-e3e5a12e768e"
            }
        },
        {
            "fullUrl": "urn:uuid:96574052-1923-38dd-b6ce-bbc2450096c0",
            "resource": {
                "resourceType": "Consent",
                "id": "96574052-1923-38dd-b6ce-bbc2450096c0",
                "identifier": [
                    {
                        "system": "urn:ietf:rfc:3986",
                        "value": "urn:uuid:af6ebdf2-d996-11e2-a5b8-f23c91aec05e"
                    }
                ],
                "status": "active",
                "scope": {
                    "coding": [
                        {
                            "system": "http://terminology.hl7.org/CodeSystem/consentscope",
                            "code": "adr"
                        }
                    ]
                },
                "category": [
                    {
                        "coding": [
                            {
                                "code": "45473-6",
                                "display": "advance directive - living will",
                                "system": "http://loinc.org"
                            }
                        ]
                    }
                ],
                "dateTime": "2011-02-19",
                "provision": {
                    "code": [
                        {
                            "coding": [
                                {
                                    "code": "304253006",
                                    "display": "Do not resuscitate",
                                    "system": "http://snomed.info/sct"
                                }
                            ]
                        }
                    ]
                },
                "patient": {
                    "reference": "Patient/2745d583-e3d1-3f88-8b21-7b59adb60779"
                },
                "sourceReference": {
                    "reference": "DocumentReference/0913b609-6f9b-3d6b-9a1c-8e69fb9414f6"
                },
                "performer": [
                    {
                        "reference": "Practitioner/4533ef76-e935-3802-8cb7-6a076afafc08"
                    }
                ]
            },
            "request": {
                "method": "PUT",
                "url": "Consent/96574052-1923-38dd-b6ce-bbc2450096c0"
            }
        },
        {
            "fullUrl": "urn:uuid:0913b609-6f9b-3d6b-9a1c-8e69fb9414f6",
            "resource": {
                "resourceType": "DocumentReference",
                "id": "0913b609-6f9b-3d6b-9a1c-8e69fb9414f6",
                "status": "current",
                "content": [
                    {
                        "attachment": {
                            "contentType": "application/pdf",
                            "url": "AdvanceDirective.b50b7910.pdf"
                        }
                    }
                ]
            },
            "request": {
                "method": "PUT",
                "url": "DocumentReference/0913b609-6f9b-3d6b-9a1c-8e69fb9414f6"
            }
        },
        {
            "fullUrl": "urn:uuid:4533ef76-e935-3802-8cb7-6a076afafc08",
            "resource": {
                "resourceType": "Practitioner",
                "meta": {
                    "profile": [
                        "http://hl7.org/fhir/us/core/StructureDefinition/us-core-practitioner"
                    ]
                },
                "id": "4533ef76-e935-3802-8cb7-6a076afafc08",
                "identifier": [
                    {
                        "system": "urn:ietf:rfc:3986",
                        "value": "urn:uuid:20cf14fb-b65c-4c8c-a54d-b0cca834c18c"
                    }
                ],
                "name": [
                    {
                        "family": "Nightingale",
                        "given": [
                            "Nurse"
                        ],
                        "suffix": [
                            "RN"
                        ]
                    }
                ],
                "qualification": [
                    {
                        "code": {
                            "coding": [
                                {
                                    "code": "163W00000X",
                                    "display": "Registered nurse",
                                    "system": "http://nucc.org/provider-taxonomy"
                                }
                            ]
                        }
                    }
                ]
            },
            "request": {
                "method": "PUT",
                "url": "Practitioner/4533ef76-e935-3802-8cb7-6a076afafc08"
            }
        },
        {
            "fullUrl": "urn:uuid:49371333-4272-32eb-83a8-0b8a6ae726d7",
            "resource": {
                "resourceType": "Device",
                "id": "49371333-4272-32eb-83a8-0b8a6ae726d7",
                "identifier": [
                    {
                        "system": "urn:ietf:rfc:3986",
                        "value": "urn:uuid:3e414708-0e61-4d48-8863-484a2d473a02"
                    }
                ],
                "type": {
                    "coding": [
                        {
                            "code": "40388003",
                            "display": "Implant",
                            "system": "http://snomed.info/sct"
                        }
                    ]
                }
            },
            "request": {
                "method": "PUT",
                "url": "Device/49371333-4272-32eb-83a8-0b8a6ae726d7"
            }
        },
        {
            "fullUrl": "urn:uuid:d1e9c39f-3628-3f40-a440-d00ca698e59b",
            "resource": {
                "resourceType": "Device",
                "id": "d1e9c39f-3628-3f40-a440-d00ca698e59b",
                "identifier": [
                    {
                        "system": "urn:ietf:rfc:3986",
                        "value": "urn:uuid:39b5f1b4-a8e1-4ad7-8849-0deab10c97b1"
                    }
                ],
                "type": {
                    "coding": [
                        {
                            "code": "14106009",
                            "display": "cardiac pacemaker, device (physical object)",
                            "system": "http://snomed.info/sct"
                        }
                    ]
                },
                "manufacturer": "Good Health Durable Medical Equipment"
            },
            "request": {
                "method": "PUT",
                "url": "Device/d1e9c39f-3628-3f40-a440-d00ca698e59b"
            }
        },
        {
            "fullUrl": "urn:uuid:113f28dd-4110-33f7-85d7-64a99a2c17e5",
            "resource": {
                "resourceType": "Device",
                "id": "113f28dd-4110-33f7-85d7-64a99a2c17e5",
                "identifier": [
                    {
                        "system": "urn:ietf:rfc:3986",
                        "value": "urn:uuid:39b5f1b4-a8e1-4ad7-8849-0deab10c97b1"
                    }
                ],
                "type": {
                    "coding": [
                        {
                            "code": "303406003",
                            "display": "upper gastrointestinal prosthesis (physical object)",
                            "system": "http://snomed.info/sct"
                        }
                    ]
                },
                "manufacturer": "Good Health Durable Medical Equipment"
            },
            "request": {
                "method": "PUT",
                "url": "Device/113f28dd-4110-33f7-85d7-64a99a2c17e5"
            }
        },
        {
            "fullUrl": "urn:uuid:eca55759-505b-389d-8d2d-0a2b46464f19",
            "resource": {
                "resourceType": "Device",
                "id": "eca55759-505b-389d-8d2d-0a2b46464f19",
                "identifier": [
                    {
                        "system": "urn:ietf:rfc:3986",
                        "value": "urn:uuid:cf75f5be-1da0-4256-8276-94b7fc73f9f9"
                    }
                ],
                "type": {
                    "coding": [
                        {
                            "code": "87405001",
                            "display": "cane",
                            "system": "http://snomed.info/sct"
                        }
                    ]
                },
                "manufacturer": "Good Health Durable Medical Equipment"
            },
            "request": {
                "method": "PUT",
                "url": "Device/eca55759-505b-389d-8d2d-0a2b46464f19"
            }
        },
        {
            "fullUrl": "urn:uuid:e74c5c7a-a805-3bce-9306-b4f4bb79563b",
            "resource": {
                "resourceType": "Procedure",
                "meta": {
                    "profile": [
                        "http://hl7.org/fhir/us/core/StructureDefinition/us-core-procedure"
                    ]
                },
                "id": "e74c5c7a-a805-3bce-9306-b4f4bb79563b",
                "identifier": [
                    {
                        "system": "urn:ietf:rfc:3986",
                        "value": "urn:uuid:d5b614bd-01ce-410d-8726-e1fd01dcc72a"
                    }
                ],
                "status": "completed",
                "code": {
                    "coding": [
                        {
                            "code": "103716009",
                            "display": "Stent Placement",
                            "system": "http://snomed.info/sct"
                        }
                    ]
                },
                "performedDateTime": "2013-05-12",
                "bodySite": [
                    {
                        "coding": [
                            {
                                "code": "28273000",
                                "display": "bile duct",
                                "system": "http://snomed.info/sct"
                            }
                        ]
                    }
                ],
                "subject": {
                    "reference": "Patient/2745d583-e3d1-3f88-8b21-7b59adb60779"
                },
                "performer": [
                    {
                        "actor": {
                            "reference": "Organization/7b6a7604-22df-3c56-9c8d-4d616aa646a4"
                        }
                    }
                ]
            },
            "request": {
                "method": "PUT",
                "url": "Procedure/e74c5c7a-a805-3bce-9306-b4f4bb79563b"
            }
        },
        {
            "fullUrl": "urn:uuid:7b6a7604-22df-3c56-9c8d-4d616aa646a4",
            "resource": {
                "resourceType": "Organization",
                "id": "7b6a7604-22df-3c56-9c8d-4d616aa646a4",
                "identifier": [
                    {
                        "system": "urn:ietf:rfc:3986",
                        "value": "urn:uuid:2.16.840.1.113883.19.5"
                    }
                ],
                "name": "Community Health and Hospitals",
                "address": [
                    {
                        "line": [
                            "1003 Health Care Drive"
                        ],
                        "city": "Ann Arbor",
                        "state": "MI",
                        "country": "US",
                        "postalCode": "02368"
                    }
                ],
                "telecom": [
                    {
                        "system": "phone",
                        "value": "+1(555)-555-5005",
                        "use": "work"
                    }
                ]
            },
            "request": {
                "method": "PUT",
                "url": "Organization/7b6a7604-22df-3c56-9c8d-4d616aa646a4"
            }
        },
        {
            "fullUrl": "urn:uuid:ad5b4303-f2d1-3abe-93e6-bd704ba1b878",
            "resource": {
                "resourceType": "Coverage",
                "id": "ad5b4303-f2d1-3abe-93e6-bd704ba1b878",
                "identifier": [
                    {
                        "system": "urn:ietf:rfc:3986",
                        "value": "urn:uuid:3e676a50-7aac-11db-9fe1-0800200c9a66"
                    }
                ],
                "status": "active"
            },
            "request": {
                "method": "PUT",
                "url": "Coverage/ad5b4303-f2d1-3abe-93e6-bd704ba1b878"
            }
        },
        {
            "fullUrl": "urn:uuid:d622bc81-4288-3c94-8da5-0e0baa9f621c",
            "resource": {
                "resourceType": "Organization",
                "id": "d622bc81-4288-3c94-8da5-0e0baa9f621c",
                "name": "Good Health Insurance",
                "address": [
                    {
                        "use": "work",
                        "line": [
                            "9009 Health Drive"
                        ],
                        "city": "Portland",
                        "state": "OR",
                        "postalCode": "99123"
                    }
                ],
                "telecom": [
                    {
                        "system": "phone",
                        "value": "+1(555)555-1515",
                        "use": "work"
                    }
                ]
            },
            "request": {
                "method": "PUT",
                "url": "Organization/d622bc81-4288-3c94-8da5-0e0baa9f621c"
            }
        },
        {
            "fullUrl": "urn:uuid:ac503448-4859-3c6c-b254-2236de2d86d1",
            "resource": {
                "resourceType": "DocumentReference",
                "id": "ac503448-4859-3c6c-b254-2236de2d86d1",
                "type": {
                    "coding": [
                        {
                            "code": "34133-9",
                            "display": "Summarization of Episode Note",
                            "system": "http://loinc.org"
                        }
                    ]
                },
                "date": "2020-08-26T07:49:30.977Z",
                "status": "current",
                "content": [
                    {
                        "attachment": {
                            "contentType": "text/plain",
                            "data": "",
                            "hash": "bM+nOGe+u6Xm0oHvVhBe2RL2TWo="
                        }
                    }
                ]
            },
            "request": {
                "method": "PUT",
                "url": "DocumentReference/ac503448-4859-3c6c-b254-2236de2d86d1"
            }
        }
    ]
}