{
    "resourceType": "Bundle",
    "type": "batch",
    "entry": [
        {
            "fullUrl": "urn:uuid:5025c941-e80e-3c1a-bc97-2524f836bd48",
            "resource": {
                "resourceType": "Composition",
                "id": "5025c941-e80e-3c1a-bc97-2524f836bd48",
                "identifier": {
                    "use": "official",
                    "value": "db734647-fc99-424c-a864-7e3cda82e703"
                },
                "status": "final",
                "type": {
                    "coding": [
                        {
                            "code": "34133-9",
                            "display": "Summarization of Episode Note",
                            "system": "http://loinc.org"
                        }
                    ]
                },
                "date": "2014-04-16T11:54:39.000Z",
                "title": "Community Health and Hospitals: Health Summary",
                "confidentiality": "N",
                "attester": [
                    {
                        "mode": "legal",
                        "time": "2013-04-18T04:00:00.000Z",
                        "party": {
                            "reference": "Practitioner/6a84aefd-6f50-3666-8ccb-bdad442a4c6a"
                        }
                    }
                ],
                "event": [
                    {
                        "period": {
                            "start": "2010-03-31T10:00:00.000Z"
                        }
                    }
                ],
                "section": [
                    {
                        "title": "Allergies,  Adverse Reactions &amp; Alerts",
                        "text": {
                            "status": "generated",
                            "div": "<div xmlns=\"http://www.w3.org/1999/xhtml\">Allergies,  Adverse Reactions &amp; Alerts</div>"
                        },
                        "code": {
                            "coding": [
                                {
                                    "code": "48765-2",
                                    "display": "Allergies, adverse reactions, alerts",
                                    "system": "http://loinc.org"
                                }
                            ]
                        },
                        "mode": "snapshot",
                        "entry": [
                            {
                                "reference": "AllergyIntolerance/ae5e4093-fa3c-3fde-8405-675e9154393e",
                                "display": "Allergy to eggs"
                            },
                            {
                                "reference": "AllergyIntolerance/cada409c-aba3-3d48-b6aa-413bd5c248d1",
                                "display": "Codeine"
                            },
                            {
                                "reference": "AllergyIntolerance/307b8c67-3983-378e-9462-ffdcefd468e5",
                                "display": "Fosfomycin 33.3 MG/ML Oral Suspension"
                            }
                        ]
                    },
                    {
                        "title": "Encounters",
                        "text": {
                            "status": "generated",
                            "div": "<div xmlns=\"http://www.w3.org/1999/xhtml\">Encounters</div>"
                        },
                        "code": {
                            "coding": [
                                {
                                    "code": "46240-8",
                                    "display": "History of encounters",
                                    "system": "http://loinc.org"
                                }
                            ]
                        },
                        "mode": "snapshot",
                        "entry": [
                            {
                                "reference": "Encounter/15967fc3-58f0-36be-80d2-000198862612"
                            },
                            {
                                "reference": "Encounter/76a4b2ce-5570-3349-a8f3-c9665349d140"
                            },
                            {
                                "reference": "Encounter/2031586d-0c7a-3195-bd75-d5159d512396"
                            },
                            {
                                "reference": "Encounter/b039ae8b-5bf3-3245-bff2-4854caaed33b"
                            },
                            {
                                "reference": "Encounter/190d09ca-4010-3747-8dce-504602b2871b"
                            }
                        ]
                    },
                    {
                        "title": "Immunizations",
                        "text": {
                            "status": "generated",
                            "div": "<div xmlns=\"http://www.w3.org/1999/xhtml\">Immunizations</div>"
                        },
                        "code": {
                            "coding": [
                                {
                                    "code": "11369-6",
                                    "system": "http://loinc.org"
                                }
                            ]
                        },
                        "mode": "snapshot",
                        "entry": [
                            {
                                "reference": "Immunization/9e209589-bb77-3393-8b25-0b798cccb6c1"
                            },
                            {
                                "reference": "Immunization/05becd25-8e53-38d1-b736-9d34ac5a661a"
                            }
                        ]
                    },
                    {
                        "title": "Medications",
                        "text": {
                            "status": "generated",
                            "div": "<div xmlns=\"http://www.w3.org/1999/xhtml\">Medications</div>"
                        },
                        "code": {
                            "coding": [
                                {
                                    "code": "10160-0",
                                    "display": "History of Medication Use",
                                    "system": "http://loinc.org"
                                }
                            ]
                        },
                        "mode": "snapshot",
                        "entry": [
                            {
                                "reference": "MedicationStatement/0cc05a2a-5399-3217-996d-8293ffa660e6"
                            },
                            {
                                "reference": "MedicationStatement/6c62778d-3c12-3d1c-8f01-5cd7f69e1793"
                            },
                            {
                                "reference": "MedicationStatement/bc7fc838-d0da-3841-843a-7d032a7e5030"
                            },
                            {
                                "reference": "MedicationStatement/eff7ea5a-aefd-33bc-b38d-62e6b21269fa"
                            },
                            {
                                "reference": "MedicationStatement/05ebeb78-209f-35c9-92b1-2823b58bbb6a"
                            },
                            {
                                "reference": "MedicationStatement/f1f68341-603c-3856-85e5-89a40af7c827"
                            },
                            {
                                "reference": "MedicationStatement/82bfd4c4-f5ab-34e9-825a-0995371116b4"
                            },
                            {
                                "reference": "MedicationStatement/e4f74115-84ea-3ad5-9266-501e337ebc75"
                            }
                        ]
                    },
                    {
                        "title": "Problems",
                        "text": {
                            "status": "generated",
                            "div": "<div xmlns=\"http://www.w3.org/1999/xhtml\">Problems</div>"
                        },
                        "code": {
                            "coding": [
                                {
                                    "code": "11450-4",
                                    "display": "PROBLEM LIST",
                                    "system": "http://loinc.org"
                                }
                            ]
                        },
                        "mode": "snapshot",
                        "entry": [
                            {
                                "reference": "Condition/4ceecd52-b74a-373b-a7a3-52570b9426e5"
                            },
                            {
                                "reference": "Condition/13f8b0c1-1bbd-36f2-af1a-6642d91d63aa"
                            },
                            {
                                "reference": "Condition/30c90cd5-6c70-3e68-8216-afc5bf42666f"
                            },
                            {
                                "reference": "Condition/398da1fa-98be-3a3f-927c-fe18bf8aaebf"
                            }
                        ]
                    },
                    {
                        "title": "Procedures",
                        "text": {
                            "status": "generated",
                            "div": "<div xmlns=\"http://www.w3.org/1999/xhtml\">Procedures</div>"
                        },
                        "code": {
                            "coding": [
                                {
                                    "code": "47519-4",
                                    "display": "HISTORY OF PROCEDURES",
                                    "system": "http://loinc.org"
                                }
                            ]
                        },
                        "mode": "snapshot",
                        "entry": [
                            {
                                "reference": "Procedure/6cf7036a-fc12-366d-9d14-a2cb7509a764"
                            },
                            {
                                "reference": "Procedure/8aad6929-8dd5-3a9a-a2c2-aef7e9ebd8b4"
                            },
                            {
                                "reference": "Procedure/191e4105-2cb8-3531-8d69-ec8dd70743f3"
                            },
                            {
                                "reference": "Procedure/c31d60fa-de1c-3111-b7d2-74b202749f60"
                            },
                            {
                                "reference": "Procedure/c37c68d0-e168-3d74-b3a4-2243082a0268"
                            },
                            {
                                "reference": "Procedure/8922b120-946b-3b16-88d4-9217b6e040b7"
                            },
                            {
                                "reference": "Procedure/0433d5b4-7643-321e-bd74-e52f9dddbea1"
                            },
                            {
                                "reference": "Procedure/af514019-618d-3058-8ee6-df73ce9f6f0d"
                            },
                            {
                                "reference": "Procedure/57460ff8-4a56-3587-907d-5460aca47a89"
                            }
                        ]
                    },
                    {
                        "title": "Results",
                        "text": {
                            "status": "generated",
                            "div": "<div xmlns=\"http://www.w3.org/1999/xhtml\">Results</div>"
                        },
                        "code": {
                            "coding": [
                                {
                                    "code": "30954-2",
                                    "display": "Results",
                                    "system": "http://loinc.org"
                                }
                            ]
                        },
                        "mode": "snapshot",
                        "entry": [
                            {
                                "reference": "DiagnosticReport/38ff7568-a022-330d-8752-c5f56eecbd91"
                            },
                            {
                                "reference": "DiagnosticReport/98eb39f0-7de3-36f8-a203-dbd4046d730a"
                            },
                            {
                                "reference": "DiagnosticReport/f281fa53-82e7-36f6-94de-d96dc50c755b"
                            },
                            {
                                "reference": "DiagnosticReport/42de9d52-4309-313b-95dd-3c212b3dd6a9"
                            },
                            {
                                "reference": "DiagnosticReport/5a99751d-3a44-32b7-bd6b-9f7e6253cfe5"
                            }
                        ]
                    },
                    {
                        "title": "Social History",
                        "text": {
                            "status": "generated",
                            "div": "<div xmlns=\"http://www.w3.org/1999/xhtml\">Social History</div>"
                        },
                        "code": {
                            "coding": [
                                {
                                    "code": "29762-2",
                                    "display": "Social History",
                                    "system": "http://loinc.org"
                                }
                            ]
                        },
                        "mode": "snapshot",
                        "entry": [
                            {
                                "reference": "Observation/a217d4b1-d272-34bb-acc4-da1de185f83b",
                                "display": "Tobacco Use + Never smoker (Never Smoked)"
                            }
                        ]
                    },
                    {
                        "title": "Vital Signs",
                        "text": {
                            "status": "generated",
                            "div": "<div xmlns=\"http://www.w3.org/1999/xhtml\">Vital Signs</div>"
                        },
                        "code": {
                            "coding": [
                                {
                                    "code": "8716-3",
                                    "display": "Vital Signs",
                                    "system": "http://loinc.org"
                                }
                            ]
                        },
                        "mode": "snapshot",
                        "entry": [
                            {
                                "reference": "Observation/d7765e9d-efa6-35c1-af5c-816a398d97b7",
                                "display": "BMI"
                            },
                            {
                                "reference": "Observation/2c8345c9-16eb-35c1-940a-3c0fc1ee1ee6",
                                "display": "BP Diastolic"
                            },
                            {
                                "reference": "Observation/b35c189c-74b8-3b3e-9823-08fc0e95ee36",
                                "display": "BP Systolic"
                            },
                            {
                                "reference": "Observation/3e33ace2-aa3e-383b-9566-620b62780555",
                                "display": "BMI"
                            },
                            {
                                "reference": "Observation/2d5a0bf6-4c6f-3c7f-8b16-1a25d3b5bbc8",
                                "display": "BP Diastolic"
                            },
                            {
                                "reference": "Observation/ae5ccfb2-fced-3e9e-99d2-7368cf028daa",
                                "display": "Heart Rate"
                            },
                            {
                                "reference": "Observation/07eef426-2430-3543-be61-9d7c52cb4f96",
                                "display": "BP Systolic"
                            },
                            {
                                "reference": "Observation/3ffd078e-5642-3676-b65b-b70131c2326b",
                                "display": "BP Diastolic"
                            },
                            {
                                "reference": "Observation/1b65ae8f-06ef-319c-b2ca-b1fae24c5e47",
                                "display": "Heart Rate"
                            },
                            {
                                "reference": "Observation/b6a9e732-17d8-32b9-824a-98c7a90d8676",
                                "display": "BP Systolic"
                            },
                            {
                                "reference": "Observation/5e4e872b-d7a0-379c-88ac-f76e1e87b928",
                                "display": "BMI"
                            },
                            {
                                "reference": "Observation/3db9ee52-9ec3-3f65-becf-4983a309a812",
                                "display": "BP Diastolic"
                            },
                            {
                                "reference": "Observation/1a0e1054-31c8-34be-9d8a-457ab92c226f",
                                "display": "Heart Rate"
                            },
                            {
                                "reference": "Observation/d786c92d-68c1-3d27-bfe0-6f5332b63213",
                                "display": "BP Systolic"
                            },
                            {
                                "reference": "Observation/982fad1f-e691-3ac9-8222-660e5ede6e8e",
                                "display": "BMI"
                            },
                            {
                                "reference": "Observation/b86fa51d-4503-3645-8572-2faa10b09fab",
                                "display": "BP Diastolic"
                            },
                            {
                                "reference": "Observation/9f52eed6-9c75-3473-a040-0b1c7d3fa477",
                                "display": "Heart Rate"
                            },
                            {
                                "reference": "Observation/a4785b3d-f5d3-38f9-b72f-3fe19e511974",
                                "display": "BP Systolic"
                            }
                        ]
                    }
                ],
                "subject": {
                    "reference": "Patient/f40da2df-7505-315a-9acb-55513a02c37b"
                },
                "custodian": {
                    "reference": "Organization/ce67676d-faa6-3ac3-8d71-f0a778b99cd0"
                },
                "author": [
                    {
                        "reference": "Practitioner/5942c17c-61a6-351b-a314-39fb9fc72561"
                    }
                ]
            },
            "request": {
                "method": "PUT",
                "url": "Composition/5025c941-e80e-3c1a-bc97-2524f836bd48"
            }
        },
        {
            "fullUrl": "urn:uuid:6a84aefd-6f50-3666-8ccb-bdad442a4c6a",
            "resource": {
                "resourceType": "Practitioner",
                "meta": {
                    "profile": [
                        "http://hl7.org/fhir/us/core/StructureDefinition/us-core-practitioner"
                    ]
                },
                "id": "6a84aefd-6f50-3666-8ccb-bdad442a4c6a"
            },
            "request": {
                "method": "PUT",
                "url": "Practitioner/6a84aefd-6f50-3666-8ccb-bdad442a4c6a"
            }
        },
        {
            "fullUrl": "urn:uuid:ce67676d-faa6-3ac3-8d71-f0a778b99cd0",
            "resource": {
                "resourceType": "Organization",
                "id": "ce67676d-faa6-3ac3-8d71-f0a778b99cd0",
                "identifier": [
                    {
                        "system": "http://hl7.org/fhir/sid/us-npi",
                        "value": "99999999"
                    }
                ],
                "name": "Community Health and Hospitals",
                "address": [
                    {
                        "use": "work",
                        "line": [
                            "1002 Healthcare Drive"
                        ],
                        "city": "Portland",
                        "state": "OR",
                        "country": "US",
                        "postalCode": "99123"
                    }
                ],
                "telecom": [
                    {
                        "system": "phone",
                        "value": "555-555-1002",
                        "use": "work"
                    }
                ]
            },
            "request": {
                "method": "PUT",
                "url": "Organization/ce67676d-faa6-3ac3-8d71-f0a778b99cd0"
            }
        },
        {
            "fullUrl": "urn:uuid:5942c17c-61a6-351b-a314-39fb9fc72561",
            "resource": {
                "resourceType": "Practitioner",
                "meta": {
                    "profile": [
                        "http://hl7.org/fhir/us/core/StructureDefinition/us-core-practitioner"
                    ]
                },
                "id": "5942c17c-61a6-351b-a314-39fb9fc72561",
                "identifier": [
                    {
                        "system": "http://hl7.org/fhir/sid/us-npi",
                        "value": "99999999"
                    }
                ],
                "name": [
                    {
                        "family": "Seven",
                        "given": [
                            "Henry"
                        ],
                        "suffix": [
                            "MD"
                        ]
                    }
                ],
                "address": [
                    {
                        "line": [
                            "1002 Healthcare Drive"
                        ],
                        "city": "Portland",
                        "state": "OR",
                        "country": "US",
                        "postalCode": "99123"
                    }
                ],
                "telecom": [
                    {
                        "system": "phone",
                        "value": "555-555-1002",
                        "use": "work"
                    }
                ],
                "qualification": [
                    {
                        "code": {
                            "coding": [
                                {
                                    "code": "200000000X",
                                    "display": "Allopathic &amp; Osteopathic Physicians",
                                    "system": "http://nucc.org/provider-taxonomy"
                                }
                            ]
                        }
                    }
                ]
            },
            "request": {
                "method": "PUT",
                "url": "Practitioner/5942c17c-61a6-351b-a314-39fb9fc72561"
            }
        },
        {
            "fullUrl": "urn:uuid:f40da2df-7505-315a-9acb-55513a02c37b",
            "resource": {
                "resourceType": "Patient",
                "meta": {
                    "profile": [
                        "http://hl7.org/fhir/us/core/StructureDefinition/us-core-patient"
                    ]
                },
                "id": "f40da2df-7505-315a-9acb-55513a02c37b",
                "identifier": [
                    {
                        "system": "urn:oid:2.16.840.1.113883.19.5.99999.2",
                        "value": "998991"
                    },
                    {
                        "system": "http://hl7.org/fhir/sid/us-ssn",
                        "value": "111-00-2330"
                    }
                ],
                "name": [
                    {
                        "use": "usual",
                        "family": "Crawford",
                        "given": [
                            "Wilma"
                        ]
                    }
                ],
                "birthDate": "1943-09-03",
                "gender": "female",
                "extension": [
                    {
                        "url": "http://hl7.org/fhir/us/core/StructureDefinition/us-core-race",
                        "extension": [
                            {
                                "url": "ombCategory",
                                "valueCoding": {
                                    "code": "2054-5",
                                    "display": "Black or African American",
                                    "system": "urn:oid:2.16.840.1.113883.6.238"
                                }
                            },
                            {
                                "url": "text",
                                "valueString": "Black or African American"
                            }
                        ]
                    },
                    {
                        "url": "http://hl7.org/fhir/us/core/StructureDefinition/us-core-ethnicity",
                        "extension": [
                            {
                                "url": "ombCategory",
                                "valueCoding": {
                                    "code": "2186-5",
                                    "display": "Not Hispanic or Latino",
                                    "system": "urn:oid:2.16.840.1.113883.6.238"
                                }
                            },
                            {
                                "url": "text",
                                "valueString": "Not Hispanic or Latino"
                            }
                        ]
                    }
                ],
                "address": [
                    {
                        "use": "home",
                        "line": [
                            "1093 Paradise Lane"
                        ],
                        "city": "Pomona",
                        "state": "CA",
                        "country": "US",
                        "postalCode": "91766"
                    }
                ],
                "telecom": [
                    {
                        "system": "phone",
                        "value": "(909)632-8501",
                        "use": "mobile"
                    }
                ],
                "communication": [
                    {
                        "language": {
                            "coding": [
                                {
                                    "system": "urn:ietf:bcp:47",
                                    "code": "spa"
                                }
                            ]
                        },
                        "preferred": true
                    }
                ]
            },
            "request": {
                "method": "PUT",
                "url": "Patient/f40da2df-7505-315a-9acb-55513a02c37b"
            }
        },
        {
            "fullUrl": "urn:uuid:fb09ebac-26f9-360c-ae59-9daca4d5bd96",
            "resource": {
                "resourceType": "RelatedPerson",
                "id": "fb09ebac-26f9-360c-ae59-9daca4d5bd96",
                "relationship": [
                    {
                        "coding": [
                            {
                                "code": "FRND",
                                "display": "friend",
                                "system": "urn:oid:2.16.840.1.113883.5.111"
                            }
                        ]
                    }
                ],
                "name": [
                    {
                        "family": "Wilson",
                        "given": [
                            "Dennis"
                        ],
                        "prefix": [
                            "Mr."
                        ]
                    }
                ],
                "telecom": [
                    {
                        "system": "phone",
                        "value": "(830)264-0313",
                        "use": "home"
                    }
                ],
                "address": [
                    {
                        "use": "home",
                        "line": [
                            "4262 Morris Street"
                        ],
                        "city": "Christine",
                        "state": "TX",
                        "country": "US",
                        "postalCode": "78012"
                    }
                ],
                "patient": {
                    "reference": "Patient/f40da2df-7505-315a-9acb-55513a02c37b"
                }
            },
            "request": {
                "method": "PUT",
                "url": "RelatedPerson/fb09ebac-26f9-360c-ae59-9daca4d5bd96"
            }
        },
        {
            "fullUrl": "urn:uuid:7cc6e46b-05da-3245-a0a9-ba197c921de6",
            "resource": {
                "resourceType": "AllergyIntolerance",
                "id": "7cc6e46b-05da-3245-a0a9-ba197c921de6",
                "identifier": [
                    {
                        "system": "urn:ietf:rfc:3986",
                        "value": "urn:uuid:4adc1020-7b14-11db-9fe1-0800200c9a66"
                    }
                ],
                "clinicalStatus": {
                    "coding": [
                        {
                            "system": "http://terminology.hl7.org/CodeSystem/allergyintolerance-clinical",
                            "code": "active"
                        }
                    ]
                },
                "reaction": [
                    {
                        "substance": {
                            "coding": [
                                {
                                    "code": "V15.03",
                                    "display": "Allergy to eggs",
                                    "system": "urn:oid:2.16.840.1.113883.6.103"
                                }
                            ]
                        },
                        "severity": "Severe"
                    }
                ],
                "patient": {
                    "reference": "Patient/f40da2df-7505-315a-9acb-55513a02c37b"
                }
            },
            "request": {
                "method": "PUT",
                "url": "AllergyIntolerance/7cc6e46b-05da-3245-a0a9-ba197c921de6"
            }
        },
        {
            "fullUrl": "urn:uuid:7e661f19-fbfd-303c-b435-7c4960645235",
            "resource": {
                "resourceType": "AllergyIntolerance",
                "id": "7e661f19-fbfd-303c-b435-7c4960645235",
                "identifier": [
                    {
                        "system": "urn:ietf:rfc:3986",
                        "value": "urn:uuid:4adc1020-7b14-11db-9fe1-0800200c9a66"
                    }
                ],
                "clinicalStatus": {
                    "coding": [
                        {
                            "system": "http://terminology.hl7.org/CodeSystem/allergyintolerance-clinical",
                            "code": "active"
                        }
                    ]
                },
                "reaction": [
                    {
                        "substance": {
                            "coding": [
                                {
                                    "code": "N0000006691",
                                    "display": "Codeine",
                                    "system": "urn:oid:2.16.840.1.113883.3.26.1.5"
                                }
                            ]
                        },
                        "severity": "severe"
                    }
                ],
                "patient": {
                    "reference": "Patient/f40da2df-7505-315a-9acb-55513a02c37b"
                }
            },
            "request": {
                "method": "PUT",
                "url": "AllergyIntolerance/7e661f19-fbfd-303c-b435-7c4960645235"
            }
        },
        {
            "fullUrl": "urn:uuid:75955ad5-f373-311f-936d-0f064b01d7e6",
            "resource": {
                "resourceType": "AllergyIntolerance",
                "id": "75955ad5-f373-311f-936d-0f064b01d7e6",
                "identifier": [
                    {
                        "system": "urn:ietf:rfc:3986",
                        "value": "urn:uuid:4adc1020-7b14-11db-9fe1-0800200c9a66"
                    }
                ],
                "clinicalStatus": {
                    "coding": [
                        {
                            "system": "http://terminology.hl7.org/CodeSystem/allergyintolerance-clinical",
                            "code": "active"
                        }
                    ]
                },
                "reaction": [
                    {
                        "substance": {
                            "coding": [
                                {
                                    "code": "808917",
                                    "display": "Fosfomycin 33.3 MG/ML Oral Suspension",
                                    "system": "http://www.nlm.nih.gov/research/umls/rxnorm"
                                }
                            ]
                        },
                        "severity": "Moderate"
                    }
                ],
                "patient": {
                    "reference": "Patient/f40da2df-7505-315a-9acb-55513a02c37b"
                }
            },
            "request": {
                "method": "PUT",
                "url": "AllergyIntolerance/75955ad5-f373-311f-936d-0f064b01d7e6"
            }
        },
        {
            "fullUrl": "urn:uuid:1a3c7c81-96da-3398-a057-dbc97e3f987f",
            "resource": {
                "resourceType": "MedicationStatement",
                "id": "1a3c7c81-96da-3398-a057-dbc97e3f987f",
                "identifier": [
                    {
                        "system": "urn:ietf:rfc:3986",
                        "value": "urn:uuid:cdbd33f0-6cde-11db-9fe1-0800200c9a66"
                    }
                ],
                "status": "completed",
                "effectivePeriod": {
                    "start": "2010-03-31T10:00:00.000Z"
                },
                "subject": {
                    "reference": "Patient/f40da2df-7505-315a-9acb-55513a02c37b"
                },
                "medicationReference": {
                    "reference": "Medication/19dbbf32-f66d-3157-bbf2-6d6657e13ecb"
                }
            },
            "request": {
                "method": "PUT",
                "url": "MedicationStatement/1a3c7c81-96da-3398-a057-dbc97e3f987f"
            }
        },
        {
            "fullUrl": "urn:uuid:19dbbf32-f66d-3157-bbf2-6d6657e13ecb",
            "resource": {
                "resourceType": "Medication",
                "id": "19dbbf32-f66d-3157-bbf2-6d6657e13ecb",
                "code": {
                    "coding": [
                        {
                            "code": "744863",
                            "display": "exenatide 0.25 MG/ML Injectable Solution",
                            "system": "http://www.nlm.nih.gov/research/umls/rxnorm"
                        }
                    ]
                }
            },
            "request": {
                "method": "PUT",
                "url": "Medication/19dbbf32-f66d-3157-bbf2-6d6657e13ecb"
            }
        },
        {
            "fullUrl": "urn:uuid:deb56fc8-a9ff-3215-9692-866f7e653dd1",
            "resource": {
                "resourceType": "MedicationStatement",
                "id": "deb56fc8-a9ff-3215-9692-866f7e653dd1",
                "identifier": [
                    {
                        "system": "urn:ietf:rfc:3986",
                        "value": "urn:uuid:cdbd33f0-6cde-11db-9fe1-0800200c9a66"
                    }
                ],
                "status": "completed",
                "effectivePeriod": {
                    "start": "2010-03-31T10:00:00.000Z"
                },
                "subject": {
                    "reference": "Patient/f40da2df-7505-315a-9acb-55513a02c37b"
                },
                "medicationReference": {
                    "reference": "Medication/61ac1357-db21-3e4d-953c-a736f1379351"
                }
            },
            "request": {
                "method": "PUT",
                "url": "MedicationStatement/deb56fc8-a9ff-3215-9692-866f7e653dd1"
            }
        },
        {
            "fullUrl": "urn:uuid:61ac1357-db21-3e4d-953c-a736f1379351",
            "resource": {
                "resourceType": "Medication",
                "id": "61ac1357-db21-3e4d-953c-a736f1379351",
                "code": {
                    "coding": [
                        {
                            "code": "858828",
                            "display": "Enalapril Maleate 10 MG / Hydrochlorothiazide 25 MG Oral Tablet",
                            "system": "http://www.nlm.nih.gov/research/umls/rxnorm"
                        }
                    ]
                }
            },
            "request": {
                "method": "PUT",
                "url": "Medication/61ac1357-db21-3e4d-953c-a736f1379351"
            }
        },
        {
            "fullUrl": "urn:uuid:f9412ecc-3c11-361e-b113-cfab20c75f4a",
            "resource": {
                "resourceType": "MedicationStatement",
                "id": "f9412ecc-3c11-361e-b113-cfab20c75f4a",
                "identifier": [
                    {
                        "system": "urn:ietf:rfc:3986",
                        "value": "urn:uuid:cdbd33f0-6cde-11db-9fe1-0800200c9a66"
                    }
                ],
                "status": "completed",
                "effectivePeriod": {
                    "start": "2010-03-31T10:00:00.000Z"
                },
                "subject": {
                    "reference": "Patient/f40da2df-7505-315a-9acb-55513a02c37b"
                },
                "medicationReference": {
                    "reference": "Medication/10627ff7-e986-3945-9788-459ab19b46b6"
                }
            },
            "request": {
                "method": "PUT",
                "url": "MedicationStatement/f9412ecc-3c11-361e-b113-cfab20c75f4a"
            }
        },
        {
            "fullUrl": "urn:uuid:10627ff7-e986-3945-9788-459ab19b46b6",
            "resource": {
                "resourceType": "Medication",
                "id": "10627ff7-e986-3945-9788-459ab19b46b6",
                "code": {
                    "coding": [
                        {
                            "code": "243670",
                            "display": "Aspirin 81 MG Oral Tablet",
                            "system": "http://www.nlm.nih.gov/research/umls/rxnorm"
                        }
                    ]
                }
            },
            "request": {
                "method": "PUT",
                "url": "Medication/10627ff7-e986-3945-9788-459ab19b46b6"
            }
        },
        {
            "fullUrl": "urn:uuid:37919320-bd0f-32bc-813d-c583048f7b55",
            "resource": {
                "resourceType": "MedicationStatement",
                "id": "37919320-bd0f-32bc-813d-c583048f7b55",
                "identifier": [
                    {
                        "system": "urn:ietf:rfc:3986",
                        "value": "urn:uuid:cdbd33f0-6cde-11db-9fe1-0800200c9a66"
                    }
                ],
                "status": "completed",
                "effectivePeriod": {
                    "start": "2010-03-31T10:00:00.000Z"
                },
                "subject": {
                    "reference": "Patient/f40da2df-7505-315a-9acb-55513a02c37b"
                },
                "medicationReference": {
                    "reference": "Medication/023f4a39-08a4-3ea8-9968-92a8e17684fb"
                }
            },
            "request": {
                "method": "PUT",
                "url": "MedicationStatement/37919320-bd0f-32bc-813d-c583048f7b55"
            }
        },
        {
            "fullUrl": "urn:uuid:023f4a39-08a4-3ea8-9968-92a8e17684fb",
            "resource": {
                "resourceType": "Medication",
                "id": "023f4a39-08a4-3ea8-9968-92a8e17684fb",
                "code": {
                    "coding": [
                        {
                            "code": "866924",
                            "display": "Metoprolol Tartrate 25 MG Oral Tablet",
                            "system": "http://www.nlm.nih.gov/research/umls/rxnorm"
                        }
                    ]
                }
            },
            "request": {
                "method": "PUT",
                "url": "Medication/023f4a39-08a4-3ea8-9968-92a8e17684fb"
            }
        },
        {
            "fullUrl": "urn:uuid:96dd1b59-d126-33c6-9e4f-eb6ad7d0c85c",
            "resource": {
                "resourceType": "MedicationStatement",
                "id": "96dd1b59-d126-33c6-9e4f-eb6ad7d0c85c",
                "identifier": [
                    {
                        "system": "urn:ietf:rfc:3986",
                        "value": "urn:uuid:cdbd33f0-6cde-11db-9fe1-0800200c9a66"
                    }
                ],
                "status": "completed",
                "effectivePeriod": {
                    "start": "2010-03-31T10:00:00.000Z"
                },
                "subject": {
                    "reference": "Patient/f40da2df-7505-315a-9acb-55513a02c37b"
                },
                "medicationReference": {
                    "reference": "Medication/a65eaddd-61ce-3e18-be9a-6b98966fce03"
                }
            },
            "request": {
                "method": "PUT",
                "url": "MedicationStatement/96dd1b59-d126-33c6-9e4f-eb6ad7d0c85c"
            }
        },
        {
            "fullUrl": "urn:uuid:a65eaddd-61ce-3e18-be9a-6b98966fce03",
            "resource": {
                "resourceType": "Medication",
                "id": "a65eaddd-61ce-3e18-be9a-6b98966fce03",
                "code": {
                    "coding": [
                        {
                            "code": "617314",
                            "display": "atorvastatin 10 MG Oral Tablet [Lipitor]",
                            "system": "http://www.nlm.nih.gov/research/umls/rxnorm"
                        }
                    ]
                }
            },
            "request": {
                "method": "PUT",
                "url": "Medication/a65eaddd-61ce-3e18-be9a-6b98966fce03"
            }
        },
        {
            "fullUrl": "urn:uuid:bf5b61e5-8d34-3e8c-ba1d-7fe7e1c5220b",
            "resource": {
                "resourceType": "MedicationStatement",
                "id": "bf5b61e5-8d34-3e8c-ba1d-7fe7e1c5220b",
                "identifier": [
                    {
                        "system": "urn:ietf:rfc:3986",
                        "value": "urn:uuid:cdbd33f0-6cde-11db-9fe1-0800200c9a66"
                    }
                ],
                "status": "completed",
                "effectivePeriod": {
                    "start": "2010-10-24T10:00:00.000Z"
                },
                "subject": {
                    "reference": "Patient/f40da2df-7505-315a-9acb-55513a02c37b"
                },
                "medicationReference": {
                    "reference": "Medication/18cd8b9b-225c-3446-9bbd-ab7b73792e28"
                }
            },
            "request": {
                "method": "PUT",
                "url": "MedicationStatement/bf5b61e5-8d34-3e8c-ba1d-7fe7e1c5220b"
            }
        },
        {
            "fullUrl": "urn:uuid:18cd8b9b-225c-3446-9bbd-ab7b73792e28",
            "resource": {
                "resourceType": "Medication",
                "id": "18cd8b9b-225c-3446-9bbd-ab7b73792e28",
                "code": {
                    "coding": [
                        {
                            "code": "314076",
                            "display": "Lisinopril 10 MG Oral Tablet",
                            "system": "http://www.nlm.nih.gov/research/umls/rxnorm"
                        }
                    ]
                }
            },
            "request": {
                "method": "PUT",
                "url": "Medication/18cd8b9b-225c-3446-9bbd-ab7b73792e28"
            }
        },
        {
            "fullUrl": "urn:uuid:03880d77-54e9-350d-af88-5b906178f2a3",
            "resource": {
                "resourceType": "MedicationStatement",
                "id": "03880d77-54e9-350d-af88-5b906178f2a3",
                "identifier": [
                    {
                        "system": "urn:ietf:rfc:3986",
                        "value": "urn:uuid:cdbd33f0-6cde-11db-9fe1-0800200c9a66"
                    }
                ],
                "status": "completed",
                "effectivePeriod": {
                    "start": "2010-10-24T10:00:00.000Z"
                },
                "subject": {
                    "reference": "Patient/f40da2df-7505-315a-9acb-55513a02c37b"
                },
                "medicationReference": {
                    "reference": "Medication/cc502c98-71ef-3b93-81d0-907b1acdc728"
                }
            },
            "request": {
                "method": "PUT",
                "url": "MedicationStatement/03880d77-54e9-350d-af88-5b906178f2a3"
            }
        },
        {
            "fullUrl": "urn:uuid:cc502c98-71ef-3b93-81d0-907b1acdc728",
            "resource": {
                "resourceType": "Medication",
                "id": "cc502c98-71ef-3b93-81d0-907b1acdc728",
                "code": {
                    "coding": [
                        {
                            "code": "744863",
                            "display": "exenatide 0.25 MG/ML Injectable Solution",
                            "system": "http://www.nlm.nih.gov/research/umls/rxnorm"
                        }
                    ]
                }
            },
            "request": {
                "method": "PUT",
                "url": "Medication/cc502c98-71ef-3b93-81d0-907b1acdc728"
            }
        },
        {
            "fullUrl": "urn:uuid:3dd83853-c023-3f03-9dc6-c53edd444768",
            "resource": {
                "resourceType": "MedicationStatement",
                "id": "3dd83853-c023-3f03-9dc6-c53edd444768",
                "identifier": [
                    {
                        "system": "urn:ietf:rfc:3986",
                        "value": "urn:uuid:cdbd33f0-6cde-11db-9fe1-0800200c9a66"
                    }
                ],
                "status": "completed",
                "effectivePeriod": {
                    "start": "2010-10-24T10:00:00.000Z"
                },
                "subject": {
                    "reference": "Patient/f40da2df-7505-315a-9acb-55513a02c37b"
                },
                "medicationReference": {
                    "reference": "Medication/0031443e-100f-357f-9d1d-f5c8a554a388"
                }
            },
            "request": {
                "method": "PUT",
                "url": "MedicationStatement/3dd83853-c023-3f03-9dc6-c53edd444768"
            }
        },
        {
            "fullUrl": "urn:uuid:0031443e-100f-357f-9d1d-f5c8a554a388",
            "resource": {
                "resourceType": "Medication",
                "id": "0031443e-100f-357f-9d1d-f5c8a554a388",
                "code": {
                    "coding": [
                        {
                            "code": "617314",
                            "display": "atorvastatin 10 MG Oral Tablet [Lipitor]",
                            "system": "http://www.nlm.nih.gov/research/umls/rxnorm"
                        }
                    ]
                }
            },
            "request": {
                "method": "PUT",
                "url": "Medication/0031443e-100f-357f-9d1d-f5c8a554a388"
            }
        },
        {
            "fullUrl": "urn:uuid:99c11fb7-bd95-31be-80da-ee61c2ed418a",
            "resource": {
                "resourceType": "Condition",
                "id": "99c11fb7-bd95-31be-80da-ee61c2ed418a",
                "identifier": [
                    {
                        "system": "urn:ietf:rfc:3986",
                        "value": "urn:uuid:9d3d416d-45ab-4da1-912f-4583e0632000"
                    }
                ],
                "code": {
                    "coding": [
                        {
                            "code": "I25.1",
                            "display": "Atherosclerotic heart disease of native coronary artery",
                            "system": "urn:oid:2.16.840.1.113883.6.90"
                        }
                    ]
                },
                "onsetDateTime": "2010-03-31T10:00:00.000Z",
                "subject": {
                    "reference": "Patient/f40da2df-7505-315a-9acb-55513a02c37b"
                }
            },
            "request": {
                "method": "PUT",
                "url": "Condition/99c11fb7-bd95-31be-80da-ee61c2ed418a"
            }
        },
        {
            "fullUrl": "urn:uuid:02c0e4ea-1cbe-39e3-bb67-ac333152b759",
            "resource": {
                "resourceType": "Condition",
                "id": "02c0e4ea-1cbe-39e3-bb67-ac333152b759",
                "identifier": [
                    {
                        "system": "urn:ietf:rfc:3986",
                        "value": "urn:uuid:9d3d416d-45ab-4da1-912f-4583e0632000"
                    }
                ],
                "code": {
                    "coding": [
                        {
                            "code": "E11.9",
                            "display": "Type 2 diabetes mellitus without complications",
                            "system": "urn:oid:2.16.840.1.113883.6.90"
                        }
                    ]
                },
                "onsetDateTime": "2010-03-31T10:00:00.000Z",
                "subject": {
                    "reference": "Patient/f40da2df-7505-315a-9acb-55513a02c37b"
                }
            },
            "request": {
                "method": "PUT",
                "url": "Condition/02c0e4ea-1cbe-39e3-bb67-ac333152b759"
            }
        },
        {
            "fullUrl": "urn:uuid:a2f0fb98-454e-369b-8b3f-84344b03d84c",
            "resource": {
                "resourceType": "Condition",
                "id": "a2f0fb98-454e-369b-8b3f-84344b03d84c",
                "identifier": [
                    {
                        "system": "urn:ietf:rfc:3986",
                        "value": "urn:uuid:9d3d416d-45ab-4da1-912f-4583e0632000"
                    }
                ],
                "code": {
                    "coding": [
                        {
                            "code": "I10",
                            "display": "Essential (primary) hypertension",
                            "system": "urn:oid:2.16.840.1.113883.6.90"
                        }
                    ]
                },
                "onsetDateTime": "2010-03-31T10:00:00.000Z",
                "subject": {
                    "reference": "Patient/f40da2df-7505-315a-9acb-55513a02c37b"
                }
            },
            "request": {
                "method": "PUT",
                "url": "Condition/a2f0fb98-454e-369b-8b3f-84344b03d84c"
            }
        },
        {
            "fullUrl": "urn:uuid:59a0fc1d-61df-3697-ac33-c4f24f162eba",
            "resource": {
                "resourceType": "Condition",
                "id": "59a0fc1d-61df-3697-ac33-c4f24f162eba",
                "identifier": [
                    {
                        "system": "urn:ietf:rfc:3986",
                        "value": "urn:uuid:9d3d416d-45ab-4da1-912f-4583e0632000"
                    }
                ],
                "code": {
                    "coding": [
                        {
                            "code": "I21.3",
                            "display": "ST elevation (STEMI) myocardial infarction of unspecified site",
                            "system": "urn:oid:2.16.840.1.113883.6.90"
                        }
                    ]
                },
                "onsetDateTime": "2010-05-28T10:00:00.000Z",
                "subject": {
                    "reference": "Patient/f40da2df-7505-315a-9acb-55513a02c37b"
                }
            },
            "request": {
                "method": "PUT",
                "url": "Condition/59a0fc1d-61df-3697-ac33-c4f24f162eba"
            }
        },
        {
            "fullUrl": "urn:uuid:fe263e03-6284-3ffc-89cc-06165317929e",
            "resource": {
                "resourceType": "DiagnosticReport",
                "id": "fe263e03-6284-3ffc-89cc-06165317929e",
                "identifier": [
                    {
                        "system": "urn:ietf:rfc:3986",
                        "value": "urn:uuid:7d5a02b0-67a4-11db-bd13-0800200c9a66"
                    }
                ],
                "status": "final",
                "code": {
                    "coding": [
                        {
                            "code": "166312007",
                            "display": "Blood Chemistry",
                            "system": "http://snomed.info/sct"
                        }
                    ]
                },
                "subject": {
                    "reference": "Patient/f40da2df-7505-315a-9acb-55513a02c37b"
                },
                "result": [
                    {
                        "reference": "Observation/dd9381eb-e3a8-3985-8382-fc835dba9478"
                    }
                ]
            },
            "request": {
                "method": "PUT",
                "url": "DiagnosticReport/fe263e03-6284-3ffc-89cc-06165317929e"
            }
        },
        {
            "fullUrl": "urn:uuid:dd9381eb-e3a8-3985-8382-fc835dba9478",
            "resource": {
                "resourceType": "Observation",
                "meta": {
                    "profile": [
                        "http://hl7.org/fhir/us/core/StructureDefinition/us-core-observationresults"
                    ]
                },
                "id": "dd9381eb-e3a8-3985-8382-fc835dba9478",
                "identifier": [
                    {
                        "system": "urn:ietf:rfc:3986",
                        "value": "urn:uuid:107c2dc0-67a5-11db-bd13-0800200c9a66"
                    }
                ],
                "category": [
                    {
                        "coding": [
                            {
                                "system": "http://terminology.hl7.org/CodeSystem/observation-category",
                                "code": "laboratory"
                            }
                        ]
                    }
                ],
                "status": "final",
                "code": {
                    "coding": [
                        {
                            "code": "4548-4",
                            "display": "Hgb A1c MFr Bld",
                            "system": "http://loinc.org"
                        }
                    ]
                },
                "effectiveDateTime": "2010-03-31T10:00:00.000Z",
                "valueQuantity": {
                    "value": 7,
                    "unit": "%"
                },
                "interpretation": [
                    {
                        "coding": [
                            {
                                "code": "N",
                                "system": "http://terminology.hl7.org/CodeSystem/v3-ObservationInterpretation"
                            }
                        ]
                    }
                ],
                "subject": {
                    "reference": "Patient/f40da2df-7505-315a-9acb-55513a02c37b"
                }
            },
            "request": {
                "method": "PUT",
                "url": "Observation/dd9381eb-e3a8-3985-8382-fc835dba9478"
            }
        },
        {
            "fullUrl": "urn:uuid:7542eecc-7679-3e41-ba68-9ddb8ae6b8b4",
            "resource": {
                "resourceType": "DiagnosticReport",
                "id": "7542eecc-7679-3e41-ba68-9ddb8ae6b8b4",
                "identifier": [
                    {
                        "system": "urn:ietf:rfc:3986",
                        "value": "urn:uuid:7d5a02b0-67a4-11db-bd13-0800200c9a66"
                    }
                ],
                "status": "final",
                "code": {
                    "coding": [
                        {
                            "code": "16254007",
                            "display": "Lipid Panel",
                            "system": "http://snomed.info/sct"
                        }
                    ]
                },
                "subject": {
                    "reference": "Patient/f40da2df-7505-315a-9acb-55513a02c37b"
                },
                "result": [
                    {
                        "reference": "Observation/e102af40-c923-3fa8-9f70-04e54480e86d"
                    },
                    {
                        "reference": "Observation/be6981a8-71a4-33d8-a74c-a8bebab64ac3"
                    },
                    {
                        "reference": "Observation/f5e4051a-9af2-305c-a7df-da4495182581"
                    },
                    {
                        "reference": "Observation/5906501f-8f79-38d5-8977-e702840e2bed"
                    }
                ]
            },
            "request": {
                "method": "PUT",
                "url": "DiagnosticReport/7542eecc-7679-3e41-ba68-9ddb8ae6b8b4"
            }
        },
        {
            "fullUrl": "urn:uuid:e102af40-c923-3fa8-9f70-04e54480e86d",
            "resource": {
                "resourceType": "Observation",
                "meta": {
                    "profile": [
                        "http://hl7.org/fhir/us/core/StructureDefinition/us-core-observationresults"
                    ]
                },
                "id": "e102af40-c923-3fa8-9f70-04e54480e86d",
                "identifier": [
                    {
                        "system": "urn:ietf:rfc:3986",
                        "value": "urn:uuid:107c2dc0-67a5-11db-bd13-0800200c9a66"
                    }
                ],
                "category": [
                    {
                        "coding": [
                            {
                                "system": "http://terminology.hl7.org/CodeSystem/observation-category",
                                "code": "laboratory"
                            }
                        ]
                    }
                ],
                "status": "final",
                "code": {
                    "coding": [
                        {
                            "code": "14646-4",
                            "display": "HDLc SerPl-sCnc",
                            "system": "http://loinc.org"
                        }
                    ]
                },
                "effectiveDateTime": "2010-03-31T10:00:00.000Z",
                "valueQuantity": {
                    "value": 63,
                    "unit": "mg/dL"
                },
                "interpretation": [
                    {
                        "coding": [
                            {
                                "code": "N",
                                "system": "http://terminology.hl7.org/CodeSystem/v3-ObservationInterpretation"
                            }
                        ]
                    }
                ],
                "subject": {
                    "reference": "Patient/f40da2df-7505-315a-9acb-55513a02c37b"
                }
            },
            "request": {
                "method": "PUT",
                "url": "Observation/e102af40-c923-3fa8-9f70-04e54480e86d"
            }
        },
        {
            "fullUrl": "urn:uuid:be6981a8-71a4-33d8-a74c-a8bebab64ac3",
            "resource": {
                "resourceType": "Observation",
                "meta": {
                    "profile": [
                        "http://hl7.org/fhir/us/core/StructureDefinition/us-core-observationresults"
                    ]
                },
                "id": "be6981a8-71a4-33d8-a74c-a8bebab64ac3",
                "identifier": [
                    {
                        "system": "urn:ietf:rfc:3986",
                        "value": "urn:uuid:107c2dc0-67a5-11db-bd13-0800200c9a66"
                    }
                ],
                "category": [
                    {
                        "coding": [
                            {
                                "system": "http://terminology.hl7.org/CodeSystem/observation-category",
                                "code": "laboratory"
                            }
                        ]
                    }
                ],
                "status": "final",
                "code": {
                    "coding": [
                        {
                            "code": "2089-1",
                            "display": "LDLc SerPl-mCnc",
                            "system": "http://loinc.org"
                        }
                    ]
                },
                "effectiveDateTime": "2010-03-31T10:00:00.000Z",
                "valueQuantity": {
                    "value": 150.2,
                    "unit": "mg/dL"
                },
                "interpretation": [
                    {
                        "coding": [
                            {
                                "code": "N",
                                "system": "http://terminology.hl7.org/CodeSystem/v3-ObservationInterpretation"
                            }
                        ]
                    }
                ],
                "subject": {
                    "reference": "Patient/f40da2df-7505-315a-9acb-55513a02c37b"
                }
            },
            "request": {
                "method": "PUT",
                "url": "Observation/be6981a8-71a4-33d8-a74c-a8bebab64ac3"
            }
        },
        {
            "fullUrl": "urn:uuid:f5e4051a-9af2-305c-a7df-da4495182581",
            "resource": {
                "resourceType": "Observation",
                "meta": {
                    "profile": [
                        "http://hl7.org/fhir/us/core/StructureDefinition/us-core-observationresults"
                    ]
                },
                "id": "f5e4051a-9af2-305c-a7df-da4495182581",
                "identifier": [
                    {
                        "system": "urn:ietf:rfc:3986",
                        "value": "urn:uuid:107c2dc0-67a5-11db-bd13-0800200c9a66"
                    }
                ],
                "category": [
                    {
                        "coding": [
                            {
                                "system": "http://terminology.hl7.org/CodeSystem/observation-category",
                                "code": "laboratory"
                            }
                        ]
                    }
                ],
                "status": "final",
                "code": {
                    "coding": [
                        {
                            "code": "2093-3",
                            "display": "Cholest SerPl-mCnc",
                            "system": "http://loinc.org"
                        }
                    ]
                },
                "effectiveDateTime": "2010-03-31T10:00:00.000Z",
                "valueQuantity": {
                    "value": 251,
                    "unit": "mg/dL"
                },
                "interpretation": [
                    {
                        "coding": [
                            {
                                "code": "N",
                                "system": "http://terminology.hl7.org/CodeSystem/v3-ObservationInterpretation"
                            }
                        ]
                    }
                ],
                "subject": {
                    "reference": "Patient/f40da2df-7505-315a-9acb-55513a02c37b"
                }
            },
            "request": {
                "method": "PUT",
                "url": "Observation/f5e4051a-9af2-305c-a7df-da4495182581"
            }
        },
        {
            "fullUrl": "urn:uuid:5906501f-8f79-38d5-8977-e702840e2bed",
            "resource": {
                "resourceType": "Observation",
                "meta": {
                    "profile": [
                        "http://hl7.org/fhir/us/core/StructureDefinition/us-core-observationresults"
                    ]
                },
                "id": "5906501f-8f79-38d5-8977-e702840e2bed",
                "identifier": [
                    {
                        "system": "urn:ietf:rfc:3986",
                        "value": "urn:uuid:107c2dc0-67a5-11db-bd13-0800200c9a66"
                    }
                ],
                "category": [
                    {
                        "coding": [
                            {
                                "system": "http://terminology.hl7.org/CodeSystem/observation-category",
                                "code": "laboratory"
                            }
                        ]
                    }
                ],
                "status": "final",
                "code": {
                    "coding": [
                        {
                            "code": "12951-0",
                            "display": "Trigl SerPl Calc-mCnc",
                            "system": "http://loinc.org"
                        }
                    ]
                },
                "effectiveDateTime": "2010-03-31T10:00:00.000Z",
                "valueQuantity": {
                    "value": 189,
                    "unit": "mg/dL"
                },
                "interpretation": [
                    {
                        "coding": [
                            {
                                "code": "N",
                                "system": "http://terminology.hl7.org/CodeSystem/v3-ObservationInterpretation"
                            }
                        ]
                    }
                ],
                "subject": {
                    "reference": "Patient/f40da2df-7505-315a-9acb-55513a02c37b"
                }
            },
            "request": {
                "method": "PUT",
                "url": "Observation/5906501f-8f79-38d5-8977-e702840e2bed"
            }
        },
        {
            "fullUrl": "urn:uuid:9f58b38d-156d-35d8-8f5c-190a3a623d28",
            "resource": {
                "resourceType": "DiagnosticReport",
                "id": "9f58b38d-156d-35d8-8f5c-190a3a623d28",
                "identifier": [
                    {
                        "system": "urn:ietf:rfc:3986",
                        "value": "urn:uuid:7d5a02b0-67a4-11db-bd13-0800200c9a66"
                    }
                ],
                "status": "final",
                "code": {
                    "coding": [
                        {
                            "code": "166312007",
                            "display": "Blood Chemistry",
                            "system": "http://snomed.info/sct"
                        }
                    ]
                },
                "subject": {
                    "reference": "Patient/f40da2df-7505-315a-9acb-55513a02c37b"
                },
                "result": [
                    {
                        "reference": "Observation/ad98132c-d7cc-319d-b077-0322f6d77a1b"
                    }
                ]
            },
            "request": {
                "method": "PUT",
                "url": "DiagnosticReport/9f58b38d-156d-35d8-8f5c-190a3a623d28"
            }
        },
        {
            "fullUrl": "urn:uuid:ad98132c-d7cc-319d-b077-0322f6d77a1b",
            "resource": {
                "resourceType": "Observation",
                "meta": {
                    "profile": [
                        "http://hl7.org/fhir/us/core/StructureDefinition/us-core-observationresults"
                    ]
                },
                "id": "ad98132c-d7cc-319d-b077-0322f6d77a1b",
                "identifier": [
                    {
                        "system": "urn:ietf:rfc:3986",
                        "value": "urn:uuid:107c2dc0-67a5-11db-bd13-0800200c9a66"
                    }
                ],
                "category": [
                    {
                        "coding": [
                            {
                                "system": "http://terminology.hl7.org/CodeSystem/observation-category",
                                "code": "laboratory"
                            }
                        ]
                    }
                ],
                "status": "final",
                "code": {
                    "coding": [
                        {
                            "code": "4548-4",
                            "display": "Hgb A1c MFr Bld",
                            "system": "http://loinc.org"
                        }
                    ]
                },
                "effectiveDateTime": "2010-07-25T10:00:00.000Z",
                "valueQuantity": {
                    "value": 6.6,
                    "unit": "%"
                },
                "interpretation": [
                    {
                        "coding": [
                            {
                                "code": "N",
                                "system": "http://terminology.hl7.org/CodeSystem/v3-ObservationInterpretation"
                            }
                        ]
                    }
                ],
                "subject": {
                    "reference": "Patient/f40da2df-7505-315a-9acb-55513a02c37b"
                }
            },
            "request": {
                "method": "PUT",
                "url": "Observation/ad98132c-d7cc-319d-b077-0322f6d77a1b"
            }
        },
        {
            "fullUrl": "urn:uuid:94b5bbdd-e9b8-3187-b6a6-12fe1bfb1afd",
            "resource": {
                "resourceType": "DiagnosticReport",
                "id": "94b5bbdd-e9b8-3187-b6a6-12fe1bfb1afd",
                "identifier": [
                    {
                        "system": "urn:ietf:rfc:3986",
                        "value": "urn:uuid:7d5a02b0-67a4-11db-bd13-0800200c9a66"
                    }
                ],
                "status": "final",
                "code": {
                    "coding": [
                        {
                            "code": "166312007",
                            "display": "Blood Chemistry",
                            "system": "http://snomed.info/sct"
                        }
                    ]
                },
                "subject": {
                    "reference": "Patient/f40da2df-7505-315a-9acb-55513a02c37b"
                },
                "result": [
                    {
                        "reference": "Observation/efff1f53-f898-3004-8bec-e243795d2603"
                    }
                ]
            },
            "request": {
                "method": "PUT",
                "url": "DiagnosticReport/94b5bbdd-e9b8-3187-b6a6-12fe1bfb1afd"
            }
        },
        {
            "fullUrl": "urn:uuid:efff1f53-f898-3004-8bec-e243795d2603",
            "resource": {
                "resourceType": "Observation",
                "meta": {
                    "profile": [
                        "http://hl7.org/fhir/us/core/StructureDefinition/us-core-observationresults"
                    ]
                },
                "id": "efff1f53-f898-3004-8bec-e243795d2603",
                "identifier": [
                    {
                        "system": "urn:ietf:rfc:3986",
                        "value": "urn:uuid:107c2dc0-67a5-11db-bd13-0800200c9a66"
                    }
                ],
                "category": [
                    {
                        "coding": [
                            {
                                "system": "http://terminology.hl7.org/CodeSystem/observation-category",
                                "code": "laboratory"
                            }
                        ]
                    }
                ],
                "status": "final",
                "code": {
                    "coding": [
                        {
                            "code": "4548-4",
                            "display": "Hgb A1c MFr Bld",
                            "system": "http://loinc.org"
                        }
                    ]
                },
                "effectiveDateTime": "2010-10-24T10:00:00.000Z",
                "valueQuantity": {
                    "value": 6.7,
                    "unit": "%"
                },
                "interpretation": [
                    {
                        "coding": [
                            {
                                "code": "N",
                                "system": "http://terminology.hl7.org/CodeSystem/v3-ObservationInterpretation"
                            }
                        ]
                    }
                ],
                "subject": {
                    "reference": "Patient/f40da2df-7505-315a-9acb-55513a02c37b"
                }
            },
            "request": {
                "method": "PUT",
                "url": "Observation/efff1f53-f898-3004-8bec-e243795d2603"
            }
        },
        {
            "fullUrl": "urn:uuid:f6860069-b1c3-381c-92bb-fffe8afc2e95",
            "resource": {
                "resourceType": "DiagnosticReport",
                "id": "f6860069-b1c3-381c-92bb-fffe8afc2e95",
                "identifier": [
                    {
                        "system": "urn:ietf:rfc:3986",
                        "value": "urn:uuid:7d5a02b0-67a4-11db-bd13-0800200c9a66"
                    }
                ],
                "status": "final",
                "code": {
                    "coding": [
                        {
                            "code": "16254007",
                            "display": "Lipid Panel",
                            "system": "http://snomed.info/sct"
                        }
                    ]
                },
                "subject": {
                    "reference": "Patient/f40da2df-7505-315a-9acb-55513a02c37b"
                },
                "result": [
                    {
                        "reference": "Observation/c837c8e1-98f6-3652-ba0c-5f4d2a12c001"
                    },
                    {
                        "reference": "Observation/72b74ad5-d0c5-3de8-a4bb-efc6bff10069"
                    },
                    {
                        "reference": "Observation/673f83c0-ce8c-37d7-9b07-db0f41418f17"
                    },
                    {
                        "reference": "Observation/17008c8a-8953-3dc4-83c7-0001f99e2aca"
                    }
                ]
            },
            "request": {
                "method": "PUT",
                "url": "DiagnosticReport/f6860069-b1c3-381c-92bb-fffe8afc2e95"
            }
        },
        {
            "fullUrl": "urn:uuid:c837c8e1-98f6-3652-ba0c-5f4d2a12c001",
            "resource": {
                "resourceType": "Observation",
                "meta": {
                    "profile": [
                        "http://hl7.org/fhir/us/core/StructureDefinition/us-core-observationresults"
                    ]
                },
                "id": "c837c8e1-98f6-3652-ba0c-5f4d2a12c001",
                "identifier": [
                    {
                        "system": "urn:ietf:rfc:3986",
                        "value": "urn:uuid:107c2dc0-67a5-11db-bd13-0800200c9a66"
                    }
                ],
                "category": [
                    {
                        "coding": [
                            {
                                "system": "http://terminology.hl7.org/CodeSystem/observation-category",
                                "code": "laboratory"
                            }
                        ]
                    }
                ],
                "status": "final",
                "code": {
                    "coding": [
                        {
                            "code": "14646-4",
                            "display": "HDLc SerPl-sCnc",
                            "system": "http://loinc.org"
                        }
                    ]
                },
                "effectiveDateTime": "2010-10-24T10:00:00.000Z",
                "valueQuantity": {
                    "value": 61,
                    "unit": "mg/dL"
                },
                "interpretation": [
                    {
                        "coding": [
                            {
                                "code": "N",
                                "system": "http://terminology.hl7.org/CodeSystem/v3-ObservationInterpretation"
                            }
                        ]
                    }
                ],
                "subject": {
                    "reference": "Patient/f40da2df-7505-315a-9acb-55513a02c37b"
                }
            },
            "request": {
                "method": "PUT",
                "url": "Observation/c837c8e1-98f6-3652-ba0c-5f4d2a12c001"
            }
        },
        {
            "fullUrl": "urn:uuid:72b74ad5-d0c5-3de8-a4bb-efc6bff10069",
            "resource": {
                "resourceType": "Observation",
                "meta": {
                    "profile": [
                        "http://hl7.org/fhir/us/core/StructureDefinition/us-core-observationresults"
                    ]
                },
                "id": "72b74ad5-d0c5-3de8-a4bb-efc6bff10069",
                "identifier": [
                    {
                        "system": "urn:ietf:rfc:3986",
                        "value": "urn:uuid:107c2dc0-67a5-11db-bd13-0800200c9a66"
                    }
                ],
                "category": [
                    {
                        "coding": [
                            {
                                "system": "http://terminology.hl7.org/CodeSystem/observation-category",
                                "code": "laboratory"
                            }
                        ]
                    }
                ],
                "status": "final",
                "code": {
                    "coding": [
                        {
                            "code": "2089-1",
                            "display": "LDLc SerPl-mCnc",
                            "system": "http://loinc.org"
                        }
                    ]
                },
                "effectiveDateTime": "2010-10-24T10:00:00.000Z",
                "valueQuantity": {
                    "value": 106.6,
                    "unit": "mg/dL"
                },
                "interpretation": [
                    {
                        "coding": [
                            {
                                "code": "N",
                                "system": "http://terminology.hl7.org/CodeSystem/v3-ObservationInterpretation"
                            }
                        ]
                    }
                ],
                "subject": {
                    "reference": "Patient/f40da2df-7505-315a-9acb-55513a02c37b"
                }
            },
            "request": {
                "method": "PUT",
                "url": "Observation/72b74ad5-d0c5-3de8-a4bb-efc6bff10069"
            }
        },
        {
            "fullUrl": "urn:uuid:673f83c0-ce8c-37d7-9b07-db0f41418f17",
            "resource": {
                "resourceType": "Observation",
                "meta": {
                    "profile": [
                        "http://hl7.org/fhir/us/core/StructureDefinition/us-core-observationresults"
                    ]
                },
                "id": "673f83c0-ce8c-37d7-9b07-db0f41418f17",
                "identifier": [
                    {
                        "system": "urn:ietf:rfc:3986",
                        "value": "urn:uuid:107c2dc0-67a5-11db-bd13-0800200c9a66"
                    }
                ],
                "category": [
                    {
                        "coding": [
                            {
                                "system": "http://terminology.hl7.org/CodeSystem/observation-category",
                                "code": "laboratory"
                            }
                        ]
                    }
                ],
                "status": "final",
                "code": {
                    "coding": [
                        {
                            "code": "2093-3",
                            "display": "Cholest SerPl-mCnc",
                            "system": "http://loinc.org"
                        }
                    ]
                },
                "effectiveDateTime": "2010-10-24T10:00:00.000Z",
                "valueQuantity": {
                    "value": 197,
                    "unit": "mg/dL"
                },
                "interpretation": [
                    {
                        "coding": [
                            {
                                "code": "N",
                                "system": "http://terminology.hl7.org/CodeSystem/v3-ObservationInterpretation"
                            }
                        ]
                    }
                ],
                "subject": {
                    "reference": "Patient/f40da2df-7505-315a-9acb-55513a02c37b"
                }
            },
            "request": {
                "method": "PUT",
                "url": "Observation/673f83c0-ce8c-37d7-9b07-db0f41418f17"
            }
        },
        {
            "fullUrl": "urn:uuid:17008c8a-8953-3dc4-83c7-0001f99e2aca",
            "resource": {
                "resourceType": "Observation",
                "meta": {
                    "profile": [
                        "http://hl7.org/fhir/us/core/StructureDefinition/us-core-observationresults"
                    ]
                },
                "id": "17008c8a-8953-3dc4-83c7-0001f99e2aca",
                "identifier": [
                    {
                        "system": "urn:ietf:rfc:3986",
                        "value": "urn:uuid:107c2dc0-67a5-11db-bd13-0800200c9a66"
                    }
                ],
                "category": [
                    {
                        "coding": [
                            {
                                "system": "http://terminology.hl7.org/CodeSystem/observation-category",
                                "code": "laboratory"
                            }
                        ]
                    }
                ],
                "status": "final",
                "code": {
                    "coding": [
                        {
                            "code": "12951-0",
                            "display": "Trigl SerPl Calc-mCnc",
                            "system": "http://loinc.org"
                        }
                    ]
                },
                "effectiveDateTime": "2010-10-24T10:00:00.000Z",
                "valueQuantity": {
                    "value": 147,
                    "unit": "mg/dL"
                },
                "interpretation": [
                    {
                        "coding": [
                            {
                                "code": "N",
                                "system": "http://terminology.hl7.org/CodeSystem/v3-ObservationInterpretation"
                            }
                        ]
                    }
                ],
                "subject": {
                    "reference": "Patient/f40da2df-7505-315a-9acb-55513a02c37b"
                }
            },
            "request": {
                "method": "PUT",
                "url": "Observation/17008c8a-8953-3dc4-83c7-0001f99e2aca"
            }
        },
        {
            "fullUrl": "urn:uuid:bd35fc55-f750-3758-8f9c-0c725d9e0d46",
            "resource": {
                "resourceType": "Observation",
                "meta": {
                    "profile": [
                        "http://hl7.org/fhir/us/core/StructureDefinition/us-core-observationresults"
                    ]
                },
                "id": "bd35fc55-f750-3758-8f9c-0c725d9e0d46",
                "identifier": [
                    {
                        "system": "urn:oid:2.16.840.1.113883.19",
                        "value": "123456789"
                    }
                ],
                "category": [
                    {
                        "coding": [
                            {
                                "system": "http://terminology.hl7.org/CodeSystem/observation-category",
                                "code": "social-history"
                            }
                        ]
                    }
                ],
                "status": "final",
                "code": {
                    "coding": [
                        {
                            "code": "ASSERTION",
                            "system": "urn:oid:2.16.840.1.113883.5.4"
                        }
                    ]
                },
                "effectivePeriod": {
                    "start": "2010-03-31T10:00:00.000Z"
                },
                "valueCodeableConcept": {
                    "coding": [
                        {
                            "code": "266919005",
                            "display": "Never smoker (Never Smoked)",
                            "system": "http://snomed.info/sct"
                        }
                    ]
                },
                "subject": {
                    "reference": "Patient/f40da2df-7505-315a-9acb-55513a02c37b"
                }
            },
            "request": {
                "method": "PUT",
                "url": "Observation/bd35fc55-f750-3758-8f9c-0c725d9e0d46"
            }
        },
        {
            "fullUrl": "urn:uuid:00c94a6a-b1a8-3aa9-a2fb-0148107a5b6a",
            "resource": {
                "resourceType": "Observation",
                "meta": {
                    "profile": [
                        "http://hl7.org/fhir/us/core/StructureDefinition/us-core-observationresults"
                    ]
                },
                "id": "00c94a6a-b1a8-3aa9-a2fb-0148107a5b6a",
                "identifier": [
                    {
                        "system": "urn:ietf:rfc:3986",
                        "value": "urn:uuid:c6f88321-67ad-11db-bd13-0800200c9a66"
                    }
                ],
                "category": [
                    {
                        "coding": [
                            {
                                "system": "http://terminology.hl7.org/CodeSystem/observation-category",
                                "code": "vital-signs"
                            }
                        ]
                    }
                ],
                "status": "final",
                "code": {
                    "coding": [
                        {
                            "code": "39156-5",
                            "display": "BMI",
                            "system": "http://loinc.org"
                        }
                    ]
                },
                "effectiveDateTime": "2010-03-31T10:00:00.000Z",
                "valueQuantity": {
                    "value": 31.3,
                    "unit": "kg/m2"
                },
                "subject": {
                    "reference": "Patient/f40da2df-7505-315a-9acb-55513a02c37b"
                }
            },
            "request": {
                "method": "PUT",
                "url": "Observation/00c94a6a-b1a8-3aa9-a2fb-0148107a5b6a"
            }
        },
        {
            "fullUrl": "urn:uuid:fce33742-c1bc-3bb5-b01c-2dea64571dc3",
            "resource": {
                "resourceType": "Observation",
                "meta": {
                    "profile": [
                        "http://hl7.org/fhir/us/core/StructureDefinition/us-core-observationresults"
                    ]
                },
                "id": "fce33742-c1bc-3bb5-b01c-2dea64571dc3",
                "identifier": [
                    {
                        "system": "urn:ietf:rfc:3986",
                        "value": "urn:uuid:c6f88321-67ad-11db-bd13-0800200c9a66"
                    }
                ],
                "category": [
                    {
                        "coding": [
                            {
                                "system": "http://terminology.hl7.org/CodeSystem/observation-category",
                                "code": "vital-signs"
                            }
                        ]
                    }
                ],
                "status": "final",
                "code": {
                    "coding": [
                        {
                            "code": "8462-4",
                            "display": "BP Diastolic",
                            "system": "http://loinc.org"
                        }
                    ]
                },
                "effectiveDateTime": "2010-03-31T10:00:00.000Z",
                "valueQuantity": {
                    "value": 92,
                    "unit": "mm[Hg]"
                },
                "subject": {
                    "reference": "Patient/f40da2df-7505-315a-9acb-55513a02c37b"
                }
            },
            "request": {
                "method": "PUT",
                "url": "Observation/fce33742-c1bc-3bb5-b01c-2dea64571dc3"
            }
        },
        {
            "fullUrl": "urn:uuid:c6496f48-0b65-3ac0-8185-abf4d3005a1e",
            "resource": {
                "resourceType": "Observation",
                "meta": {
                    "profile": [
                        "http://hl7.org/fhir/us/core/StructureDefinition/us-core-observationresults"
                    ]
                },
                "id": "c6496f48-0b65-3ac0-8185-abf4d3005a1e",
                "identifier": [
                    {
                        "system": "urn:ietf:rfc:3986",
                        "value": "urn:uuid:c6f88321-67ad-11db-bd13-0800200c9a66"
                    }
                ],
                "category": [
                    {
                        "coding": [
                            {
                                "system": "http://terminology.hl7.org/CodeSystem/observation-category",
                                "code": "vital-signs"
                            }
                        ]
                    }
                ],
                "status": "final",
                "code": {
                    "coding": [
                        {
                            "code": "8480-6",
                            "display": "BP Systolic",
                            "system": "http://loinc.org"
                        }
                    ]
                },
                "effectiveDateTime": "2010-03-31T10:00:00.000Z",
                "valueQuantity": {
                    "value": 145,
                    "unit": "mm[Hg]"
                },
                "subject": {
                    "reference": "Patient/f40da2df-7505-315a-9acb-55513a02c37b"
                }
            },
            "request": {
                "method": "PUT",
                "url": "Observation/c6496f48-0b65-3ac0-8185-abf4d3005a1e"
            }
        },
        {
            "fullUrl": "urn:uuid:fb7d5be4-83f1-38b5-9d2c-2b3d6064aacf",
            "resource": {
                "resourceType": "Observation",
                "meta": {
                    "profile": [
                        "http://hl7.org/fhir/us/core/StructureDefinition/us-core-observationresults"
                    ]
                },
                "id": "fb7d5be4-83f1-38b5-9d2c-2b3d6064aacf",
                "identifier": [
                    {
                        "system": "urn:ietf:rfc:3986",
                        "value": "urn:uuid:c6f88321-67ad-11db-bd13-0800200c9a66"
                    }
                ],
                "category": [
                    {
                        "coding": [
                            {
                                "system": "http://terminology.hl7.org/CodeSystem/observation-category",
                                "code": "vital-signs"
                            }
                        ]
                    }
                ],
                "status": "final",
                "code": {
                    "coding": [
                        {
                            "code": "39156-5",
                            "display": "BMI",
                            "system": "http://loinc.org"
                        }
                    ]
                },
                "effectiveDateTime": "2010-05-23T10:00:00.000Z",
                "valueQuantity": {
                    "value": 30.7,
                    "unit": "kg/m2"
                },
                "subject": {
                    "reference": "Patient/f40da2df-7505-315a-9acb-55513a02c37b"
                }
            },
            "request": {
                "method": "PUT",
                "url": "Observation/fb7d5be4-83f1-38b5-9d2c-2b3d6064aacf"
            }
        },
        {
            "fullUrl": "urn:uuid:d102ec92-aa4e-3d40-84e8-4f8603f38f29",
            "resource": {
                "resourceType": "Observation",
                "meta": {
                    "profile": [
                        "http://hl7.org/fhir/us/core/StructureDefinition/us-core-observationresults"
                    ]
                },
                "id": "d102ec92-aa4e-3d40-84e8-4f8603f38f29",
                "identifier": [
                    {
                        "system": "urn:ietf:rfc:3986",
                        "value": "urn:uuid:c6f88321-67ad-11db-bd13-0800200c9a66"
                    }
                ],
                "category": [
                    {
                        "coding": [
                            {
                                "system": "http://terminology.hl7.org/CodeSystem/observation-category",
                                "code": "vital-signs"
                            }
                        ]
                    }
                ],
                "status": "final",
                "code": {
                    "coding": [
                        {
                            "code": "8462-4",
                            "display": "BP Diastolic",
                            "system": "http://loinc.org"
                        }
                    ]
                },
                "effectiveDateTime": "2010-05-23T10:00:00.000Z",
                "valueQuantity": {
                    "value": 100,
                    "unit": "mm[Hg]"
                },
                "subject": {
                    "reference": "Patient/f40da2df-7505-315a-9acb-55513a02c37b"
                }
            },
            "request": {
                "method": "PUT",
                "url": "Observation/d102ec92-aa4e-3d40-84e8-4f8603f38f29"
            }
        },
        {
            "fullUrl": "urn:uuid:627ce317-4daa-3447-ba57-08e3214ea59d",
            "resource": {
                "resourceType": "Observation",
                "meta": {
                    "profile": [
                        "http://hl7.org/fhir/us/core/StructureDefinition/us-core-observationresults"
                    ]
                },
                "id": "627ce317-4daa-3447-ba57-08e3214ea59d",
                "identifier": [
                    {
                        "system": "urn:ietf:rfc:3986",
                        "value": "urn:uuid:c6f88321-67ad-11db-bd13-0800200c9a66"
                    }
                ],
                "category": [
                    {
                        "coding": [
                            {
                                "system": "http://terminology.hl7.org/CodeSystem/observation-category",
                                "code": "vital-signs"
                            }
                        ]
                    }
                ],
                "status": "final",
                "code": {
                    "coding": [
                        {
                            "code": "8867-4",
                            "display": "Heart Rate",
                            "system": "http://loinc.org"
                        }
                    ]
                },
                "effectiveDateTime": "2010-05-23T10:00:00.000Z",
                "valueQuantity": {
                    "value": 100,
                    "unit": "/min"
                },
                "subject": {
                    "reference": "Patient/f40da2df-7505-315a-9acb-55513a02c37b"
                }
            },
            "request": {
                "method": "PUT",
                "url": "Observation/627ce317-4daa-3447-ba57-08e3214ea59d"
            }
        },
        {
            "fullUrl": "urn:uuid:f06c2706-56ee-3ab4-852a-83b37004e882",
            "resource": {
                "resourceType": "Observation",
                "meta": {
                    "profile": [
                        "http://hl7.org/fhir/us/core/StructureDefinition/us-core-observationresults"
                    ]
                },
                "id": "f06c2706-56ee-3ab4-852a-83b37004e882",
                "identifier": [
                    {
                        "system": "urn:ietf:rfc:3986",
                        "value": "urn:uuid:c6f88321-67ad-11db-bd13-0800200c9a66"
                    }
                ],
                "category": [
                    {
                        "coding": [
                            {
                                "system": "http://terminology.hl7.org/CodeSystem/observation-category",
                                "code": "vital-signs"
                            }
                        ]
                    }
                ],
                "status": "final",
                "code": {
                    "coding": [
                        {
                            "code": "8480-6",
                            "display": "BP Systolic",
                            "system": "http://loinc.org"
                        }
                    ]
                },
                "effectiveDateTime": "2010-05-23T10:00:00.000Z",
                "valueQuantity": {
                    "value": 160,
                    "unit": "mm[Hg]"
                },
                "subject": {
                    "reference": "Patient/f40da2df-7505-315a-9acb-55513a02c37b"
                }
            },
            "request": {
                "method": "PUT",
                "url": "Observation/f06c2706-56ee-3ab4-852a-83b37004e882"
            }
        },
        {
            "fullUrl": "urn:uuid:3abae0d1-1112-34ab-b2b3-db3456d76935",
            "resource": {
                "resourceType": "Observation",
                "meta": {
                    "profile": [
                        "http://hl7.org/fhir/us/core/StructureDefinition/us-core-observationresults"
                    ]
                },
                "id": "3abae0d1-1112-34ab-b2b3-db3456d76935",
                "identifier": [
                    {
                        "system": "urn:ietf:rfc:3986",
                        "value": "urn:uuid:c6f88321-67ad-11db-bd13-0800200c9a66"
                    }
                ],
                "category": [
                    {
                        "coding": [
                            {
                                "system": "http://terminology.hl7.org/CodeSystem/observation-category",
                                "code": "vital-signs"
                            }
                        ]
                    }
                ],
                "status": "final",
                "code": {
                    "coding": [
                        {
                            "code": "8462-4",
                            "display": "BP Diastolic",
                            "system": "http://loinc.org"
                        }
                    ]
                },
                "effectiveDateTime": "2010-05-28T10:00:00.000Z",
                "valueQuantity": {
                    "value": 80,
                    "unit": "mm[Hg]"
                },
                "subject": {
                    "reference": "Patient/f40da2df-7505-315a-9acb-55513a02c37b"
                }
            },
            "request": {
                "method": "PUT",
                "url": "Observation/3abae0d1-1112-34ab-b2b3-db3456d76935"
            }
        },
        {
            "fullUrl": "urn:uuid:6951f452-a7f8-34c0-a659-1ff04ea6f1ac",
            "resource": {
                "resourceType": "Observation",
                "meta": {
                    "profile": [
                        "http://hl7.org/fhir/us/core/StructureDefinition/us-core-observationresults"
                    ]
                },
                "id": "6951f452-a7f8-34c0-a659-1ff04ea6f1ac",
                "identifier": [
                    {
                        "system": "urn:ietf:rfc:3986",
                        "value": "urn:uuid:c6f88321-67ad-11db-bd13-0800200c9a66"
                    }
                ],
                "category": [
                    {
                        "coding": [
                            {
                                "system": "http://terminology.hl7.org/CodeSystem/observation-category",
                                "code": "vital-signs"
                            }
                        ]
                    }
                ],
                "status": "final",
                "code": {
                    "coding": [
                        {
                            "code": "8867-4",
                            "display": "Heart Rate",
                            "system": "http://loinc.org"
                        }
                    ]
                },
                "effectiveDateTime": "2010-05-28T10:00:00.000Z",
                "valueQuantity": {
                    "value": 88,
                    "unit": "/min"
                },
                "subject": {
                    "reference": "Patient/f40da2df-7505-315a-9acb-55513a02c37b"
                }
            },
            "request": {
                "method": "PUT",
                "url": "Observation/6951f452-a7f8-34c0-a659-1ff04ea6f1ac"
            }
        },
        {
            "fullUrl": "urn:uuid:965b65d7-ae02-3424-83e6-322826d488b9",
            "resource": {
                "resourceType": "Observation",
                "meta": {
                    "profile": [
                        "http://hl7.org/fhir/us/core/StructureDefinition/us-core-observationresults"
                    ]
                },
                "id": "965b65d7-ae02-3424-83e6-322826d488b9",
                "identifier": [
                    {
                        "system": "urn:ietf:rfc:3986",
                        "value": "urn:uuid:c6f88321-67ad-11db-bd13-0800200c9a66"
                    }
                ],
                "category": [
                    {
                        "coding": [
                            {
                                "system": "http://terminology.hl7.org/CodeSystem/observation-category",
                                "code": "vital-signs"
                            }
                        ]
                    }
                ],
                "status": "final",
                "code": {
                    "coding": [
                        {
                            "code": "8480-6",
                            "display": "BP Systolic",
                            "system": "http://loinc.org"
                        }
                    ]
                },
                "effectiveDateTime": "2010-05-28T10:00:00.000Z",
                "valueQuantity": {
                    "value": 125,
                    "unit": "mm[Hg]"
                },
                "subject": {
                    "reference": "Patient/f40da2df-7505-315a-9acb-55513a02c37b"
                }
            },
            "request": {
                "method": "PUT",
                "url": "Observation/965b65d7-ae02-3424-83e6-322826d488b9"
            }
        },
        {
            "fullUrl": "urn:uuid:dc71b347-2399-3c7d-ae15-0921b4ebd36d",
            "resource": {
                "resourceType": "Observation",
                "meta": {
                    "profile": [
                        "http://hl7.org/fhir/us/core/StructureDefinition/us-core-observationresults"
                    ]
                },
                "id": "dc71b347-2399-3c7d-ae15-0921b4ebd36d",
                "identifier": [
                    {
                        "system": "urn:ietf:rfc:3986",
                        "value": "urn:uuid:c6f88321-67ad-11db-bd13-0800200c9a66"
                    }
                ],
                "category": [
                    {
                        "coding": [
                            {
                                "system": "http://terminology.hl7.org/CodeSystem/observation-category",
                                "code": "vital-signs"
                            }
                        ]
                    }
                ],
                "status": "final",
                "code": {
                    "coding": [
                        {
                            "code": "39156-5",
                            "display": "BMI",
                            "system": "http://loinc.org"
                        }
                    ]
                },
                "effectiveDateTime": "2010-06-25T10:00:00.000Z",
                "valueQuantity": {
                    "value": 29.9,
                    "unit": "kg/m2"
                },
                "subject": {
                    "reference": "Patient/f40da2df-7505-315a-9acb-55513a02c37b"
                }
            },
            "request": {
                "method": "PUT",
                "url": "Observation/dc71b347-2399-3c7d-ae15-0921b4ebd36d"
            }
        },
        {
            "fullUrl": "urn:uuid:f4864100-4fc5-33fa-b1c5-512f51eba4a9",
            "resource": {
                "resourceType": "Observation",
                "meta": {
                    "profile": [
                        "http://hl7.org/fhir/us/core/StructureDefinition/us-core-observationresults"
                    ]
                },
                "id": "f4864100-4fc5-33fa-b1c5-512f51eba4a9",
                "identifier": [
                    {
                        "system": "urn:ietf:rfc:3986",
                        "value": "urn:uuid:c6f88321-67ad-11db-bd13-0800200c9a66"
                    }
                ],
                "category": [
                    {
                        "coding": [
                            {
                                "system": "http://terminology.hl7.org/CodeSystem/observation-category",
                                "code": "vital-signs"
                            }
                        ]
                    }
                ],
                "status": "final",
                "code": {
                    "coding": [
                        {
                            "code": "8462-4",
                            "display": "BP Diastolic",
                            "system": "http://loinc.org"
                        }
                    ]
                },
                "effectiveDateTime": "2010-06-25T10:00:00.000Z",
                "valueQuantity": {
                    "value": 88,
                    "unit": "mm[Hg]"
                },
                "subject": {
                    "reference": "Patient/f40da2df-7505-315a-9acb-55513a02c37b"
                }
            },
            "request": {
                "method": "PUT",
                "url": "Observation/f4864100-4fc5-33fa-b1c5-512f51eba4a9"
            }
        },
        {
            "fullUrl": "urn:uuid:4cfbf5b1-1b19-3e15-8e61-3432a47059aa",
            "resource": {
                "resourceType": "Observation",
                "meta": {
                    "profile": [
                        "http://hl7.org/fhir/us/core/StructureDefinition/us-core-observationresults"
                    ]
                },
                "id": "4cfbf5b1-1b19-3e15-8e61-3432a47059aa",
                "identifier": [
                    {
                        "system": "urn:ietf:rfc:3986",
                        "value": "urn:uuid:c6f88321-67ad-11db-bd13-0800200c9a66"
                    }
                ],
                "category": [
                    {
                        "coding": [
                            {
                                "system": "http://terminology.hl7.org/CodeSystem/observation-category",
                                "code": "vital-signs"
                            }
                        ]
                    }
                ],
                "status": "final",
                "code": {
                    "coding": [
                        {
                            "code": "8867-4",
                            "display": "Heart Rate",
                            "system": "http://loinc.org"
                        }
                    ]
                },
                "effectiveDateTime": "2010-06-25T10:00:00.000Z",
                "valueQuantity": {
                    "value": 86,
                    "unit": "/min"
                },
                "subject": {
                    "reference": "Patient/f40da2df-7505-315a-9acb-55513a02c37b"
                }
            },
            "request": {
                "method": "PUT",
                "url": "Observation/4cfbf5b1-1b19-3e15-8e61-3432a47059aa"
            }
        },
        {
            "fullUrl": "urn:uuid:c90ad0de-1b48-3231-bd01-85762ae08100",
            "resource": {
                "resourceType": "Observation",
                "meta": {
                    "profile": [
                        "http://hl7.org/fhir/us/core/StructureDefinition/us-core-observationresults"
                    ]
                },
                "id": "c90ad0de-1b48-3231-bd01-85762ae08100",
                "identifier": [
                    {
                        "system": "urn:ietf:rfc:3986",
                        "value": "urn:uuid:c6f88321-67ad-11db-bd13-0800200c9a66"
                    }
                ],
                "category": [
                    {
                        "coding": [
                            {
                                "system": "http://terminology.hl7.org/CodeSystem/observation-category",
                                "code": "vital-signs"
                            }
                        ]
                    }
                ],
                "status": "final",
                "code": {
                    "coding": [
                        {
                            "code": "8480-6",
                            "display": "BP Systolic",
                            "system": "http://loinc.org"
                        }
                    ]
                },
                "effectiveDateTime": "2010-06-25T10:00:00.000Z",
                "valueQuantity": {
                    "value": 132,
                    "unit": "mm[Hg]"
                },
                "subject": {
                    "reference": "Patient/f40da2df-7505-315a-9acb-55513a02c37b"
                }
            },
            "request": {
                "method": "PUT",
                "url": "Observation/c90ad0de-1b48-3231-bd01-85762ae08100"
            }
        },
        {
            "fullUrl": "urn:uuid:80706ea3-fd78-3098-b2a5-ab7046a0222a",
            "resource": {
                "resourceType": "Observation",
                "meta": {
                    "profile": [
                        "http://hl7.org/fhir/us/core/StructureDefinition/us-core-observationresults"
                    ]
                },
                "id": "80706ea3-fd78-3098-b2a5-ab7046a0222a",
                "identifier": [
                    {
                        "system": "urn:ietf:rfc:3986",
                        "value": "urn:uuid:c6f88321-67ad-11db-bd13-0800200c9a66"
                    }
                ],
                "category": [
                    {
                        "coding": [
                            {
                                "system": "http://terminology.hl7.org/CodeSystem/observation-category",
                                "code": "vital-signs"
                            }
                        ]
                    }
                ],
                "status": "final",
                "code": {
                    "coding": [
                        {
                            "code": "39156-5",
                            "display": "BMI",
                            "system": "http://loinc.org"
                        }
                    ]
                },
                "effectiveDateTime": "2010-10-24T10:00:00.000Z",
                "valueQuantity": {
                    "value": 28.2,
                    "unit": "kg/m2"
                },
                "subject": {
                    "reference": "Patient/f40da2df-7505-315a-9acb-55513a02c37b"
                }
            },
            "request": {
                "method": "PUT",
                "url": "Observation/80706ea3-fd78-3098-b2a5-ab7046a0222a"
            }
        },
        {
            "fullUrl": "urn:uuid:f692fe66-7792-3526-8052-7382fa9413da",
            "resource": {
                "resourceType": "Observation",
                "meta": {
                    "profile": [
                        "http://hl7.org/fhir/us/core/StructureDefinition/us-core-observationresults"
                    ]
                },
                "id": "f692fe66-7792-3526-8052-7382fa9413da",
                "identifier": [
                    {
                        "system": "urn:ietf:rfc:3986",
                        "value": "urn:uuid:c6f88321-67ad-11db-bd13-0800200c9a66"
                    }
                ],
                "category": [
                    {
                        "coding": [
                            {
                                "system": "http://terminology.hl7.org/CodeSystem/observation-category",
                                "code": "vital-signs"
                            }
                        ]
                    }
                ],
                "status": "final",
                "code": {
                    "coding": [
                        {
                            "code": "8462-4",
                            "display": "BP Diastolic",
                            "system": "http://loinc.org"
                        }
                    ]
                },
                "effectiveDateTime": "2010-10-24T10:00:00.000Z",
                "valueQuantity": {
                    "value": 84,
                    "unit": "mm[Hg]"
                },
                "subject": {
                    "reference": "Patient/f40da2df-7505-315a-9acb-55513a02c37b"
                }
            },
            "request": {
                "method": "PUT",
                "url": "Observation/f692fe66-7792-3526-8052-7382fa9413da"
            }
        },
        {
            "fullUrl": "urn:uuid:6a8a277e-6328-351a-a9d2-4ea062afb9bf",
            "resource": {
                "resourceType": "Observation",
                "meta": {
                    "profile": [
                        "http://hl7.org/fhir/us/core/StructureDefinition/us-core-observationresults"
                    ]
                },
                "id": "6a8a277e-6328-351a-a9d2-4ea062afb9bf",
                "identifier": [
                    {
                        "system": "urn:ietf:rfc:3986",
                        "value": "urn:uuid:c6f88321-67ad-11db-bd13-0800200c9a66"
                    }
                ],
                "category": [
                    {
                        "coding": [
                            {
                                "system": "http://terminology.hl7.org/CodeSystem/observation-category",
                                "code": "vital-signs"
                            }
                        ]
                    }
                ],
                "status": "final",
                "code": {
                    "coding": [
                        {
                            "code": "8867-4",
                            "display": "Heart Rate",
                            "system": "http://loinc.org"
                        }
                    ]
                },
                "effectiveDateTime": "2010-10-24T10:00:00.000Z",
                "valueQuantity": {
                    "value": 84,
                    "unit": "/min"
                },
                "subject": {
                    "reference": "Patient/f40da2df-7505-315a-9acb-55513a02c37b"
                }
            },
            "request": {
                "method": "PUT",
                "url": "Observation/6a8a277e-6328-351a-a9d2-4ea062afb9bf"
            }
        },
        {
            "fullUrl": "urn:uuid:a8debbc1-6f7b-3268-b0be-26dee000add3",
            "resource": {
                "resourceType": "Observation",
                "meta": {
                    "profile": [
                        "http://hl7.org/fhir/us/core/StructureDefinition/us-core-observationresults"
                    ]
                },
                "id": "a8debbc1-6f7b-3268-b0be-26dee000add3",
                "identifier": [
                    {
                        "system": "urn:ietf:rfc:3986",
                        "value": "urn:uuid:c6f88321-67ad-11db-bd13-0800200c9a66"
                    }
                ],
                "category": [
                    {
                        "coding": [
                            {
                                "system": "http://terminology.hl7.org/CodeSystem/observation-category",
                                "code": "vital-signs"
                            }
                        ]
                    }
                ],
                "status": "final",
                "code": {
                    "coding": [
                        {
                            "code": "8480-6",
                            "display": "BP Systolic",
                            "system": "http://loinc.org"
                        }
                    ]
                },
                "effectiveDateTime": "2010-10-24T10:00:00.000Z",
                "valueQuantity": {
                    "value": 130,
                    "unit": "mm[Hg]"
                },
                "subject": {
                    "reference": "Patient/f40da2df-7505-315a-9acb-55513a02c37b"
                }
            },
            "request": {
                "method": "PUT",
                "url": "Observation/a8debbc1-6f7b-3268-b0be-26dee000add3"
            }
        },
        {
            "fullUrl": "urn:uuid:3b1dea56-9ff5-380e-97da-a3df98cd5424",
            "resource": {
                "resourceType": "Procedure",
                "meta": {
                    "profile": [
                        "http://hl7.org/fhir/us/core/StructureDefinition/us-core-procedure"
                    ]
                },
                "id": "3b1dea56-9ff5-380e-97da-a3df98cd5424",
                "identifier": [
                    {
                        "system": "urn:ietf:rfc:3986",
                        "value": "urn:uuid:e401f340-7be2-11db-9fe1-0800200c9a66"
                    }
                ],
                "status": "completed",
                "performedDateTime": "2010-03-31T10:00:00.000Z",
                "subject": {
                    "reference": "Patient/f40da2df-7505-315a-9acb-55513a02c37b"
                }
            },
            "request": {
                "method": "PUT",
                "url": "Procedure/3b1dea56-9ff5-380e-97da-a3df98cd5424"
            }
        },
        {
            "fullUrl": "urn:uuid:ee92e301-b0ae-30cb-97fa-1360c95faea9",
            "resource": {
                "resourceType": "Procedure",
                "meta": {
                    "profile": [
                        "http://hl7.org/fhir/us/core/StructureDefinition/us-core-procedure"
                    ]
                },
                "id": "ee92e301-b0ae-30cb-97fa-1360c95faea9",
                "identifier": [
                    {
                        "system": "urn:ietf:rfc:3986",
                        "value": "urn:uuid:e401f340-7be2-11db-9fe1-0800200c9a66"
                    }
                ],
                "status": "completed",
                "performedDateTime": "2010-03-31T10:00:00.000Z",
                "subject": {
                    "reference": "Patient/f40da2df-7505-315a-9acb-55513a02c37b"
                }
            },
            "request": {
                "method": "PUT",
                "url": "Procedure/ee92e301-b0ae-30cb-97fa-1360c95faea9"
            }
        },
        {
            "fullUrl": "urn:uuid:c0bdf125-6443-3e67-a809-9d173152e7c0",
            "resource": {
                "resourceType": "Procedure",
                "meta": {
                    "profile": [
                        "http://hl7.org/fhir/us/core/StructureDefinition/us-core-procedure"
                    ]
                },
                "id": "c0bdf125-6443-3e67-a809-9d173152e7c0",
                "identifier": [
                    {
                        "system": "urn:ietf:rfc:3986",
                        "value": "urn:uuid:e401f340-7be2-11db-9fe1-0800200c9a66"
                    }
                ],
                "status": "completed",
                "code": {
                    "coding": [
                        {
                            "code": "363680008",
                            "display": "Radiographic imaging procedure (procedure)",
                            "system": "http://snomed.info/sct"
                        }
                    ]
                },
                "performedDateTime": "2010-05-23T10:00:00.000Z",
                "subject": {
                    "reference": "Patient/f40da2df-7505-315a-9acb-55513a02c37b"
                }
            },
            "request": {
                "method": "PUT",
                "url": "Procedure/c0bdf125-6443-3e67-a809-9d173152e7c0"
            }
        },
        {
            "fullUrl": "urn:uuid:47233c4f-fd8a-3037-a812-e3e5735ada9b",
            "resource": {
                "resourceType": "Procedure",
                "meta": {
                    "profile": [
                        "http://hl7.org/fhir/us/core/StructureDefinition/us-core-procedure"
                    ]
                },
                "id": "47233c4f-fd8a-3037-a812-e3e5735ada9b",
                "identifier": [
                    {
                        "system": "urn:ietf:rfc:3986",
                        "value": "urn:uuid:e401f340-7be2-11db-9fe1-0800200c9a66"
                    }
                ],
                "status": "completed",
                "code": {
                    "coding": [
                        {
                            "code": "93543",
                            "display": "Injection for heart x-rays",
                            "system": "urn:oid:2.16.840.1.113883.6.12"
                        }
                    ]
                },
                "performedDateTime": "2010-05-24T10:00:00.000Z",
                "subject": {
                    "reference": "Patient/f40da2df-7505-315a-9acb-55513a02c37b"
                }
            },
            "request": {
                "method": "PUT",
                "url": "Procedure/47233c4f-fd8a-3037-a812-e3e5735ada9b"
            }
        },
        {
            "fullUrl": "urn:uuid:edecd2ad-cb10-355f-b05b-15795d65f098",
            "resource": {
                "resourceType": "Procedure",
                "meta": {
                    "profile": [
                        "http://hl7.org/fhir/us/core/StructureDefinition/us-core-procedure"
                    ]
                },
                "id": "edecd2ad-cb10-355f-b05b-15795d65f098",
                "identifier": [
                    {
                        "system": "urn:ietf:rfc:3986",
                        "value": "urn:uuid:e401f340-7be2-11db-9fe1-0800200c9a66"
                    }
                ],
                "status": "completed",
                "code": {
                    "coding": [
                        {
                            "code": "23852006",
                            "display": "Cardiac monitoring",
                            "system": "http://snomed.info/sct"
                        }
                    ]
                },
                "performedDateTime": "2010-05-25T10:00:00.000Z",
                "subject": {
                    "reference": "Patient/f40da2df-7505-315a-9acb-55513a02c37b"
                }
            },
            "request": {
                "method": "PUT",
                "url": "Procedure/edecd2ad-cb10-355f-b05b-15795d65f098"
            }
        },
        {
            "fullUrl": "urn:uuid:a16185a6-1681-35ec-a90b-10fc1a100088",
            "resource": {
                "resourceType": "Procedure",
                "meta": {
                    "profile": [
                        "http://hl7.org/fhir/us/core/StructureDefinition/us-core-procedure"
                    ]
                },
                "id": "a16185a6-1681-35ec-a90b-10fc1a100088",
                "identifier": [
                    {
                        "system": "urn:ietf:rfc:3986",
                        "value": "urn:uuid:e401f340-7be2-11db-9fe1-0800200c9a66"
                    }
                ],
                "status": "completed",
                "code": {
                    "coding": [
                        {
                            "code": "103699006",
                            "display": "Patient referral to dietitian",
                            "system": "http://snomed.info/sct"
                        }
                    ]
                },
                "performedDateTime": "2010-05-27T10:00:00.000Z",
                "subject": {
                    "reference": "Patient/f40da2df-7505-315a-9acb-55513a02c37b"
                }
            },
            "request": {
                "method": "PUT",
                "url": "Procedure/a16185a6-1681-35ec-a90b-10fc1a100088"
            }
        },
        {
            "fullUrl": "urn:uuid:a5f7e9d2-d7fc-3b49-9642-4864aa7ac82a",
            "resource": {
                "resourceType": "Procedure",
                "meta": {
                    "profile": [
                        "http://hl7.org/fhir/us/core/StructureDefinition/us-core-procedure"
                    ]
                },
                "id": "a5f7e9d2-d7fc-3b49-9642-4864aa7ac82a",
                "identifier": [
                    {
                        "system": "urn:ietf:rfc:3986",
                        "value": "urn:uuid:e401f340-7be2-11db-9fe1-0800200c9a66"
                    }
                ],
                "status": "completed",
                "code": {
                    "coding": [
                        {
                            "code": "401191002",
                            "display": "Diabetic foot examination",
                            "system": "http://snomed.info/sct"
                        }
                    ]
                },
                "performedDateTime": "2010-06-25T10:00:00.000Z",
                "subject": {
                    "reference": "Patient/f40da2df-7505-315a-9acb-55513a02c37b"
                }
            },
            "request": {
                "method": "PUT",
                "url": "Procedure/a5f7e9d2-d7fc-3b49-9642-4864aa7ac82a"
            }
        },
        {
            "fullUrl": "urn:uuid:c1aa38ac-8ff1-30f7-9ac0-204838bbaa9d",
            "resource": {
                "resourceType": "Procedure",
                "meta": {
                    "profile": [
                        "http://hl7.org/fhir/us/core/StructureDefinition/us-core-procedure"
                    ]
                },
                "id": "c1aa38ac-8ff1-30f7-9ac0-204838bbaa9d",
                "identifier": [
                    {
                        "system": "urn:ietf:rfc:3986",
                        "value": "urn:uuid:e401f340-7be2-11db-9fe1-0800200c9a66"
                    }
                ],
                "status": "completed",
                "performedDateTime": "2010-07-30T10:00:00.000Z",
                "subject": {
                    "reference": "Patient/f40da2df-7505-315a-9acb-55513a02c37b"
                }
            },
            "request": {
                "method": "PUT",
                "url": "Procedure/c1aa38ac-8ff1-30f7-9ac0-204838bbaa9d"
            }
        },
        {
            "fullUrl": "urn:uuid:8a4c029a-a7ff-37b6-afbc-df81b5c8273a",
            "resource": {
                "resourceType": "Procedure",
                "meta": {
                    "profile": [
                        "http://hl7.org/fhir/us/core/StructureDefinition/us-core-procedure"
                    ]
                },
                "id": "8a4c029a-a7ff-37b6-afbc-df81b5c8273a",
                "identifier": [
                    {
                        "system": "urn:ietf:rfc:3986",
                        "value": "urn:uuid:e401f340-7be2-11db-9fe1-0800200c9a66"
                    }
                ],
                "status": "completed",
                "code": {
                    "coding": [
                        {
                            "code": "401191002",
                            "display": "Diabetic foot examination",
                            "system": "http://snomed.info/sct"
                        }
                    ]
                },
                "performedDateTime": "2010-10-24T10:00:00.000Z",
                "subject": {
                    "reference": "Patient/f40da2df-7505-315a-9acb-55513a02c37b"
                }
            },
            "request": {
                "method": "PUT",
                "url": "Procedure/8a4c029a-a7ff-37b6-afbc-df81b5c8273a"
            }
        },
        {
            "fullUrl": "urn:uuid:1e12c1ad-1f36-3a90-b5b2-802efcf188b8",
            "resource": {
                "resourceType": "DocumentReference",
                "id": "1e12c1ad-1f36-3a90-b5b2-802efcf188b8",
                "type": {
                    "coding": [
                        {
                            "code": "34133-9",
                            "display": "Summarization of Episode Note",
                            "system": "http://loinc.org"
                        }
                    ]
                },
                "date": "2020-08-27T04:06:08.280Z",
                "status": "current",
                "content": [
                    {
                        "attachment": {
                            "contentType": "text/plain",
                            "data": "",
                            "hash": "daRrBLU+c9XmclqMnBuMXSK5TNg="
                        }
                    }
                ]
            },
            "request": {
                "method": "PUT",
                "url": "DocumentReference/1e12c1ad-1f36-3a90-b5b2-802efcf188b8"
            }
        }
    ]
}