{
    "resourceType": "Bundle",
    "type": "batch",
    "entry": [
        {
            "fullUrl": "urn:uuid:a22caed6-bb52-37f2-913a-5c02e0c45efe",
            "resource": {
                "resourceType": "Composition",
                "id": "a22caed6-bb52-37f2-913a-5c02e0c45efe",
                "identifier": {
                    "use": "official",
                    "value": "2.16.840.1.113883.19.5.99999.1"
                },
                "status": "final",
                "type": {
                    "coding": [
                        {
                            "code": "18842-5",
                            "display": "Discharge summarization note",
                            "system": "http://loinc.org"
                        }
                    ]
                },
                "date": "2014-09-18T00:04:00.000Z",
                "title": "Community Health and Hospitals: Discharge Summary",
                "confidentiality": "N",
                "attester": [
                    {
                        "mode": "legal",
                        "time": "2014-09-18T00:04:00.000Z",
                        "party": {
                            "reference": "Practitioner/6a84aefd-6f50-3666-8ccb-bdad442a4c6a"
                        }
                    }
                ],
                "event": [
                    {
                        "period": {
                            "start": "2014-09-10T00:04:00.000Z"
                        }
                    }
                ],
                "section": [
                    {
                        "title": "ADMISSION DIAGNOSIS",
                        "text": {
                            "status": "generated",
                            "div": "<div xmlns=\"http://www.w3.org/1999/xhtml\">ADMISSION DIAGNOSIS</div>"
                        },
                        "code": {
                            "coding": [
                                {
                                    "code": "42347-5",
                                    "display": "Admission Diagnosis",
                                    "system": "http://loinc.org"
                                }
                            ]
                        },
                        "mode": "snapshot"
                    },
                    {
                        "title": "ALLERGIES, ADVERSE REACTIONS, ALERTS",
                        "text": {
                            "status": "generated",
                            "div": "<div xmlns=\"http://www.w3.org/1999/xhtml\">ALLERGIES, ADVERSE REACTIONS, ALERTS</div>"
                        },
                        "code": {
                            "coding": [
                                {
                                    "code": "48765-2",
                                    "system": "http://loinc.org"
                                }
                            ]
                        },
                        "mode": "snapshot",
                        "entry": [
                            {
                                "reference": "AllergyIntolerance/c4df196e-dc59-373d-864b-d089f3498363",
                                "display": "Penicillin G"
                            },
                            {
                                "reference": "AllergyIntolerance/f8b19ccf-ba1b-3e7b-9b88-24e7546edf59",
                                "display": "Codeine"
                            },
                            {
                                "reference": "AllergyIntolerance/241ece0a-b186-3163-8029-437368494bb7",
                                "display": "Egg"
                            }
                        ]
                    },
                    {
                        "title": "REASON FOR VISIT/CHIEF COMPLAINT",
                        "text": {
                            "status": "generated",
                            "div": "<div xmlns=\"http://www.w3.org/1999/xhtml\">REASON FOR VISIT/CHIEF COMPLAINT</div>"
                        },
                        "code": {
                            "coding": [
                                {
                                    "code": "46239-0",
                                    "display": "REASON FOR VISIT + CHIEF COMPLAINT",
                                    "system": "http://loinc.org"
                                }
                            ]
                        },
                        "mode": "snapshot"
                    },
                    {
                        "title": "DISCHARGE DIAGNOSIS",
                        "text": {
                            "status": "generated",
                            "div": "<div xmlns=\"http://www.w3.org/1999/xhtml\">DISCHARGE DIAGNOSIS</div>"
                        },
                        "code": {
                            "coding": [
                                {
                                    "code": "C-CDAV2-DDN",
                                    "display": "Hospital Discharge Diagnosis",
                                    "system": "http://loinc.org"
                                }
                            ]
                        },
                        "mode": "snapshot"
                    },
                    {
                        "title": "DISCHARGE MEDICATIONS",
                        "text": {
                            "status": "generated",
                            "div": "<div xmlns=\"http://www.w3.org/1999/xhtml\">DISCHARGE MEDICATIONS</div>"
                        },
                        "code": {
                            "coding": [
                                {
                                    "code": "75311-1",
                                    "display": "Discharge Medications",
                                    "system": "http://loinc.org"
                                }
                            ]
                        },
                        "mode": "snapshot"
                    },
                    {
                        "title": "FAMILY HISTORY",
                        "text": {
                            "status": "generated",
                            "div": "<div xmlns=\"http://www.w3.org/1999/xhtml\">FAMILY HISTORY</div>"
                        },
                        "code": {
                            "coding": [
                                {
                                    "code": "10157-6",
                                    "system": "http://loinc.org"
                                }
                            ]
                        },
                        "mode": "snapshot",
                        "entry": [
                            {
                                "reference": "FamilyMemberHistory/83ba37a1-2680-3fd6-bf18-6540f10c9cce"
                            }
                        ]
                    },
                    {
                        "title": "Functional Status",
                        "text": {
                            "status": "generated",
                            "div": "<div xmlns=\"http://www.w3.org/1999/xhtml\">Functional Status</div>"
                        },
                        "code": {
                            "coding": [
                                {
                                    "code": "47420-5",
                                    "system": "http://loinc.org"
                                }
                            ]
                        },
                        "mode": "snapshot",
                        "entry": [
                            {
                                "reference": "Condition/bc35e79d-061c-30ec-a2cb-7249f511e67c"
                            }
                        ]
                    },
                    {
                        "title": "PAST MEDICAL HISTORY",
                        "text": {
                            "status": "generated",
                            "div": "<div xmlns=\"http://www.w3.org/1999/xhtml\">PAST MEDICAL HISTORY</div>"
                        },
                        "code": {
                            "coding": [
                                {
                                    "code": "11348-0",
                                    "display": "HISTORY OF PAST ILLNESS",
                                    "system": "http://loinc.org"
                                }
                            ]
                        },
                        "mode": "snapshot"
                    },
                    {
                        "title": "HISTORY OF PRESENT ILLNESS",
                        "text": {
                            "status": "generated",
                            "div": "<div xmlns=\"http://www.w3.org/1999/xhtml\">HISTORY OF PRESENT ILLNESS</div>"
                        },
                        "code": {
                            "coding": [
                                {
                                    "code": "10164-2",
                                    "display": "HISTORY OF PRESENT ILLNESS",
                                    "system": "http://loinc.org"
                                }
                            ]
                        },
                        "mode": "snapshot"
                    },
                    {
                        "title": "HOSPITAL CONSULTATIONS",
                        "text": {
                            "status": "generated",
                            "div": "<div xmlns=\"http://www.w3.org/1999/xhtml\">HOSPITAL CONSULTATIONS</div>"
                        },
                        "code": {
                            "coding": [
                                {
                                    "code": "18841-7",
                                    "display": "Hospital Consultations Section",
                                    "system": "http://loinc.org"
                                }
                            ]
                        },
                        "mode": "snapshot"
                    },
                    {
                        "title": "HOSPITAL COURSE",
                        "text": {
                            "status": "generated",
                            "div": "<div xmlns=\"http://www.w3.org/1999/xhtml\">HOSPITAL COURSE</div>"
                        },
                        "code": {
                            "coding": [
                                {
                                    "code": "8648-8",
                                    "display": "HOSPITAL COURSE",
                                    "system": "http://loinc.org"
                                }
                            ]
                        },
                        "mode": "snapshot"
                    },
                    {
                        "title": "HOSPITAL DISCHARGE INSTRUCTIONS",
                        "text": {
                            "status": "generated",
                            "div": "<div xmlns=\"http://www.w3.org/1999/xhtml\">HOSPITAL DISCHARGE INSTRUCTIONS</div>"
                        },
                        "code": {
                            "coding": [
                                {
                                    "code": "8653-8",
                                    "display": "HOSPITAL DISCHARGE INSTRUCTIONS",
                                    "system": "http://loinc.org"
                                }
                            ]
                        },
                        "mode": "snapshot"
                    },
                    {
                        "title": "HOSPITAL DISCHARGE PHYSICAL",
                        "text": {
                            "status": "generated",
                            "div": "<div xmlns=\"http://www.w3.org/1999/xhtml\">HOSPITAL DISCHARGE PHYSICAL</div>"
                        },
                        "code": {
                            "coding": [
                                {
                                    "code": "10184-0",
                                    "display": "HOSPITAL DISCHARGE PHYSICAL",
                                    "system": "http://loinc.org"
                                }
                            ]
                        },
                        "mode": "snapshot"
                    },
                    {
                        "title": "HOSPITAL DISCHARGE STUDIES SUMMARY",
                        "text": {
                            "status": "generated",
                            "div": "<div xmlns=\"http://www.w3.org/1999/xhtml\">HOSPITAL DISCHARGE STUDIES SUMMARY</div>"
                        },
                        "code": {
                            "coding": [
                                {
                                    "code": "11493-4",
                                    "display": "HOSPITAL DISCHARGE STUDIES SUMMARY",
                                    "system": "http://loinc.org"
                                }
                            ]
                        },
                        "mode": "snapshot"
                    },
                    {
                        "title": "IMMUNIZATIONS",
                        "text": {
                            "status": "generated",
                            "div": "<div xmlns=\"http://www.w3.org/1999/xhtml\">IMMUNIZATIONS</div>"
                        },
                        "code": {
                            "coding": [
                                {
                                    "code": "11369-6",
                                    "display": "History of immunizations",
                                    "system": "http://loinc.org"
                                }
                            ]
                        },
                        "mode": "snapshot",
                        "entry": [
                            {
                                "reference": "Immunization/f41fd90b-8f4f-3cdb-866f-e23086c25457"
                            },
                            {
                                "reference": "Immunization/2ec8eff9-86a2-3683-865d-c8ff44a2ef6d"
                            }
                        ]
                    },
                    {
                        "title": "PLAN OF CARE",
                        "text": {
                            "status": "generated",
                            "div": "<div xmlns=\"http://www.w3.org/1999/xhtml\">PLAN OF CARE</div>"
                        },
                        "code": {
                            "coding": [
                                {
                                    "code": "18776-5",
                                    "display": "Treatment plan",
                                    "system": "http://loinc.org"
                                }
                            ]
                        },
                        "mode": "snapshot",
                        "entry": [
                            {
                                "reference": "CarePlan/521c2db6-1a99-3d8d-953f-7327411fe366"
                            }
                        ]
                    },
                    {
                        "title": "Problem List",
                        "text": {
                            "status": "generated",
                            "div": "<div xmlns=\"http://www.w3.org/1999/xhtml\">Problem List</div>"
                        },
                        "code": {
                            "coding": [
                                {
                                    "code": "11450-4",
                                    "display": "Problem List",
                                    "system": "http://loinc.org"
                                }
                            ]
                        },
                        "mode": "snapshot",
                        "entry": [
                            {
                                "reference": "Condition/07ff65d6-61ab-3415-bfe7-a5f16d0ba473"
                            },
                            {
                                "reference": "Condition/48765edd-2d0b-304d-8189-9a74daaf5bcc"
                            }
                        ]
                    },
                    {
                        "title": "Procedures",
                        "text": {
                            "status": "generated",
                            "div": "<div xmlns=\"http://www.w3.org/1999/xhtml\">Procedures</div>"
                        },
                        "code": {
                            "coding": [
                                {
                                    "code": "47519-4",
                                    "display": "HISTORY OF PROCEDURES",
                                    "system": "http://loinc.org"
                                }
                            ]
                        },
                        "mode": "snapshot",
                        "entry": [
                            {
                                "reference": "Procedure/361b360d-efea-3a89-9aae-a86f73815e09"
                            }
                        ]
                    },
                    {
                        "title": "REVIEW OF SYSTEMS",
                        "text": {
                            "status": "generated",
                            "div": "<div xmlns=\"http://www.w3.org/1999/xhtml\">REVIEW OF SYSTEMS</div>"
                        },
                        "code": {
                            "coding": [
                                {
                                    "code": "10187-3",
                                    "display": "REVIEW OF SYSTEMS",
                                    "system": "http://loinc.org"
                                }
                            ]
                        },
                        "mode": "snapshot"
                    },
                    {
                        "title": "Social History",
                        "text": {
                            "status": "generated",
                            "div": "<div xmlns=\"http://www.w3.org/1999/xhtml\">Social History</div>"
                        },
                        "code": {
                            "coding": [
                                {
                                    "code": "29762-2",
                                    "display": "Social History",
                                    "system": "http://loinc.org"
                                }
                            ]
                        },
                        "mode": "snapshot",
                        "entry": [
                            {
                                "reference": "Observation/8e080574-6e04-3c99-b0ef-37cd0fcb772c"
                            }
                        ]
                    },
                    {
                        "title": "VITAL SIGNS",
                        "text": {
                            "status": "generated",
                            "div": "<div xmlns=\"http://www.w3.org/1999/xhtml\">VITAL SIGNS</div>"
                        },
                        "code": {
                            "coding": [
                                {
                                    "code": "8716-3",
                                    "display": "VITAL SIGNS",
                                    "system": "http://loinc.org"
                                }
                            ]
                        },
                        "mode": "snapshot",
                        "entry": [
                            {
                                "reference": "Observation/6feada5d-7442-3b1a-904d-6b6a8f81ca3b",
                                "display": "Height"
                            },
                            {
                                "reference": "Observation/2e2f0334-9807-343b-90dd-1bff8f9ea10c",
                                "display": "Patient Body Weight - Measured"
                            },
                            {
                                "reference": "Observation/8c139d1f-61cd-386d-82ed-d192b8a48130",
                                "display": "Intravascular Systolic"
                            },
                            {
                                "reference": "Observation/86ad7c81-72c0-3eef-a603-a983dcef3d2e",
                                "display": "Intravascular Diastolic"
                            }
                        ]
                    }
                ],
                "subject": {
                    "reference": "Patient/f40da2df-7505-315a-9acb-55513a02c37b"
                },
                "encounter": {
                    "reference": "Encounter/4a5565b3-540d-37c6-95ff-070eb8f7bc11"
                },
                "custodian": {
                    "reference": "Organization/75f08805-e9c8-3f5a-93e3-2abb1721118c"
                }
            },
            "request": {
                "method": "PUT",
                "url": "Composition/a22caed6-bb52-37f2-913a-5c02e0c45efe"
            }
        },
        {
            "fullUrl": "urn:uuid:6a84aefd-6f50-3666-8ccb-bdad442a4c6a",
            "resource": {
                "resourceType": "Practitioner",
                "meta": {
                    "profile": [
                        "http://hl7.org/fhir/us/core/StructureDefinition/us-core-practitioner"
                    ]
                },
                "id": "6a84aefd-6f50-3666-8ccb-bdad442a4c6a"
            },
            "request": {
                "method": "PUT",
                "url": "Practitioner/6a84aefd-6f50-3666-8ccb-bdad442a4c6a"
            }
        },
        {
            "fullUrl": "urn:uuid:4a5565b3-540d-37c6-95ff-070eb8f7bc11",
            "resource": {
                "resourceType": "Encounter",
                "id": "4a5565b3-540d-37c6-95ff-070eb8f7bc11",
                "status": "unknown",
                "identifier": [
                    {
                        "system": "urn:oid:2.16.840.1.113883.19",
                        "value": "9937012"
                    }
                ],
                "period": {
                    "start": "2014-09-10T00:04:00.000Z",
                    "end": "2014-09-17T00:04:00.000Z"
                },
                "hospitalization": {
                    "dischargeDisposition": {
                        "coding": [
                            {
                                "code": "01",
                                "display": "Routine Discharge",
                                "system": "urn:oid:2.16.840.1.113883.12.112"
                            }
                        ]
                    }
                },
                "location": [
                    {
                        "location": {
                            "reference": "Location/2c3b30b5-39e7-3c88-b345-eed888cc36f0"
                        }
                    }
                ]
            },
            "request": {
                "method": "PUT",
                "url": "Encounter/4a5565b3-540d-37c6-95ff-070eb8f7bc11"
            }
        },
        {
            "fullUrl": "urn:uuid:2c3b30b5-39e7-3c88-b345-eed888cc36f0",
            "resource": {
                "resourceType": "Location",
                "id": "2c3b30b5-39e7-3c88-b345-eed888cc36f0"
            },
            "request": {
                "method": "PUT",
                "url": "Location/2c3b30b5-39e7-3c88-b345-eed888cc36f0"
            }
        },
        {
            "fullUrl": "urn:uuid:75f08805-e9c8-3f5a-93e3-2abb1721118c",
            "resource": {
                "resourceType": "Organization",
                "id": "75f08805-e9c8-3f5a-93e3-2abb1721118c",
                "identifier": [
                    {
                        "system": "http://hl7.org/fhir/sid/us-npi",
                        "value": "99999999"
                    }
                ],
                "name": "Community Health and Hospitals",
                "address": [
                    {
                        "use": "work",
                        "line": [
                            "1001 Village Avenue"
                        ],
                        "city": "Portland",
                        "state": "OR",
                        "country": "US",
                        "postalCode": "99123"
                    }
                ],
                "telecom": [
                    {
                        "system": "phone",
                        "value": "555-555-1002",
                        "use": "work"
                    }
                ]
            },
            "request": {
                "method": "PUT",
                "url": "Organization/75f08805-e9c8-3f5a-93e3-2abb1721118c"
            }
        },
        {
            "fullUrl": "urn:uuid:f40da2df-7505-315a-9acb-55513a02c37b",
            "resource": {
                "resourceType": "Patient",
                "meta": {
                    "profile": [
                        "http://hl7.org/fhir/us/core/StructureDefinition/us-core-patient"
                    ]
                },
                "id": "f40da2df-7505-315a-9acb-55513a02c37b",
                "identifier": [
                    {
                        "system": "urn:oid:2.16.840.1.113883.19.5.99999.2",
                        "value": "998991"
                    },
                    {
                        "system": "http://hl7.org/fhir/sid/us-ssn",
                        "value": "111-00-2330"
                    }
                ],
                "name": [
                    {
                        "use": "usual",
                        "family": "Jones",
                        "given": [
                            "Isabella"
                        ]
                    }
                ],
                "birthDate": "2005-05-01",
                "gender": "female",
                "extension": [
                    {
                        "url": "http://hl7.org/fhir/us/core/StructureDefinition/us-core-race",
                        "extension": [
                            {
                                "url": "ombCategory",
                                "valueCoding": {
                                    "code": "2028-9",
                                    "display": "Asian",
                                    "system": "urn:oid:2.16.840.1.113883.6.238"
                                }
                            },
                            {
                                "url": "text",
                                "valueString": "Asian"
                            }
                        ]
                    },
                    {
                        "url": "http://hl7.org/fhir/us/core/StructureDefinition/us-core-ethnicity",
                        "extension": [
                            {
                                "url": "ombCategory",
                                "valueCoding": {
                                    "code": "2186-5",
                                    "display": "Not Hispanic or Latino",
                                    "system": "urn:oid:2.16.840.1.113883.6.238"
                                }
                            },
                            {
                                "url": "text",
                                "valueString": "Not Hispanic or Latino"
                            }
                        ]
                    }
                ],
                "address": [
                    {
                        "use": "home",
                        "line": [
                            "1357 Amber Drive"
                        ],
                        "city": "Beaverton",
                        "state": "OR",
                        "country": "US",
                        "postalCode": "97867"
                    }
                ],
                "telecom": [
                    {
                        "system": "phone",
                        "value": "(816)276-6909",
                        "use": "home"
                    }
                ],
                "communication": [
                    {
                        "language": {
                            "coding": [
                                {
                                    "system": "urn:ietf:bcp:47",
                                    "code": "eng"
                                }
                            ]
                        },
                        "preferred": true
                    }
                ]
            },
            "request": {
                "method": "PUT",
                "url": "Patient/f40da2df-7505-315a-9acb-55513a02c37b"
            }
        },
        {
            "fullUrl": "urn:uuid:404aabde-037c-3ea6-85cb-d4ceefa1d2c8",
            "resource": {
                "resourceType": "RelatedPerson",
                "id": "404aabde-037c-3ea6-85cb-d4ceefa1d2c8",
                "relationship": [
                    {
                        "coding": [
                            {
                                "code": "GRPRN",
                                "display": "Grandparent",
                                "system": "urn:oid:2.16.840.1.113883.5.111"
                            }
                        ]
                    }
                ],
                "name": [
                    {
                        "family": "Jones",
                        "given": [
                            "Ralph"
                        ]
                    }
                ],
                "telecom": [
                    {
                        "system": "phone",
                        "value": "(816)276-6909",
                        "use": "home"
                    }
                ],
                "address": [
                    {
                        "use": "home",
                        "line": [
                            "1357 Amber Drive"
                        ],
                        "city": "Beaverton",
                        "state": "OR",
                        "country": "US",
                        "postalCode": "97867"
                    }
                ],
                "patient": {
                    "reference": "Patient/f40da2df-7505-315a-9acb-55513a02c37b"
                }
            },
            "request": {
                "method": "PUT",
                "url": "RelatedPerson/404aabde-037c-3ea6-85cb-d4ceefa1d2c8"
            }
        },
        {
            "fullUrl": "urn:uuid:273decf3-301e-3ab6-a8a1-78bb6d42cda4",
            "resource": {
                "resourceType": "AllergyIntolerance",
                "id": "273decf3-301e-3ab6-a8a1-78bb6d42cda4",
                "identifier": [
                    {
                        "system": "urn:ietf:rfc:3986",
                        "value": "urn:uuid:4adc1020-7b14-11db-9fe1-0800200c9a66"
                    }
                ],
                "clinicalStatus": {
                    "coding": [
                        {
                            "system": "http://terminology.hl7.org/CodeSystem/allergyintolerance-clinical",
                            "code": "active"
                        }
                    ]
                },
                "reaction": [
                    {
                        "substance": {
                            "coding": [
                                {
                                    "code": "7980",
                                    "display": "Penicillin G",
                                    "system": "http://www.nlm.nih.gov/research/umls/rxnorm"
                                }
                            ]
                        },
                        "manifestation": [
                            {
                                "coding": [
                                    {
                                        "code": "73879007",
                                        "display": "Nausea",
                                        "system": "http://snomed.info/sct"
                                    }
                                ]
                            }
                        ],
                        "onset": "2007-05-01"
                    }
                ],
                "onsetDateTime": "2007-05-01",
                "patient": {
                    "reference": "Patient/f40da2df-7505-315a-9acb-55513a02c37b"
                }
            },
            "request": {
                "method": "PUT",
                "url": "AllergyIntolerance/273decf3-301e-3ab6-a8a1-78bb6d42cda4"
            }
        },
        {
            "fullUrl": "urn:uuid:027b4d52-3f41-34c4-bd59-99be78f49c16",
            "resource": {
                "resourceType": "AllergyIntolerance",
                "id": "027b4d52-3f41-34c4-bd59-99be78f49c16",
                "identifier": [
                    {
                        "system": "urn:ietf:rfc:3986",
                        "value": "urn:uuid:4adc1020-7b14-11db-9fe1-0800200c9a66"
                    }
                ],
                "clinicalStatus": {
                    "coding": [
                        {
                            "system": "http://terminology.hl7.org/CodeSystem/allergyintolerance-clinical",
                            "code": "active"
                        }
                    ]
                },
                "reaction": [
                    {
                        "substance": {
                            "coding": [
                                {
                                    "code": "2670",
                                    "display": "Codeine",
                                    "system": "http://www.nlm.nih.gov/research/umls/rxnorm"
                                }
                            ]
                        },
                        "manifestation": [
                            {
                                "coding": [
                                    {
                                        "code": "56018004",
                                        "display": "Wheezing",
                                        "system": "http://snomed.info/sct"
                                    }
                                ]
                            }
                        ],
                        "onset": "2006-05-01"
                    }
                ],
                "onsetDateTime": "2006-05-01",
                "patient": {
                    "reference": "Patient/f40da2df-7505-315a-9acb-55513a02c37b"
                }
            },
            "request": {
                "method": "PUT",
                "url": "AllergyIntolerance/027b4d52-3f41-34c4-bd59-99be78f49c16"
            }
        },
        {
            "fullUrl": "urn:uuid:335aa5cd-67f0-394b-a5cf-13632a712fe4",
            "resource": {
                "resourceType": "AllergyIntolerance",
                "id": "335aa5cd-67f0-394b-a5cf-13632a712fe4",
                "identifier": [
                    {
                        "system": "urn:ietf:rfc:3986",
                        "value": "urn:uuid:0fffb34f-c1e0-47c2-92af-c414a3ff21ec"
                    }
                ],
                "clinicalStatus": {
                    "coding": [
                        {
                            "system": "http://terminology.hl7.org/CodeSystem/allergyintolerance-clinical",
                            "code": "active"
                        }
                    ]
                },
                "reaction": [
                    {
                        "substance": {
                            "coding": [
                                {
                                    "code": "291P45F896",
                                    "display": "Egg",
                                    "system": "urn:oid:2.16.840.1.113883.4.9"
                                }
                            ]
                        },
                        "manifestation": [
                            {
                                "coding": [
                                    {
                                        "code": "247472004",
                                        "display": "Hives",
                                        "system": "http://snomed.info/sct"
                                    }
                                ]
                            }
                        ],
                        "onset": "1998"
                    }
                ],
                "onsetDateTime": "1998",
                "patient": {
                    "reference": "Patient/f40da2df-7505-315a-9acb-55513a02c37b"
                }
            },
            "request": {
                "method": "PUT",
                "url": "AllergyIntolerance/335aa5cd-67f0-394b-a5cf-13632a712fe4"
            }
        },
        {
            "fullUrl": "urn:uuid:b4824f45-9279-3146-8ab2-cac6daa35904",
            "resource": {
                "resourceType": "Condition",
                "id": "b4824f45-9279-3146-8ab2-cac6daa35904",
                "identifier": [
                    {
                        "system": "urn:oid:1.3.6.1.4.1.22812.4.111.0.4.1.2.1",
                        "value": "10241104348"
                    }
                ],
                "code": {
                    "coding": [
                        {
                            "code": "35064005",
                            "display": "Dark stools",
                            "system": "http://snomed.info/sct"
                        }
                    ]
                },
                "onsetDateTime": "2014-09-06",
                "subject": {
                    "reference": "Patient/f40da2df-7505-315a-9acb-55513a02c37b"
                }
            },
            "request": {
                "method": "PUT",
                "url": "Condition/b4824f45-9279-3146-8ab2-cac6daa35904"
            }
        },
        {
            "fullUrl": "urn:uuid:65d00678-3735-343d-bed9-6d61a23ba3c0",
            "resource": {
                "resourceType": "Condition",
                "id": "65d00678-3735-343d-bed9-6d61a23ba3c0",
                "identifier": [
                    {
                        "system": "urn:oid:1.3.6.1.4.1.22812.4.111.0.4.1.2.1",
                        "value": "10241104348"
                    }
                ],
                "code": {
                    "coding": [
                        {
                            "code": "74400008",
                            "display": "Appendicitis",
                            "system": "http://snomed.info/sct"
                        }
                    ]
                },
                "onsetDateTime": "2014-09-08",
                "subject": {
                    "reference": "Patient/f40da2df-7505-315a-9acb-55513a02c37b"
                }
            },
            "request": {
                "method": "PUT",
                "url": "Condition/65d00678-3735-343d-bed9-6d61a23ba3c0"
            }
        },
        {
            "fullUrl": "urn:uuid:41c74a1e-60fb-32a5-aa38-8f9c3abfccb2",
            "resource": {
                "resourceType": "Observation",
                "meta": {
                    "profile": [
                        "http://hl7.org/fhir/us/core/StructureDefinition/us-core-observationresults"
                    ]
                },
                "id": "41c74a1e-60fb-32a5-aa38-8f9c3abfccb2",
                "identifier": [
                    {
                        "system": "urn:ietf:rfc:3986",
                        "value": "urn:uuid:68eac164-c13e-498c-abe3-e87735ef5f1d"
                    }
                ],
                "category": [
                    {
                        "coding": [
                            {
                                "system": "http://terminology.hl7.org/CodeSystem/observation-category",
                                "code": "social-history"
                            }
                        ]
                    }
                ],
                "status": "final",
                "code": {
                    "coding": [
                        {
                            "code": "72166-2",
                            "system": "http://loinc.org"
                        }
                    ]
                },
                "effectiveDateTime": "2014-09-10T17:54:00.000Z",
                "valueCodeableConcept": {
                    "coding": [
                        {
                            "code": "266919005",
                            "display": "Never Smoker",
                            "system": "http://snomed.info/sct"
                        }
                    ]
                },
                "subject": {
                    "reference": "Patient/f40da2df-7505-315a-9acb-55513a02c37b"
                }
            },
            "request": {
                "method": "PUT",
                "url": "Observation/41c74a1e-60fb-32a5-aa38-8f9c3abfccb2"
            }
        },
        {
            "fullUrl": "urn:uuid:cfd9f59e-0c57-3062-911b-2dfe0d1f73f4",
            "resource": {
                "resourceType": "Observation",
                "meta": {
                    "profile": [
                        "http://hl7.org/fhir/us/core/StructureDefinition/us-core-observationresults"
                    ]
                },
                "id": "cfd9f59e-0c57-3062-911b-2dfe0d1f73f4",
                "identifier": [
                    {
                        "system": "urn:ietf:rfc:3986",
                        "value": "urn:uuid:c6f88321-67ad-11db-bd13-0800200c9a66"
                    }
                ],
                "category": [
                    {
                        "coding": [
                            {
                                "system": "http://terminology.hl7.org/CodeSystem/observation-category",
                                "code": "vital-signs"
                            }
                        ]
                    }
                ],
                "status": "final",
                "code": {
                    "coding": [
                        {
                            "code": "8302-2",
                            "display": "Height",
                            "system": "http://loinc.org"
                        }
                    ]
                },
                "effectiveDateTime": "2014-09-16T13:45:00.000Z",
                "valueQuantity": {
                    "value": 177,
                    "unit": "cm"
                },
                "interpretation": [
                    {
                        "coding": [
                            {
                                "code": "N",
                                "system": "http://terminology.hl7.org/CodeSystem/v3-ObservationInterpretation"
                            }
                        ]
                    }
                ],
                "subject": {
                    "reference": "Patient/f40da2df-7505-315a-9acb-55513a02c37b"
                }
            },
            "request": {
                "method": "PUT",
                "url": "Observation/cfd9f59e-0c57-3062-911b-2dfe0d1f73f4"
            }
        },
        {
            "fullUrl": "urn:uuid:42bb0a81-f679-3573-9949-a7e65c93ca2a",
            "resource": {
                "resourceType": "Observation",
                "meta": {
                    "profile": [
                        "http://hl7.org/fhir/us/core/StructureDefinition/us-core-observationresults"
                    ]
                },
                "id": "42bb0a81-f679-3573-9949-a7e65c93ca2a",
                "identifier": [
                    {
                        "system": "urn:ietf:rfc:3986",
                        "value": "urn:uuid:c6f88321-67ad-11db-bd13-0800200c9a66"
                    }
                ],
                "category": [
                    {
                        "coding": [
                            {
                                "system": "http://terminology.hl7.org/CodeSystem/observation-category",
                                "code": "vital-signs"
                            }
                        ]
                    }
                ],
                "status": "final",
                "code": {
                    "coding": [
                        {
                            "code": "3141-9",
                            "display": "Patient Body Weight - Measured",
                            "system": "http://loinc.org"
                        }
                    ]
                },
                "effectiveDateTime": "2014-09-16T13:45:00.000Z",
                "valueQuantity": {
                    "value": 86,
                    "unit": "kg"
                },
                "interpretation": [
                    {
                        "coding": [
                            {
                                "code": "N",
                                "system": "http://terminology.hl7.org/CodeSystem/v3-ObservationInterpretation"
                            }
                        ]
                    }
                ],
                "subject": {
                    "reference": "Patient/f40da2df-7505-315a-9acb-55513a02c37b"
                }
            },
            "request": {
                "method": "PUT",
                "url": "Observation/42bb0a81-f679-3573-9949-a7e65c93ca2a"
            }
        },
        {
            "fullUrl": "urn:uuid:d6da6e14-0a1f-3641-99e0-b3635fb46e25",
            "resource": {
                "resourceType": "Observation",
                "meta": {
                    "profile": [
                        "http://hl7.org/fhir/us/core/StructureDefinition/us-core-observationresults"
                    ]
                },
                "id": "d6da6e14-0a1f-3641-99e0-b3635fb46e25",
                "identifier": [
                    {
                        "system": "urn:ietf:rfc:3986",
                        "value": "urn:uuid:c6f88321-67ad-11db-bd13-0800200c9a66"
                    }
                ],
                "category": [
                    {
                        "coding": [
                            {
                                "system": "http://terminology.hl7.org/CodeSystem/observation-category",
                                "code": "vital-signs"
                            }
                        ]
                    }
                ],
                "status": "final",
                "code": {
                    "coding": [
                        {
                            "code": "8480-6",
                            "display": "Intravascular Systolic",
                            "system": "http://loinc.org"
                        }
                    ]
                },
                "effectiveDateTime": "2014-09-16T13:45:00.000Z",
                "valueQuantity": {
                    "value": 80,
                    "unit": "mm[Hg]"
                },
                "interpretation": [
                    {
                        "coding": [
                            {
                                "code": "L",
                                "system": "http://terminology.hl7.org/CodeSystem/v3-ObservationInterpretation"
                            }
                        ]
                    }
                ],
                "subject": {
                    "reference": "Patient/f40da2df-7505-315a-9acb-55513a02c37b"
                }
            },
            "request": {
                "method": "PUT",
                "url": "Observation/d6da6e14-0a1f-3641-99e0-b3635fb46e25"
            }
        },
        {
            "fullUrl": "urn:uuid:0cfb5b99-7b8b-32ee-884a-797d6dafe5d0",
            "resource": {
                "resourceType": "Observation",
                "meta": {
                    "profile": [
                        "http://hl7.org/fhir/us/core/StructureDefinition/us-core-observationresults"
                    ]
                },
                "id": "0cfb5b99-7b8b-32ee-884a-797d6dafe5d0",
                "identifier": [
                    {
                        "system": "urn:ietf:rfc:3986",
                        "value": "urn:uuid:c6f88321-67ad-11db-bd13-0800200c9a66"
                    }
                ],
                "category": [
                    {
                        "coding": [
                            {
                                "system": "http://terminology.hl7.org/CodeSystem/observation-category",
                                "code": "vital-signs"
                            }
                        ]
                    }
                ],
                "status": "final",
                "code": {
                    "coding": [
                        {
                            "code": "8462-4",
                            "display": "Intravascular Diastolic",
                            "system": "http://loinc.org"
                        }
                    ]
                },
                "effectiveDateTime": "2014-09-16T13:45:00.000Z",
                "valueQuantity": {
                    "value": 55,
                    "unit": "mm[Hg]"
                },
                "interpretation": [
                    {
                        "coding": [
                            {
                                "code": "L",
                                "system": "http://terminology.hl7.org/CodeSystem/v3-ObservationInterpretation"
                            }
                        ]
                    }
                ],
                "subject": {
                    "reference": "Patient/f40da2df-7505-315a-9acb-55513a02c37b"
                }
            },
            "request": {
                "method": "PUT",
                "url": "Observation/0cfb5b99-7b8b-32ee-884a-797d6dafe5d0"
            }
        },
        {
            "fullUrl": "urn:uuid:b543a209-b7f6-30e7-8af7-e68255f4cb41",
            "resource": {
                "resourceType": "Procedure",
                "meta": {
                    "profile": [
                        "http://hl7.org/fhir/us/core/StructureDefinition/us-core-procedure"
                    ]
                },
                "id": "b543a209-b7f6-30e7-8af7-e68255f4cb41",
                "identifier": [
                    {
                        "system": "urn:ietf:rfc:3986",
                        "value": "urn:uuid:64af26d5-88ef-4169-ba16-c6ef16a1824f"
                    }
                ],
                "status": "completed",
                "bodySite": [
                    {
                        "coding": [
                            {
                                "code": "181255000",
                                "display": "Entire Appendix",
                                "system": "http://snomed.info/sct"
                            }
                        ]
                    }
                ],
                "subject": {
                    "reference": "Patient/f40da2df-7505-315a-9acb-55513a02c37b"
                }
            },
            "request": {
                "method": "PUT",
                "url": "Procedure/b543a209-b7f6-30e7-8af7-e68255f4cb41"
            }
        },
        {
            "fullUrl": "urn:uuid:f41fd90b-8f4f-3cdb-866f-e23086c25457",
            "resource": {
                "resourceType": "Immunization",
                "id": "f41fd90b-8f4f-3cdb-866f-e23086c25457",
                "identifier": [
                    {
                        "system": "urn:ietf:rfc:3986",
                        "value": "urn:uuid:e6f1ba43-c0ed-4b9b-9f12-f435d8ad8f92"
                    }
                ],
                "occurrenceDateTime": "2014-09-01",
                "vaccineCode": {
                    "coding": [
                        {
                            "code": "141",
                            "display": "Influenza, seasonal, injectable",
                            "system": "urn:oid:2.16.840.1.113883.12.292"
                        }
                    ]
                },
                "status": "completed",
                "route": {
                    "coding": [
                        {
                            "code": "C28161",
                            "display": "Intramuscular injection",
                            "system": "urn:oid:2.16.840.1.113883.3.26.1.1"
                        }
                    ]
                },
                "patient": {
                    "reference": "Patient/f40da2df-7505-315a-9acb-55513a02c37b"
                }
            },
            "request": {
                "method": "PUT",
                "url": "Immunization/f41fd90b-8f4f-3cdb-866f-e23086c25457"
            }
        },
        {
            "fullUrl": "urn:uuid:2ec8eff9-86a2-3683-865d-c8ff44a2ef6d",
            "resource": {
                "resourceType": "Immunization",
                "id": "2ec8eff9-86a2-3683-865d-c8ff44a2ef6d",
                "identifier": [
                    {
                        "system": "urn:ietf:rfc:3986",
                        "value": "urn:uuid:e6f1ba43-c0ed-4b9b-9f12-f435d8ad8f92"
                    }
                ],
                "statusReason": {
                    "coding": [
                        {
                            "code": "PATOBJ",
                            "display": "Patient Objection",
                            "system": "urn:oid:2.16.840.1.113883.5.8"
                        }
                    ]
                },
                "occurrenceDateTime": "2014-09-01",
                "vaccineCode": {
                    "coding": [
                        {
                            "code": "103",
                            "display": "Tetanus and diphtheria toxoids - preservative free",
                            "system": "urn:oid:2.16.840.1.113883.12.292"
                        }
                    ]
                },
                "status": "cancelled",
                "route": {
                    "coding": [
                        {
                            "code": "C28161",
                            "display": "Intramuscular injection",
                            "system": "urn:oid:2.16.840.1.113883.3.26.1.1"
                        }
                    ]
                },
                "patient": {
                    "reference": "Patient/f40da2df-7505-315a-9acb-55513a02c37b"
                }
            },
            "request": {
                "method": "PUT",
                "url": "Immunization/2ec8eff9-86a2-3683-865d-c8ff44a2ef6d"
            }
        },
        {
            "fullUrl": "urn:uuid:55459cda-2223-34d5-acb3-99bccc405556",
            "resource": {
                "resourceType": "FamilyMemberHistory",
                "id": "55459cda-2223-34d5-acb3-99bccc405556",
                "identifier": [
                    {
                        "system": "urn:ietf:rfc:3986",
                        "value": "urn:uuid:eb8da8aa-fc07-46a6-95b6-05f275cd8028"
                    }
                ],
                "status": "completed",
                "relationship": {
                    "coding": [
                        {
                            "code": "9947008",
                            "display": "Biological father",
                            "system": "http://snomed.info/sct"
                        }
                    ]
                },
                "sex": {
                    "coding": [
                        {
                            "code": "M",
                            "display": "Male",
                            "system": "urn:oid:2.16.840.1.113883.5.1"
                        }
                    ]
                },
                "bornString": "1910",
                "condition": [
                    {
                        "code": {
                            "coding": [
                                {
                                    "code": "22298006",
                                    "display": "Myocardial infarction",
                                    "system": "http://snomed.info/sct"
                                }
                            ]
                        },
                        "contributedToDeath": true,
                        "onsetAge": {
                            "value": 57,
                            "system": "http://unitsofmeasure.org",
                            "code": "a"
                        }
                    },
                    {
                        "code": {
                            "coding": [
                                {
                                    "code": "46635009",
                                    "display": "Diabetes mellitus type 1",
                                    "system": "http://snomed.info/sct"
                                }
                            ]
                        },
                        "onsetAge": {
                            "value": 6,
                            "system": "http://unitsofmeasure.org",
                            "code": "a"
                        }
                    }
                ],
                "patient": {
                    "reference": "Patient/f40da2df-7505-315a-9acb-55513a02c37b"
                }
            },
            "request": {
                "method": "PUT",
                "url": "FamilyMemberHistory/55459cda-2223-34d5-acb3-99bccc405556"
            }
        },
        {
            "fullUrl": "urn:uuid:408c4156-b6f3-3fe4-9738-f4d1a83b2de3",
            "resource": {
                "resourceType": "DocumentReference",
                "id": "408c4156-b6f3-3fe4-9738-f4d1a83b2de3",
                "type": {
                    "coding": [
                        {
                            "code": "18842-5",
                            "display": "Discharge summarization note",
                            "system": "http://loinc.org"
                        }
                    ]
                },
                "date": "2020-08-31T07:43:35.306Z",
                "status": "current",
                "content": [
                    {
                        "attachment": {
                            "contentType": "text/plain",
                            "data": "",
                            "hash": "AHLIuIjymRMjoTuUnvLpjJvuA/c="
                        }
                    }
                ]
            },
            "request": {
                "method": "PUT",
                "url": "DocumentReference/408c4156-b6f3-3fe4-9738-f4d1a83b2de3"
            }
        }
    ]
}