{
    "resourceType": "Bundle",
    "type": "batch",
    "timestamp": "2019-05-04T18:12:05",
    "identifier": {
        "value": "1270326314"
    },
    "id": "a04e38af-61c9-8af1-875d-ea2b4c1ffac6",
    "entry": [
        {
            "fullUrl": "urn:uuid:aa9b0327-0d9f-945a-888c-07658da974df",
            "resource": {
                "resourceType": "MessageHeader",
                "id": "aa9b0327-0d9f-945a-888c-07658da974df",
                "source": {
                    "name": "REDOX",
                    "_endpoint": {
                        "extension": [
                            {
                                "url": "http://hl7.org/fhir/StructureDefinition/data-absent-reason",
                                "valueCode": "unknown"
                            }
                        ]
                    }
                },
                "meta": {
                    "tag": [
                        {
                            "code": "T",
                            "system": "http://terminology.hl7.org/CodeSystem/v2-0103"
                        }
                    ]
                },
                "eventCoding": {
                    "code": "A04",
                    "system": "http://terminology.hl7.org/CodeSystem/v2-0003",
                    "display": "ADT^A04"
                },
                "sender": {
                    "reference": "Organization/6fbc0a9a-11e5-aa44-b0d7-79439e65ae84"
                }
            },
            "request": {
                "method": "PUT",
                "url": "MessageHeader/aa9b0327-0d9f-945a-888c-07658da974df"
            }
        },
        {
            "fullUrl": "urn:uuid:312fba25-b9c6-151e-8c0c-45a36f66ed03",
            "resource": {
                "resourceType": "Provenance",
                "id": "312fba25-b9c6-151e-8c0c-45a36f66ed03",
                "text": {
                    "status": "generated",
                    "div": "<div xmlns=\"http://www.w3.org/1999/xhtml\"><p><span>Resource bundle generated on 2021-10-29T11:31:38.533Z using Microsoft FHIR Converter.</span><span>Template Version: TEMPLATE_VERSION_PLACEHOLDER.</span><span>Template URL: https://github.com/microsoft/FHIR-Converter/releases/download/vTEMPLATE_VERSION_PLACEHOLDER/Hl7v2DefaultTemplates.tar.gz.</span><span>Root template: ADT_A04.</span></p></div>"
                },
                "occurredDateTime": "2019-05-04T18:12:05",
                "recorded": "2019-05-04T18:12:05",
                "agent": [
                    {
                        "type": {
                            "coding": [
                                {
                                    "code": "author",
                                    "system": "http://terminology.hl7.org/CodeSystem/provenance-participant-type"
                                }
                            ]
                        },
                        "who": {
                            "reference": "Organization/6fbc0a9a-11e5-aa44-b0d7-79439e65ae84"
                        }
                    }
                ],
                "activity": {
                    "coding": [
                        {
                            "display": "ADT^A04^"
                        }
                    ]
                },
                "target": [
                    {
                        "reference": "Bundle/a04e38af-61c9-8af1-875d-ea2b4c1ffac6"
                    }
                ]
            },
            "request": {
                "method": "PUT",
                "url": "Provenance/312fba25-b9c6-151e-8c0c-45a36f66ed03"
            }
        },
        {
            "fullUrl": "urn:uuid:6fbc0a9a-11e5-aa44-b0d7-79439e65ae84",
            "resource": {
                "resourceType": "Organization",
                "id": "6fbc0a9a-11e5-aa44-b0d7-79439e65ae84",
                "identifier": [
                    {
                        "value": "RDX",
                        "system": "http://example.com/v2-to-fhir-converter/assigning-authority-local-system-RDX"
                    }
                ]
            },
            "request": {
                "method": "PUT",
                "url": "Organization/6fbc0a9a-11e5-aa44-b0d7-79439e65ae84"
            }
        },
        {
            "fullUrl": "urn:uuid:f7a9494a-3fac-e0e1-78d8-d7c20410ca33",
            "resource": {
                "resourceType": "Patient",
                "id": "f7a9494a-3fac-e0e1-78d8-d7c20410ca33",
                "identifier": [
                    {
                        "value": "0000000001",
                        "system": "http://example.com/v2-to-fhir-converter/assigning-authority-local-system-MR"
                    },
                    {
                        "value": "e167267c-16c9-4fe3-96ae-9cff5703e90a",
                        "system": "http://example.com/v2-to-fhir-converter/assigning-authority-local-system-EHRID"
                    },
                    {
                        "value": "a1d4ee8aba494ca",
                        "system": "http://example.com/v2-to-fhir-converter/assigning-authority-local-system-NIST"
                    },
                    {
                        "value": "101-01-0001",
                        "type": {
                            "coding": [
                                {
                                    "code": "SB",
                                    "system": "http://terminology.hl7.org/CodeSystem/v2-0203"
                                }
                            ]
                        },
                        "system": "http://hl7.org/fhir/sid/us-ssn"
                    }
                ],
                "name": [
                    {
                        "family": "Bixby",
                        "given": [
                            "Timothy",
                            "Paul"
                        ]
                    }
                ],
                "birthDate": "2008-01-06",
                "gender": "male",
                "address": [
                    {
                        "line": [
                            "4762 Hickory Street"
                        ],
                        "city": "Monroe",
                        "state": "WI",
                        "postalCode": "53566",
                        "country": "US"
                    },
                    {
                        "district": "Green"
                    }
                ],
                "telecom": [
                    {
                        "value": "8088675301",
                        "use": "home"
                    }
                ],
                "maritalStatus": {
                    "coding": [
                        {
                            "code": "Married",
                            "display": "Married"
                        }
                    ]
                },
                "generalPractitioner": [
                    {
                        "reference": "Practitioner/78421d2f-a405-2d71-ff9f-132539dbcdb5"
                    }
                ],
                "contact": [
                    {
                        "name": {
                            "family": "Bixby",
                            "given": [
                                "Barbara"
                            ]
                        },
                        "address": {
                            "line": [
                                "4762 Hickory Street"
                            ],
                            "city": "Monroe",
                            "state": "WI",
                            "postalCode": "53566",
                            "country": "US"
                        },
                        "telecom": [
                            {
                                "value": "+19189368865",
                                "use": "home"
                            }
                        ],
                        "relationship": [
                            {
                                "coding": [
                                    {
                                        "code": "Emergency Contact",
                                        "display": "Emergency Contact"
                                    }
                                ]
                            }
                        ]
                    }
                ]
            },
            "request": {
                "method": "PUT",
                "url": "Patient/f7a9494a-3fac-e0e1-78d8-d7c20410ca33"
            }
        },
        {
            "fullUrl": "urn:uuid:256cf56f-8ec4-5af5-cf3f-4f9a833482be",
            "resource": {
                "resourceType": "Account",
                "id": "256cf56f-8ec4-5af5-cf3f-4f9a833482be",
                "identifier": [
                    {
                        "value": "1234"
                    }
                ],
                "status": "active",
                "subject": [
                    {
                        "reference": "Patient/f7a9494a-3fac-e0e1-78d8-d7c20410ca33"
                    }
                ],
                "guarantor": [
                    {
                        "party": {
                            "reference": "RelatedPerson/79ceda41-8fc5-5e07-6f9f-0d5e4e716430"
                        }
                    }
                ]
            },
            "request": {
                "method": "PUT",
                "url": "Account/256cf56f-8ec4-5af5-cf3f-4f9a833482be"
            }
        },
        {
            "fullUrl": "urn:uuid:79ceda41-8fc5-5e07-6f9f-0d5e4e716430",
            "resource": {
                "resourceType": "RelatedPerson",
                "id": "79ceda41-8fc5-5e07-6f9f-0d5e4e716430",
                "relationship": [
                    {
                        "coding": [
                            {
                                "code": "Father",
                                "display": "Father"
                            }
                        ]
                    }
                ],
                "address": [
                    {
                        "line": [
                            "4762 Hickory Street"
                        ],
                        "city": "Monroe",
                        "state": "WI",
                        "postalCode": "53566",
                        "country": "USA"
                    }
                ],
                "name": [
                    {
                        "family": "Bixby",
                        "given": [
                            "Kent"
                        ]
                    }
                ],
                "patient": {
                    "reference": "Patient/f7a9494a-3fac-e0e1-78d8-d7c20410ca33"
                }
            },
            "request": {
                "method": "PUT",
                "url": "RelatedPerson/79ceda41-8fc5-5e07-6f9f-0d5e4e716430"
            }
        },
        {
            "fullUrl": "urn:uuid:78421d2f-a405-2d71-ff9f-132539dbcdb5",
            "resource": {
                "resourceType": "Practitioner",
                "id": "78421d2f-a405-2d71-ff9f-132539dbcdb5",
                "identifier": [
                    {
                        "value": "4356789876",
                        "system": "http://example.com/v2-to-fhir-converter/assigning-authority-local-system-NPI"
                    }
                ],
                "name": [
                    {
                        "family": "Granite",
                        "given": [
                            "Pat"
                        ],
                        "suffix": [
                            "MD"
                        ]
                    },
                    {
                        "family": "Granite",
                        "given": [
                            "Pat"
                        ]
                    }
                ]
            },
            "request": {
                "method": "PUT",
                "url": "Practitioner/78421d2f-a405-2d71-ff9f-132539dbcdb5"
            }
        },
        {
            "fullUrl": "urn:uuid:fb207bbb-3ad0-180c-bd53-8ca8fd3581ec",
            "resource": {
                "resourceType": "Practitioner",
                "id": "fb207bbb-3ad0-180c-bd53-8ca8fd3581ec"
            },
            "request": {
                "method": "PUT",
                "url": "Practitioner/fb207bbb-3ad0-180c-bd53-8ca8fd3581ec"
            }
        },
        {
            "fullUrl": "urn:uuid:1d17bd3e-c217-b488-dd0a-b87c0652a3f1",
            "resource": {
                "resourceType": "Location",
                "id": "1d17bd3e-c217-b488-dd0a-b87c0652a3f1",
                "name": "3N",
                "mode": "instance",
                "description": "3N--136--B--RES General Hospital--Inpatient",
                "physicalType": {
                    "coding": [
                        {
                            "system": "http://terminology.hl7.org/CodeSystem/location-physical-type",
                            "code": "lvl"
                        }
                    ]
                }
            },
            "request": {
                "method": "PUT",
                "url": "Location/1d17bd3e-c217-b488-dd0a-b87c0652a3f1"
            }
        },
        {
            "fullUrl": "urn:uuid:d5dd2e32-efbc-854a-cf3c-2bd6a7ff075e",
            "resource": {
                "resourceType": "Location",
                "id": "d5dd2e32-efbc-854a-cf3c-2bd6a7ff075e",
                "partOf": {
                    "reference": "Location/1d17bd3e-c217-b488-dd0a-b87c0652a3f1"
                },
                "name": "136",
                "mode": "instance",
                "description": "3N--136--B--RES General Hospital--Inpatient",
                "physicalType": {
                    "coding": [
                        {
                            "system": "http://terminology.hl7.org/CodeSystem/location-physical-type",
                            "code": "ro"
                        }
                    ]
                }
            },
            "request": {
                "method": "PUT",
                "url": "Location/d5dd2e32-efbc-854a-cf3c-2bd6a7ff075e"
            }
        },
        {
            "fullUrl": "urn:uuid:5783dafa-c6c0-e673-cca4-42087ee1831b",
            "resource": {
                "resourceType": "Location",
                "id": "5783dafa-c6c0-e673-cca4-42087ee1831b",
                "partOf": {
                    "reference": "Location/d5dd2e32-efbc-854a-cf3c-2bd6a7ff075e"
                },
                "name": "B",
                "mode": "instance",
                "description": "3N--136--B--RES General Hospital--Inpatient",
                "physicalType": {
                    "coding": [
                        {
                            "system": "http://terminology.hl7.org/CodeSystem/location-physical-type",
                            "code": "bd"
                        }
                    ]
                }
            },
            "request": {
                "method": "PUT",
                "url": "Location/5783dafa-c6c0-e673-cca4-42087ee1831b"
            }
        },
        {
            "fullUrl": "urn:uuid:9e9deb57-14b7-3c6a-e9da-3874ac02bb5f",
            "resource": {
                "resourceType": "Location",
                "id": "9e9deb57-14b7-3c6a-e9da-3874ac02bb5f",
                "name": "RES General Hospital",
                "mode": "instance",
                "description": "3N--136--B--RES General Hospital--Inpatient",
                "physicalType": {
                    "coding": [
                        {
                            "system": "http://terminology.hl7.org/CodeSystem/location-physical-type",
                            "code": "si"
                        }
                    ]
                }
            },
            "request": {
                "method": "PUT",
                "url": "Location/9e9deb57-14b7-3c6a-e9da-3874ac02bb5f"
            }
        },
        {
            "fullUrl": "urn:uuid:99425718-6c7d-d427-2df3-db51299fdb0b",
            "resource": {
                "resourceType": "Encounter",
                "id": "99425718-6c7d-d427-2df3-db51299fdb0b",
                "class": {
                    "code": "IMP",
                    "display": "inpatient encounter",
                    "system": "http://terminology.hl7.org/CodeSystem/v3-ActCode"
                },
                "status": "in-progress",
                "location": [
                    {
                        "status": "active",
                        "location": {
                            "reference": "Location/1d17bd3e-c217-b488-dd0a-b87c0652a3f1"
                        }
                    }
                ],
                "participant": [
                    {
                        "type": [
                            {
                                "coding": [
                                    {
                                        "code": "ATND",
                                        "system": "http://terminology.hl7.org/CodeSystem/v3-ParticipationType",
                                        "display": "attender"
                                    }
                                ]
                            }
                        ],
                        "individual": {
                            "reference": "Practitioner/78421d2f-a405-2d71-ff9f-132539dbcdb5"
                        }
                    },
                    {
                        "type": [
                            {
                                "coding": [
                                    {
                                        "code": "REF",
                                        "system": "http://terminology.hl7.org/CodeSystem/v3-ParticipationType"
                                    }
                                ],
                                "text": "referrer"
                            }
                        ],
                        "individual": {
                            "reference": "Practitioner/fb207bbb-3ad0-180c-bd53-8ca8fd3581ec"
                        }
                    }
                ],
                "identifier": [
                    {
                        "value": "1234",
                        "type": {
                            "coding": [
                                {
                                    "code": "VN",
                                    "system": "http://terminology.hl7.org/CodeSystem/v2-0203"
                                }
                            ],
                            "text": "visit number"
                        }
                    }
                ],
                "period": {
                    "start": "2018-10-17T22:28:05"
                },
                "text": {
                    "status": "generated",
                    "div": "<div xmlns=\"http://www.w3.org/1999/xhtml\"><p><span>Visit Description: </span></p></div>"
                },
                "subject": {
                    "reference": "Patient/f7a9494a-3fac-e0e1-78d8-d7c20410ca33"
                }
            },
            "request": {
                "method": "PUT",
                "url": "Encounter/99425718-6c7d-d427-2df3-db51299fdb0b"
            }
        },
        {
            "fullUrl": "urn:uuid:ef22db25-97a7-24b4-938f-da30c377b020",
            "resource": {
                "resourceType": "Provenance",
                "id": "ef22db25-97a7-24b4-938f-da30c377b020",
                "recorded": "2018-10-17T02:55:43",
                "activity": {
                    "text": "ADT^A04"
                },
                "target": [
                    {
                        "reference": "Bundle/a04e38af-61c9-8af1-875d-ea2b4c1ffac6"
                    }
                ]
            },
            "request": {
                "method": "PUT",
                "url": "Provenance/ef22db25-97a7-24b4-938f-da30c377b020"
            }
        },
        {
            "fullUrl": "urn:uuid:ece287da-a00b-b349-5de5-c25906e7ac53",
            "resource": {
                "resourceType": "RelatedPerson",
                "id": "ece287da-a00b-b349-5de5-c25906e7ac53",
                "relationship": [
                    {
                        "coding": [
                            {
                                "code": "Mother",
                                "display": "Mother"
                            }
                        ]
                    },
                    {
                        "coding": [
                            {
                                "code": "Emergency Contact",
                                "display": "Emergency Contact"
                            }
                        ]
                    }
                ],
                "address": [
                    {
                        "line": [
                            "4762 Hickory Street"
                        ],
                        "city": "Monroe",
                        "state": "WI",
                        "postalCode": "53566",
                        "country": "US"
                    }
                ],
                "telecom": [
                    {
                        "value": "+19189368865"
                    }
                ],
                "name": [
                    {
                        "family": "Bixby",
                        "given": [
                            "Barbara"
                        ]
                    }
                ],
                "patient": {
                    "reference": "Patient/f7a9494a-3fac-e0e1-78d8-d7c20410ca33"
                }
            },
            "request": {
                "method": "PUT",
                "url": "RelatedPerson/ece287da-a00b-b349-5de5-c25906e7ac53"
            }
        },
        {
            "fullUrl": "urn:uuid:118533a8-4806-05da-77f9-55e1e8b3cb48",
            "resource": {
                "resourceType": "Coverage",
                "id": "118533a8-4806-05da-77f9-55e1e8b3cb48",
                "class": [
                    {
                        "value": "31572",
                        "name": "HMO Deductable Plan",
                        "type": {
                            "coding": [
                                {
                                    "system": "http://terminology.hl7.org/CodeSystem/coverage-class",
                                    "code": "plan",
                                    "display": "Plan"
                                }
                            ]
                        }
                    },
                    {
                        "value": "847025-024-0009",
                        "name": "Accelerator Labs",
                        "type": {
                            "coding": [
                                {
                                    "system": "http://terminology.hl7.org/CodeSystem/coverage-class",
                                    "code": "group",
                                    "display": "Group"
                                }
                            ]
                        }
                    }
                ],
                "network": "HMO Deductable Plan",
                "period": {
                    "start": "2015-01-01",
                    "end": "2020-12-31"
                },
                "identifier": [
                    {
                        "value": "9140860055",
                        "type": {
                            "coding": [
                                {
                                    "code": "PLN",
                                    "display": "Policy Number",
                                    "system": "http://example.com/CodeSystem/additional-identifier"
                                }
                            ]
                        },
                        "system": "http://www.examplehealthplan.com/fhir/policyidentifier"
                    }
                ],
                "status": "active",
                "beneficiary": {
                    "reference": "Patient/f7a9494a-3fac-e0e1-78d8-d7c20410ca33"
                },
                "payor": [
                    {
                        "reference": "Organization/363e0c71-6c70-07b3-3003-4517de956021"
                    }
                ],
                "subscriber": {
                    "reference": "RelatedPerson/4bd18974-940d-b574-1aba-484e745ce063"
                }
            },
            "request": {
                "method": "PUT",
                "url": "Coverage/118533a8-4806-05da-77f9-55e1e8b3cb48"
            }
        },
        {
            "fullUrl": "urn:uuid:363e0c71-6c70-07b3-3003-4517de956021",
            "resource": {
                "resourceType": "Organization",
                "id": "363e0c71-6c70-07b3-3003-4517de956021",
                "address": [
                    {
                        "line": [
                            "PO Box 14080"
                        ],
                        "city": "Lexington",
                        "state": "KY",
                        "postalCode": "40512-4079",
                        "country": "US"
                    }
                ],
                "telecom": [
                    {
                        "value": "8089541123"
                    }
                ],
                "identifier": [
                    {
                        "value": "60054"
                    }
                ],
                "name": "aetna (60054 0131)"
            },
            "request": {
                "method": "PUT",
                "url": "Organization/363e0c71-6c70-07b3-3003-4517de956021"
            }
        },
        {
            "fullUrl": "urn:uuid:4bd18974-940d-b574-1aba-484e745ce063",
            "resource": {
                "resourceType": "RelatedPerson",
                "id": "4bd18974-940d-b574-1aba-484e745ce063",
                "patient": {
                    "reference": "Patient/f7a9494a-3fac-e0e1-78d8-d7c20410ca33"
                }
            },
            "request": {
                "method": "PUT",
                "url": "RelatedPerson/4bd18974-940d-b574-1aba-484e745ce063"
            }
        }
    ]
}