{
    "resourceType": "Bundle",
    "type": "batch",
    "timestamp": "2019-05-04T18:12:05+07:00",
    "identifier": {
        "value": "1270326314"
    },
    "id": "a04e38af-61c9-8af1-875d-ea2b4c1ffac6",
    "entry": [
        {
            "fullUrl": "urn:uuid:aa9b0327-0d9f-945a-888c-07658da974df",
            "resource": {
                "resourceType": "MessageHeader",
                "id": "aa9b0327-0d9f-945a-888c-07658da974df",
                "source": {
                    "name": "REDOX",
                    "_endpoint": {
                        "extension": [
                            {
                                "url": "http://hl7.org/fhir/StructureDefinition/data-absent-reason",
                                "valueCode": "unknown"
                            }
                        ]
                    }
                },
                "meta": {
                    "tag": [
                        {
                            "code": "T",
                            "system": "http://terminology.hl7.org/CodeSystem/v2-0103"
                        }
                    ]
                },
                "eventCoding": {
                    "code": "A04",
                    "system": "http://terminology.hl7.org/CodeSystem/v2-0003",
                    "display": "ADT^A04"
                },
                "sender": {
                    "reference": "Organization/6fbc0a9a-11e5-aa44-b0d7-79439e65ae84"
                }
            },
            "request": {
                "method": "PUT",
                "url": "MessageHeader/aa9b0327-0d9f-945a-888c-07658da974df"
            }
        },
        {
            "fullUrl": "urn:uuid:73105c01-0c83-840e-6dbb-9ef4928175f8",
            "resource": {
                "resourceType": "Provenance",
                "id": "73105c01-0c83-840e-6dbb-9ef4928175f8",
                "text": {
                    "status": "generated",
                    "div": "<div xmlns=\"http://www.w3.org/1999/xhtml\"><p><span>Resource bundle generated on 2022-03-25T13:08:28.268Z using Microsoft FHIR Converter.</span><span>Template Version: TEMPLATE_VERSION_PLACEHOLDER.</span><span>Template URL: https://github.com/microsoft/FHIR-Converter/releases/download/vTEMPLATE_VERSION_PLACEHOLDER/Hl7v2DefaultTemplates.tar.gz.</span><span>Root template: ADT_A04.</span></p></div>"
                },
                "occurredDateTime": "2019-05-04T18:12:05+07:00",
                "recorded": "2019-05-04T18:12:05+07:00",
                "agent": [
                    {
                        "type": {
                            "coding": [
                                {
                                    "code": "author",
                                    "system": "http://terminology.hl7.org/CodeSystem/provenance-participant-type"
                                }
                            ]
                        },
                        "who": {
                            "reference": "Organization/6fbc0a9a-11e5-aa44-b0d7-79439e65ae84"
                        }
                    }
                ],
                "activity": {
                    "coding": [
                        {
                            "display": "ADT^A04^"
                        }
                    ]
                },
                "target": [
                    {
                        "reference": "Bundle/a04e38af-61c9-8af1-875d-ea2b4c1ffac6"
                    }
                ]
            },
            "request": {
                "method": "PUT",
                "url": "Provenance/73105c01-0c83-840e-6dbb-9ef4928175f8"
            }
        },
        {
            "fullUrl": "urn:uuid:6fbc0a9a-11e5-aa44-b0d7-79439e65ae84",
            "resource": {
                "resourceType": "Organization",
                "id": "6fbc0a9a-11e5-aa44-b0d7-79439e65ae84",
                "identifier": [
                    {
                        "value": "RDX",
                        "system": "http://example.com/v2-to-fhir-converter/Identifier/RDX"
                    }
                ]
            },
            "request": {
                "method": "PUT",
                "url": "Organization/6fbc0a9a-11e5-aa44-b0d7-79439e65ae84"
            }
        },
        {
            "fullUrl": "urn:uuid:106decd4-a7b0-34eb-afe9-94e54bdff26f",
            "resource": {
                "resourceType": "Patient",
                "id": "106decd4-a7b0-34eb-afe9-94e54bdff26f",
                "identifier": [
                    {
                        "value": "MRN12345",
                        "type": {
                            "coding": [
                                {
                                    "code": "MR",
                                    "system": "http://terminology.hl7.org/CodeSystem/v2-0203",
                                    "display": "Medical record number"
                                }
                            ]
                        }
                    }
                ],
                "name": [
                    {
                        "family": "Doe",
                        "given": [
                            "Jane"
                        ]
                    }
                ],
                "birthDate": "1978-01-01",
                "gender": "female",
                "extension": [
                    {
                        "url": "http://hl7.org/fhir/us/core/StructureDefinition/us-core-race",
                        "extension": [
                            {
                                "url": "ombCategory",
                                "valueCoding": {
                                    "code": "2106-3",
                                    "display": "White",
                                    "system": "urn:oid:2.16.840.1.113883.6.238"
                                }
                            },
                            {
                                "url": "text",
                                "valueString": "White"
                            }
                        ]
                    }
                ],
                "contact": [
                    {
                        "name": {
                            "family": "JOHNSON",
                            "given": [
                                "CONWAY"
                            ],
                            "use": "official"
                        },
                        "telecom": [
                            {
                                "use": "home",
                                "system": "phone"
                            },
                            {
                                "system": "phone"
                            }
                        ],
                        "relationship": [
                            {
                                "coding": [
                                    {
                                        "code": "EMERGENCY",
                                        "display": "EMERGENCY"
                                    }
                                ]
                            }
                        ]
                    }
                ]
            },
            "request": {
                "method": "PUT",
                "url": "Patient/106decd4-a7b0-34eb-afe9-94e54bdff26f"
            }
        },
        {
            "fullUrl": "urn:uuid:7b989e2a-3e77-edde-7857-598322ea862b",
            "resource": {
                "resourceType": "Account",
                "id": "7b989e2a-3e77-edde-7857-598322ea862b",
                "identifier": [
                    {
                        "value": "123456789"
                    }
                ],
                "status": "active",
                "subject": [
                    {
                        "reference": "Patient/106decd4-a7b0-34eb-afe9-94e54bdff26f"
                    }
                ]
            },
            "request": {
                "method": "PUT",
                "url": "Account/7b989e2a-3e77-edde-7857-598322ea862b"
            }
        },
        {
            "fullUrl": "urn:uuid:10ffd4e9-25bf-8239-3d9b-64bef81e192a",
            "resource": {
                "resourceType": "Practitioner",
                "id": "10ffd4e9-25bf-8239-3d9b-64bef81e192a",
                "identifier": [
                    {
                        "value": "12345"
                    }
                ],
                "name": [
                    {
                        "family": "Johnson",
                        "given": [
                            "Peter"
                        ]
                    }
                ]
            },
            "request": {
                "method": "PUT",
                "url": "Practitioner/10ffd4e9-25bf-8239-3d9b-64bef81e192a"
            }
        },
        {
            "fullUrl": "urn:uuid:02867f99-5e52-bb72-cc91-86995a7c41e0",
            "resource": {
                "resourceType": "Encounter",
                "id": "02867f99-5e52-bb72-cc91-86995a7c41e0",
                "class": {
                    "code": "EMER",
                    "display": "emergency",
                    "system": "http://terminology.hl7.org/CodeSystem/v3-ActCode"
                },
                "status": "in-progress",
                "participant": [
                    {
                        "type": [
                            {
                                "coding": [
                                    {
                                        "code": "ATND",
                                        "system": "http://terminology.hl7.org/CodeSystem/v3-ParticipationType",
                                        "display": "attender"
                                    }
                                ]
                            }
                        ],
                        "individual": {
                            "reference": "Practitioner/10ffd4e9-25bf-8239-3d9b-64bef81e192a"
                        }
                    }
                ],
                "period": {
                    "start": "2019-05-04T18:12:05+07:00"
                },
                "text": {
                    "status": "generated",
                    "div": "<div xmlns=\"http://www.w3.org/1999/xhtml\"><p><span>Visit Description: </span></p></div>"
                },
                "account": [
                    {
                        "reference": "Account/7b989e2a-3e77-edde-7857-598322ea862b"
                    }
                ],
                "subject": {
                    "reference": "Patient/106decd4-a7b0-34eb-afe9-94e54bdff26f"
                }
            },
            "request": {
                "method": "PUT",
                "url": "Encounter/02867f99-5e52-bb72-cc91-86995a7c41e0"
            }
        },
        {
            "fullUrl": "urn:uuid:4e852062-3313-586b-4979-1f4c539eb4d5",
            "resource": {
                "resourceType": "RelatedPerson",
                "id": "4e852062-3313-586b-4979-1f4c539eb4d5",
                "relationship": [
                    {
                        "coding": [
                            {
                                "code": "SPOUS",
                                "display": "SPOUS"
                            }
                        ]
                    },
                    {
                        "coding": [
                            {
                                "code": "EMERGENCY",
                                "display": "EMERGENCY"
                            }
                        ]
                    }
                ],
                "telecom": [
                    {
                        "use": "home",
                        "system": "phone"
                    },
                    {
                        "system": "phone"
                    }
                ],
                "name": [
                    {
                        "family": "JOHNSON",
                        "given": [
                            "CONWAY"
                        ],
                        "use": "official"
                    }
                ],
                "patient": {
                    "reference": "Patient/106decd4-a7b0-34eb-afe9-94e54bdff26f"
                }
            },
            "request": {
                "method": "PUT",
                "url": "RelatedPerson/4e852062-3313-586b-4979-1f4c539eb4d5"
            }
        }
    ]
}