{
    "resourceType": "Bundle",
    "type": "batch",
    "timestamp": "2001-01-01T00:00:00+07:00",
    "identifier": {
        "value": "Q123456789T123456789X123456"
    },
    "id": "c9b7c305-0ed7-eb69-1e29-b4cc6251c12d",
    "entry": [
        {
            "fullUrl": "urn:uuid:18548d54-14a8-815a-c1bb-396f35b37164",
            "resource": {
                "resourceType": "MessageHeader",
                "id": "18548d54-14a8-815a-c1bb-396f35b37164",
                "source": {
                    "name": "NES",
                    "_endpoint": {
                        "extension": [
                            {
                                "url": "http://hl7.org/fhir/StructureDefinition/data-absent-reason",
                                "valueCode": "unknown"
                            }
                        ]
                    }
                },
                "destination": [
                    {
                        "name": "TESTSYSTEM",
                        "_endpoint": {
                            "extension": [
                                {
                                    "url": "http://hl7.org/fhir/StructureDefinition/data-absent-reason",
                                    "valueCode": "unknown"
                                }
                            ]
                        },
                        "receiver": {
                            "reference": "Organization/ff939fb2-65de-0b68-4a81-ce9cd8e6f5a5"
                        }
                    }
                ],
                "meta": {
                    "tag": [
                        {
                            "code": "P",
                            "system": "http://terminology.hl7.org/CodeSystem/v2-0103"
                        }
                    ]
                },
                "eventCoding": {
                    "code": "A04",
                    "system": "http://terminology.hl7.org/CodeSystem/v2-0003",
                    "display": "ADT^A04"
                },
                "sender": {
                    "reference": "Organization/37113002-8500-6f18-8ff4-95b962eeadfe"
                }
            },
            "request": {
                "method": "PUT",
                "url": "MessageHeader/18548d54-14a8-815a-c1bb-396f35b37164"
            }
        },
        {
            "fullUrl": "urn:uuid:b8bf5f81-bc6a-5fda-5fb2-fd273ac267a8",
            "resource": {
                "resourceType": "Provenance",
                "id": "b8bf5f81-bc6a-5fda-5fb2-fd273ac267a8",
                "text": {
                    "status": "generated",
                    "div": "<div xmlns=\"http://www.w3.org/1999/xhtml\"><p><span>Resource bundle generated on 2022-03-25T13:10:26.547Z using Microsoft FHIR Converter.</span><span>Template Version: TEMPLATE_VERSION_PLACEHOLDER.</span><span>Template URL: https://github.com/microsoft/FHIR-Converter/releases/download/vTEMPLATE_VERSION_PLACEHOLDER/Hl7v2DefaultTemplates.tar.gz.</span><span>Root template: ADT_A04.</span></p></div>"
                },
                "occurredDateTime": "2001-01-01T00:00:00+07:00",
                "recorded": "2001-01-01T00:00:00+07:00",
                "agent": [
                    {
                        "type": {
                            "coding": [
                                {
                                    "code": "author",
                                    "system": "http://terminology.hl7.org/CodeSystem/provenance-participant-type"
                                }
                            ]
                        },
                        "who": {
                            "reference": "Organization/37113002-8500-6f18-8ff4-95b962eeadfe"
                        }
                    }
                ],
                "activity": {
                    "coding": [
                        {
                            "display": "ADT^A04^"
                        }
                    ]
                },
                "target": [
                    {
                        "reference": "Bundle/c9b7c305-0ed7-eb69-1e29-b4cc6251c12d"
                    }
                ]
            },
            "request": {
                "method": "PUT",
                "url": "Provenance/b8bf5f81-bc6a-5fda-5fb2-fd273ac267a8"
            }
        },
        {
            "fullUrl": "urn:uuid:37113002-8500-6f18-8ff4-95b962eeadfe",
            "resource": {
                "resourceType": "Organization",
                "id": "37113002-8500-6f18-8ff4-95b962eeadfe",
                "identifier": [
                    {
                        "value": "NINTENDO",
                        "system": "http://example.com/v2-to-fhir-converter/Identifier/NINTENDO"
                    }
                ]
            },
            "request": {
                "method": "PUT",
                "url": "Organization/37113002-8500-6f18-8ff4-95b962eeadfe"
            }
        },
        {
            "fullUrl": "urn:uuid:ff939fb2-65de-0b68-4a81-ce9cd8e6f5a5",
            "resource": {
                "resourceType": "Organization",
                "id": "ff939fb2-65de-0b68-4a81-ce9cd8e6f5a5",
                "identifier": [
                    {
                        "value": "TESTFACILITY",
                        "system": "http://example.com/v2-to-fhir-converter/Identifier/TESTFACILITY"
                    }
                ]
            },
            "request": {
                "method": "PUT",
                "url": "Organization/ff939fb2-65de-0b68-4a81-ce9cd8e6f5a5"
            }
        },
        {
            "fullUrl": "urn:uuid:5002eb07-c460-7112-6574-50303ae3b4a6",
            "resource": {
                "resourceType": "Patient",
                "id": "5002eb07-c460-7112-6574-50303ae3b4a6",
                "identifier": [
                    {
                        "value": "123456789",
                        "type": {
                            "coding": [
                                {
                                    "code": "MR",
                                    "system": "http://terminology.hl7.org/CodeSystem/v2-0203",
                                    "display": "Medical record number"
                                }
                            ]
                        }
                    }
                ],
                "name": [
                    {
                        "family": "BROS",
                        "given": [
                            "MARIO"
                        ]
                    }
                ],
                "birthDate": "1985-01-01",
                "_birthDate": {
                    "extension": [
                        {
                            "url": "http://hl7.org/fhir/StructureDefinition/patient-birthTime",
                            "valueDateTime": "1985-01-01T00:00:00+07:00"
                        }
                    ]
                },
                "gender": "male",
                "address": [
                    {
                        "line": [
                            "123 FAKE STREET",
                            "MARIO LUIGI BROS PLACE"
                        ],
                        "city": "TOADSTOOL KINGDOM",
                        "state": "NES",
                        "postalCode": "A1B2C3",
                        "country": "JP"
                    }
                ],
                "telecom": [
                    {
                        "use": "HOME",
                        "system": "JP:1234567"
                    },
                    {
                        "use": "HOME",
                        "system": "JP:1234568"
                    }
                ],
                "maritalStatus": {
                    "coding": [
                        {
                            "code": "S",
                            "display": "Never Married",
                            "system": "http://terminology.hl7.org/CodeSystem/v3-MaritalStatus"
                        }
                    ]
                },
                "multipleBirthInteger": 0,
                "deceasedBoolean": false,
                "extension": [
                    {
                        "url": "http://hl7.org/fhir/StructureDefinition/patient-religion",
                        "valueCodeableConcept": {
                            "coding": [
                                {
                                    "code": "1023",
                                    "display": "Islam",
                                    "system": "http://terminology.hl7.org/CodeSystem/v3-ReligiousAffiliation"
                                }
                            ]
                        }
                    }
                ],
                "contact": [
                    {
                        "name": {
                            "family": "PEACH",
                            "given": [
                                "PRINCESS"
                            ]
                        },
                        "address": {
                            "line": [
                                "ANOTHER CASTLE"
                            ],
                            "city": "TOADSTOOL KINGDOM",
                            "state": "NES",
                            "country": "JP"
                        },
                        "telecom": [
                            {
                                "value": "(123)555-1234",
                                "use": "home"
                            },
                            {
                                "value": "(123)555-2345",
                                "use": "work"
                            }
                        ],
                        "relationship": [
                            {
                                "coding": [
                                    {
                                        "code": "NOK",
                                        "display": "NOK"
                                    }
                                ]
                            }
                        ]
                    },
                    {
                        "name": {
                            "family": "TOADSTOOL",
                            "given": [
                                "PRINCESS"
                            ]
                        },
                        "address": {
                            "line": [
                                "YET ANOTHER CASTLE"
                            ],
                            "city": "TOADSTOOL KINGDOM",
                            "state": "NES",
                            "country": "JP"
                        },
                        "telecom": [
                            {
                                "value": "(123)555-3456",
                                "use": "home"
                            },
                            {
                                "value": "(123)555-4567",
                                "use": "work"
                            }
                        ],
                        "relationship": [
                            {
                                "coding": [
                                    {
                                        "code": "EMC",
                                        "display": "EMC"
                                    }
                                ]
                            }
                        ]
                    }
                ]
            },
            "request": {
                "method": "PUT",
                "url": "Patient/5002eb07-c460-7112-6574-50303ae3b4a6"
            }
        },
        {
            "fullUrl": "urn:uuid:62250a3a-7731-9329-ba14-5ab5f01a2678",
            "resource": {
                "resourceType": "Account",
                "id": "62250a3a-7731-9329-ba14-5ab5f01a2678",
                "identifier": [
                    {
                        "value": "12345678"
                    }
                ],
                "status": "active",
                "subject": [
                    {
                        "reference": "Patient/5002eb07-c460-7112-6574-50303ae3b4a6"
                    }
                ]
            },
            "request": {
                "method": "PUT",
                "url": "Account/62250a3a-7731-9329-ba14-5ab5f01a2678"
            }
        },
        {
            "fullUrl": "urn:uuid:06328e17-a467-ce3f-48ba-28a3e3c21152",
            "resource": {
                "resourceType": "Practitioner",
                "id": "06328e17-a467-ce3f-48ba-28a3e3c21152",
                "identifier": [
                    {
                        "value": "123456",
                        "system": "http://example.com/v2-to-fhir-converter/Identifier/MSRM",
                        "type": {
                            "coding": [
                                {
                                    "code": "NEIGHBOURHOOD DR NBR",
                                    "display": "NEIGHBOURHOOD DR NBR"
                                }
                            ]
                        }
                    }
                ],
                "name": [
                    {
                        "family": "DINO",
                        "given": [
                            "YOSHI"
                        ],
                        "use": "CURRENT"
                    }
                ]
            },
            "request": {
                "method": "PUT",
                "url": "Practitioner/06328e17-a467-ce3f-48ba-28a3e3c21152"
            }
        },
        {
            "fullUrl": "urn:uuid:a5bcb90d-8151-7e13-dd82-9e837d506efa",
            "resource": {
                "resourceType": "Practitioner",
                "id": "a5bcb90d-8151-7e13-dd82-9e837d506efa",
                "name": [
                    {
                        "family": "DOG",
                        "given": [
                            "DUCKHUNT"
                        ],
                        "use": "CURRENT"
                    }
                ]
            },
            "request": {
                "method": "PUT",
                "url": "Practitioner/a5bcb90d-8151-7e13-dd82-9e837d506efa"
            }
        },
        {
            "fullUrl": "urn:uuid:ab3e8ed7-2fe5-64c4-272b-4a3223c131d5",
            "resource": {
                "resourceType": "Location",
                "id": "ab3e8ed7-2fe5-64c4-272b-4a3223c131d5",
                "name": "ABCD",
                "mode": "instance",
                "description": "ABCD--EFGH",
                "physicalType": {
                    "coding": [
                        {
                            "system": "http://terminology.hl7.org/CodeSystem/location-physical-type",
                            "code": "lvl"
                        }
                    ]
                }
            },
            "request": {
                "method": "PUT",
                "url": "Location/ab3e8ed7-2fe5-64c4-272b-4a3223c131d5"
            }
        },
        {
            "fullUrl": "urn:uuid:72c3d398-8c14-4326-8838-d787f8c4c714",
            "resource": {
                "resourceType": "Location",
                "id": "72c3d398-8c14-4326-8838-d787f8c4c714",
                "partOf": {
                    "reference": "Location/ab3e8ed7-2fe5-64c4-272b-4a3223c131d5"
                },
                "name": "EFGH",
                "mode": "instance",
                "description": "ABCD--EFGH",
                "physicalType": {
                    "coding": [
                        {
                            "system": "http://terminology.hl7.org/CodeSystem/location-physical-type",
                            "code": "ro"
                        }
                    ]
                }
            },
            "request": {
                "method": "PUT",
                "url": "Location/72c3d398-8c14-4326-8838-d787f8c4c714"
            }
        },
        {
            "fullUrl": "urn:uuid:3af9566b-b135-fe5b-ebf0-3120f8ca2c9e",
            "resource": {
                "resourceType": "Encounter",
                "id": "3af9566b-b135-fe5b-ebf0-3120f8ca2c9e",
                "class": {
                    "code": "AMB",
                    "display": "ambulatory",
                    "system": "http://terminology.hl7.org/CodeSystem/v3-ActCode"
                },
                "status": "in-progress",
                "location": [
                    {
                        "status": "active",
                        "location": {
                            "reference": "Location/ab3e8ed7-2fe5-64c4-272b-4a3223c131d5"
                        }
                    }
                ],
                "participant": [
                    {
                        "type": [
                            {
                                "coding": [
                                    {
                                        "code": "ATND",
                                        "system": "http://terminology.hl7.org/CodeSystem/v3-ParticipationType",
                                        "display": "attender"
                                    }
                                ]
                            }
                        ],
                        "individual": {
                            "reference": "Practitioner/06328e17-a467-ce3f-48ba-28a3e3c21152"
                        }
                    },
                    {
                        "type": [
                            {
                                "coding": [
                                    {
                                        "code": "REF",
                                        "system": "http://terminology.hl7.org/CodeSystem/v3-ParticipationType"
                                    }
                                ],
                                "text": "referrer"
                            }
                        ],
                        "individual": {
                            "reference": "Practitioner/a5bcb90d-8151-7e13-dd82-9e837d506efa"
                        }
                    },
                    {
                        "type": [
                            {
                                "coding": [
                                    {
                                        "code": "ADM",
                                        "system": "http://terminology.hl7.org/CodeSystem/v3-ParticipationType"
                                    }
                                ],
                                "text": "admitter"
                            }
                        ],
                        "individual": {
                            "reference": "Practitioner/06328e17-a467-ce3f-48ba-28a3e3c21152"
                        }
                    }
                ],
                "serviceType": {
                    "coding": [
                        {
                            "code": "CRD"
                        }
                    ]
                },
                "identifier": [
                    {
                        "value": "0123456789",
                        "type": {
                            "coding": [
                                {
                                    "code": "VN",
                                    "system": "http://terminology.hl7.org/CodeSystem/v2-0203"
                                }
                            ],
                            "text": "visit number"
                        }
                    }
                ],
                "period": {
                    "start": "2001-01-01T00:00:00+07:00"
                },
                "text": {
                    "status": "generated",
                    "div": "<div xmlns=\"http://www.w3.org/1999/xhtml\"><p><span>Visit Description: </span></p></div>"
                },
                "account": [
                    {
                        "reference": "Account/62250a3a-7731-9329-ba14-5ab5f01a2678"
                    }
                ],
                "subject": {
                    "reference": "Patient/5002eb07-c460-7112-6574-50303ae3b4a6"
                }
            },
            "request": {
                "method": "PUT",
                "url": "Encounter/3af9566b-b135-fe5b-ebf0-3120f8ca2c9e"
            }
        },
        {
            "fullUrl": "urn:uuid:b845c420-ff05-32b9-3639-cec21b18aaf1",
            "resource": {
                "resourceType": "Provenance",
                "id": "b845c420-ff05-32b9-3639-cec21b18aaf1",
                "recorded": "2001-01-01T00:00:00+07:00",
                "agent": [
                    {
                        "who": {
                            "reference": "Practitioner/03fde832-1955-892f-f280-c6f950ccc798"
                        }
                    }
                ],
                "activity": {
                    "text": "ADT^A04"
                },
                "target": [
                    {
                        "reference": "Bundle/c9b7c305-0ed7-eb69-1e29-b4cc6251c12d"
                    }
                ]
            },
            "request": {
                "method": "PUT",
                "url": "Provenance/b845c420-ff05-32b9-3639-cec21b18aaf1"
            }
        },
        {
            "fullUrl": "urn:uuid:03fde832-1955-892f-f280-c6f950ccc798",
            "resource": {
                "resourceType": "Practitioner",
                "id": "03fde832-1955-892f-f280-c6f950ccc798",
                "name": [
                    {
                        "family": "KOOPA",
                        "given": [
                            "BOWSER"
                        ],
                        "use": "CURRENT"
                    }
                ]
            },
            "request": {
                "method": "PUT",
                "url": "Practitioner/03fde832-1955-892f-f280-c6f950ccc798"
            }
        },
        {
            "fullUrl": "urn:uuid:4e083e5f-53b4-194d-b6bd-6d51b5dab850",
            "resource": {
                "resourceType": "RelatedPerson",
                "id": "4e083e5f-53b4-194d-b6bd-6d51b5dab850",
                "relationship": [
                    {
                        "coding": [
                            {
                                "code": "SO",
                                "display": "SO"
                            }
                        ]
                    },
                    {
                        "coding": [
                            {
                                "code": "NOK",
                                "display": "NOK"
                            }
                        ]
                    }
                ],
                "address": [
                    {
                        "line": [
                            "ANOTHER CASTLE"
                        ],
                        "city": "TOADSTOOL KINGDOM",
                        "state": "NES",
                        "country": "JP"
                    }
                ],
                "telecom": [
                    {
                        "value": "(123)555-1234"
                    },
                    {
                        "value": "(123)555-2345",
                        "use": "work"
                    }
                ],
                "name": [
                    {
                        "family": "PEACH",
                        "given": [
                            "PRINCESS"
                        ]
                    }
                ],
                "patient": {
                    "reference": "Patient/5002eb07-c460-7112-6574-50303ae3b4a6"
                }
            },
            "request": {
                "method": "PUT",
                "url": "RelatedPerson/4e083e5f-53b4-194d-b6bd-6d51b5dab850"
            }
        },
        {
            "fullUrl": "urn:uuid:a7a01053-59be-eb80-1f54-591a69d5bc8e",
            "resource": {
                "resourceType": "RelatedPerson",
                "id": "a7a01053-59be-eb80-1f54-591a69d5bc8e",
                "relationship": [
                    {
                        "coding": [
                            {
                                "code": "SO",
                                "display": "SO"
                            }
                        ]
                    },
                    {
                        "coding": [
                            {
                                "code": "C",
                                "display": "Emergency Contact",
                                "system": "http://terminology.hl7.org/CodeSystem/v2-0131"
                            }
                        ]
                    }
                ],
                "address": [
                    {
                        "line": [
                            "YET ANOTHER CASTLE"
                        ],
                        "city": "TOADSTOOL KINGDOM",
                        "state": "NES",
                        "country": "JP"
                    }
                ],
                "telecom": [
                    {
                        "value": "(123)555-3456"
                    },
                    {
                        "value": "(123)555-4567",
                        "use": "work"
                    }
                ],
                "name": [
                    {
                        "family": "TOADSTOOL",
                        "given": [
                            "PRINCESS"
                        ]
                    }
                ],
                "patient": {
                    "reference": "Patient/5002eb07-c460-7112-6574-50303ae3b4a6"
                }
            },
            "request": {
                "method": "PUT",
                "url": "RelatedPerson/a7a01053-59be-eb80-1f54-591a69d5bc8e"
            }
        },
        {
            "fullUrl": "urn:uuid:bcc1f6b5-29eb-234c-e0f0-fe9afcf1a7bf",
            "resource": {
                "resourceType": "Coverage",
                "id": "bcc1f6b5-29eb-234c-e0f0-fe9afcf1a7bf",
                "class": [
                    {
                        "value": "PAR",
                        "name": "PARENT",
                        "type": {
                            "coding": [
                                {
                                    "system": "http://terminology.hl7.org/CodeSystem/coverage-class",
                                    "code": "plan",
                                    "display": "Plan"
                                }
                            ]
                        }
                    }
                ],
                "network": "PARENT",
                "status": "active",
                "beneficiary": {
                    "reference": "Patient/5002eb07-c460-7112-6574-50303ae3b4a6"
                },
                "payor": [
                    {
                        "reference": "Organization/3c0535f0-d28e-a849-79f6-c898c016c028"
                    }
                ],
                "subscriber": {
                    "reference": "RelatedPerson/5a5cec43-9c63-d6dd-aeed-4e04b3b921d3"
                }
            },
            "request": {
                "method": "PUT",
                "url": "Coverage/bcc1f6b5-29eb-234c-e0f0-fe9afcf1a7bf"
            }
        },
        {
            "fullUrl": "urn:uuid:3c0535f0-d28e-a849-79f6-c898c016c028",
            "resource": {
                "resourceType": "Organization",
                "id": "3c0535f0-d28e-a849-79f6-c898c016c028",
                "contact": [
                    {
                        "name": {
                            "family": "LUIGI"
                        }
                    }
                ]
            },
            "request": {
                "method": "PUT",
                "url": "Organization/3c0535f0-d28e-a849-79f6-c898c016c028"
            }
        },
        {
            "fullUrl": "urn:uuid:5a5cec43-9c63-d6dd-aeed-4e04b3b921d3",
            "resource": {
                "resourceType": "RelatedPerson",
                "id": "5a5cec43-9c63-d6dd-aeed-4e04b3b921d3",
                "patient": {
                    "reference": "Patient/5002eb07-c460-7112-6574-50303ae3b4a6"
                }
            },
            "request": {
                "method": "PUT",
                "url": "RelatedPerson/5a5cec43-9c63-d6dd-aeed-4e04b3b921d3"
            }
        },
        {
            "fullUrl": "urn:uuid:c850f5a3-5de9-908d-e20a-8d2964a02f2a",
            "resource": {
                "resourceType": "Coverage",
                "id": "c850f5a3-5de9-908d-e20a-8d2964a02f2a",
                "class": [
                    {
                        "value": "FRI",
                        "name": "FRIEND",
                        "type": {
                            "coding": [
                                {
                                    "system": "http://terminology.hl7.org/CodeSystem/coverage-class",
                                    "code": "plan",
                                    "display": "Plan"
                                }
                            ]
                        }
                    }
                ],
                "network": "FRIEND",
                "status": "active",
                "beneficiary": {
                    "reference": "Patient/5002eb07-c460-7112-6574-50303ae3b4a6"
                },
                "payor": [
                    {
                        "reference": "Organization/75215f59-16f2-a4ac-4fc2-0719bb90ba28"
                    }
                ],
                "subscriber": {
                    "reference": "RelatedPerson/dae6a309-01ef-2aae-bb5d-7a99f74f54db"
                }
            },
            "request": {
                "method": "PUT",
                "url": "Coverage/c850f5a3-5de9-908d-e20a-8d2964a02f2a"
            }
        },
        {
            "fullUrl": "urn:uuid:75215f59-16f2-a4ac-4fc2-0719bb90ba28",
            "resource": {
                "resourceType": "Organization",
                "id": "75215f59-16f2-a4ac-4fc2-0719bb90ba28",
                "contact": [
                    {
                        "name": {
                            "family": "PRINCESS"
                        }
                    }
                ]
            },
            "request": {
                "method": "PUT",
                "url": "Organization/75215f59-16f2-a4ac-4fc2-0719bb90ba28"
            }
        },
        {
            "fullUrl": "urn:uuid:dae6a309-01ef-2aae-bb5d-7a99f74f54db",
            "resource": {
                "resourceType": "RelatedPerson",
                "id": "dae6a309-01ef-2aae-bb5d-7a99f74f54db",
                "patient": {
                    "reference": "Patient/5002eb07-c460-7112-6574-50303ae3b4a6"
                }
            },
            "request": {
                "method": "PUT",
                "url": "RelatedPerson/dae6a309-01ef-2aae-bb5d-7a99f74f54db"
            }
        }
    ]
}