{
  "resourceType": "Bundle",
  "type": "batch",
  "entry": [
    {
      "fullUrl": "urn:uuid:e624a34c-cf0e-4048-aec5-fbd1f7a8f591",
      "resource": {
        "resourceType": "Composition",
        "id": "e624a34c-cf0e-4048-aec5-fbd1f7a8f591",
        "identifier": {
          "use": "official",
          "value": "2.16.840.1.113883.19.5.99999.1"
        },
        "status": "final",
        "type": {
          "coding": [
            {
              "code": "34133-9",
              "display": "Summarization of Episode Note",
              "system": "http://loinc.org"
            }
          ]
        },
        "date": "2015-07-22T18:00:00-05:00",
        "title": "170.315_b1_toc_gold_sample2 test data",
        "confidentiality": "N",
        "attester": [
          {
            "mode": "legal",
            "time": "2015-07-22",
            "party": {
              "reference": "Practitioner/94866a00-1f48-91e8-9327-cc1da205e69b"
            }
          }
        ],
        "event": [
          {
            "period": {
              "start": "2015-07-22T18:00:00-05:00",
              "end": "2015-07-22T23:00:00-05:00"
            }
          }
        ],
        "section": [
          {
            "title": "ALLERGIES AND ADVERSE REACTIONS",
            "text": {
              "status": "generated",
              "div": "<div xmlns=\"http://www.w3.org/1999/xhtml\">ALLERGIES AND ADVERSE REACTIONS</div>"
            },
            "code": {
              "coding": [
                {
                  "code": "48765-2",
                  "system": "http://loinc.org"
                }
              ]
            },
            "mode": "snapshot"
          },
          {
            "title": "MEDICATIONS",
            "text": {
              "status": "generated",
              "div": "<div xmlns=\"http://www.w3.org/1999/xhtml\">MEDICATIONS</div>"
            },
            "code": {
              "coding": [
                {
                  "code": "10160-0",
                  "display": "HISTORY OF MEDICATION USE",
                  "system": "http://loinc.org"
                }
              ]
            },
            "mode": "snapshot"
          },
          {
            "title": "Admission Medications",
            "text": {
              "status": "generated",
              "div": "<div xmlns=\"http://www.w3.org/1999/xhtml\">Admission Medications</div>"
            },
            "code": {
              "coding": [
                {
                  "code": "42346-7",
                  "display": "MEDICATIONS ON ADMISSION",
                  "system": "http://loinc.org"
                }
              ]
            },
            "mode": "snapshot"
          },
          {
            "title": "Discharge Medications",
            "text": {
              "status": "generated",
              "div": "<div xmlns=\"http://www.w3.org/1999/xhtml\">Discharge Medications</div>"
            },
            "code": {
              "coding": [
                {
                  "code": "10183-2",
                  "display": "Hospital Discharge Medications",
                  "system": "http://loinc.org"
                }
              ]
            },
            "mode": "snapshot"
          },
          {
            "title": "Problem List",
            "text": {
              "status": "generated",
              "div": "<div xmlns=\"http://www.w3.org/1999/xhtml\">Problem List</div>"
            },
            "code": {
              "coding": [
                {
                  "code": "11450-4",
                  "display": "Problem List",
                  "system": "http://loinc.org"
                }
              ]
            },
            "mode": "snapshot"
          },
          {
            "title": "ENCOUNTERS",
            "text": {
              "status": "generated",
              "div": "<div xmlns=\"http://www.w3.org/1999/xhtml\">ENCOUNTERS</div>"
            },
            "code": {
              "coding": [
                {
                  "code": "46240-8",
                  "display": "History of encounters",
                  "system": "http://loinc.org"
                }
              ]
            },
            "mode": "snapshot"
          },
          {
            "title": "Procedures",
            "text": {
              "status": "generated",
              "div": "<div xmlns=\"http://www.w3.org/1999/xhtml\">Procedures</div>"
            },
            "code": {
              "coding": [
                {
                  "code": "47519-4",
                  "display": "PROCEDURES",
                  "system": "http://loinc.org"
                }
              ]
            },
            "mode": "snapshot"
          },
          {
            "title": "MEDICAL EQUIPMENT",
            "text": {
              "status": "generated",
              "div": "<div xmlns=\"http://www.w3.org/1999/xhtml\">MEDICAL EQUIPMENT</div>"
            },
            "code": {
              "coding": [
                {
                  "code": "46264-8",
                  "system": "http://loinc.org"
                }
              ]
            },
            "mode": "snapshot"
          },
          {
            "title": "IMMUNIZATIONS",
            "text": {
              "status": "generated",
              "div": "<div xmlns=\"http://www.w3.org/1999/xhtml\">IMMUNIZATIONS</div>"
            },
            "code": {
              "coding": [
                {
                  "code": "11369-6",
                  "display": "History of immunizations",
                  "system": "http://loinc.org"
                }
              ]
            },
            "mode": "snapshot"
          },
          {
            "title": "VITAL SIGNS",
            "text": {
              "status": "generated",
              "div": "<div xmlns=\"http://www.w3.org/1999/xhtml\">VITAL SIGNS</div>"
            },
            "code": {
              "coding": [
                {
                  "code": "8716-3",
                  "display": "VITAL SIGNS",
                  "system": "http://loinc.org"
                }
              ]
            },
            "mode": "snapshot"
          },
          {
            "title": "SOCIAL HISTORY",
            "text": {
              "status": "generated",
              "div": "<div xmlns=\"http://www.w3.org/1999/xhtml\">SOCIAL HISTORY</div>"
            },
            "code": {
              "coding": [
                {
                  "code": "29762-2",
                  "display": "Social History",
                  "system": "http://loinc.org"
                }
              ]
            },
            "mode": "snapshot"
          },
          {
            "title": "RESULTS",
            "text": {
              "status": "generated",
              "div": "<div xmlns=\"http://www.w3.org/1999/xhtml\">RESULTS</div>"
            },
            "code": {
              "coding": [
                {
                  "code": "30954-2",
                  "display": "RESULTS",
                  "system": "http://loinc.org"
                }
              ]
            },
            "mode": "snapshot"
          },
          {
            "title": "ASSESSMENTS",
            "text": {
              "status": "generated",
              "div": "<div xmlns=\"http://www.w3.org/1999/xhtml\">ASSESSMENTS</div>"
            },
            "code": {
              "coding": [
                {
                  "code": "51848-0",
                  "display": "ASSESSMENTS",
                  "system": "http://loinc.org"
                }
              ]
            },
            "mode": "snapshot"
          },
          {
            "title": "TREATMENT PLAN",
            "text": {
              "status": "generated",
              "div": "<div xmlns=\"http://www.w3.org/1999/xhtml\">TREATMENT PLAN</div>"
            },
            "code": {
              "coding": [
                {
                  "code": "18776-5",
                  "display": "Treatment plan",
                  "system": "http://loinc.org"
                }
              ]
            },
            "mode": "snapshot"
          },
          {
            "title": "Goals Section",
            "text": {
              "status": "generated",
              "div": "<div xmlns=\"http://www.w3.org/1999/xhtml\">Goals Section</div>"
            },
            "code": {
              "coding": [
                {
                  "code": "61146-7",
                  "display": "Goals",
                  "system": "http://loinc.org"
                }
              ]
            },
            "mode": "snapshot"
          },
          {
            "title": "Health Concerns",
            "text": {
              "status": "generated",
              "div": "<div xmlns=\"http://www.w3.org/1999/xhtml\">Health Concerns</div>"
            },
            "code": {
              "coding": [
                {
                  "code": "75310-3",
                  "display": "Health Concerns Document",
                  "system": "http://loinc.org"
                }
              ]
            },
            "mode": "snapshot"
          },
          {
            "title": "HOSPITAL DISCHARGE INSTRUCTIONS",
            "text": {
              "status": "generated",
              "div": "<div xmlns=\"http://www.w3.org/1999/xhtml\">HOSPITAL DISCHARGE INSTRUCTIONS</div>"
            },
            "code": {
              "coding": [
                {
                  "code": "8653-8",
                  "display": "HOSPITAL DISCHARGE INSTRUCTIONS",
                  "system": "http://loinc.org"
                }
              ]
            },
            "mode": "snapshot"
          },
          {
            "title": "MENTAL STATUS",
            "text": {
              "status": "generated",
              "div": "<div xmlns=\"http://www.w3.org/1999/xhtml\">MENTAL STATUS</div>"
            },
            "code": {
              "coding": [
                {
                  "code": "10190-7",
                  "display": "MENTAL STATUS",
                  "system": "http://loinc.org"
                }
              ]
            },
            "mode": "snapshot"
          },
          {
            "title": "FUNCTIONAL STATUS",
            "text": {
              "status": "generated",
              "div": "<div xmlns=\"http://www.w3.org/1999/xhtml\">FUNCTIONAL STATUS</div>"
            },
            "code": {
              "coding": [
                {
                  "code": "47420-5",
                  "display": "Functional Status",
                  "system": "http://loinc.org"
                }
              ]
            },
            "mode": "snapshot"
          },
          {
            "title": "Interventions Section",
            "text": {
              "status": "generated",
              "div": "<div xmlns=\"http://www.w3.org/1999/xhtml\">Interventions Section</div>"
            },
            "code": {
              "coding": [
                {
                  "code": "62387-6",
                  "display": "Interventions Provided",
                  "system": "http://loinc.org"
                }
              ]
            },
            "mode": "snapshot"
          }
        ],
        "subject": {
          "reference": "Patient/89236d99-8509-7d3a-9dfb-a82c6b81d268"
        },
        "encounter": {
          "reference": "Encounter/b6f5ed56-7748-00d5-9ceb-39811c553b86"
        },
        "custodian": {
          "reference": "Organization/60584e77-f1e2-7864-31ce-931c9781c1dc"
        },
        "author": [
          {
            "reference": "Practitioner/c90aeaec-bb03-beee-f30a-9397bf62eb93"
          }
        ]
      },
      "request": {
        "method": "PUT",
        "url": "Composition/e624a34c-cf0e-4048-aec5-fbd1f7a8f591"
      }
    },
    {
      "fullUrl": "urn:uuid:94866a00-1f48-91e8-9327-cc1da205e69b",
      "resource": {
        "resourceType": "Practitioner",
        "id": "94866a00-1f48-91e8-9327-cc1da205e69b",
        "meta": {
          "profile": [
            "http://hl7.org/fhir/us/core/StructureDefinition/us-core-practitioner"
          ]
        },
        "identifier": [
          {
            "system": "http://hl7.org/fhir/sid/us-npi",
            "value": "999998899"
          }
        ],
        "name": [
          {
            "family": "Seven",
            "given": [
              "Henry"
            ],
            "prefix": [
              "Dr"
            ]
          }
        ],
        "address": [
          {
            "line": [
              "1002 Healthcare Dr"
            ],
            "city": "Portland",
            "state": "OR",
            "country": "US",
            "postalCode": "97266"
          }
        ],
        "telecom": [
          {
            "system": "phone",
            "value": "+1(555)-555-1002",
            "use": "work"
          }
        ]
      },
      "request": {
        "method": "PUT",
        "url": "Practitioner/94866a00-1f48-91e8-9327-cc1da205e69b"
      }
    },
    {
      "fullUrl": "urn:uuid:b6f5ed56-7748-00d5-9ceb-39811c553b86",
      "resource": {
        "resourceType": "Encounter",
        "id": "b6f5ed56-7748-00d5-9ceb-39811c553b86",
        "status": "unknown",
        "identifier": [
          {
            "system": "urn:oid:2.16.840.1.113883.19",
            "value": "9937012"
          }
        ],
        "period": {
          "start": "2015-07-22T18:00:00-05:00",
          "end": "2015-07-22T23:00:00-05:00"
        }
      },
      "request": {
        "method": "PUT",
        "url": "Encounter/b6f5ed56-7748-00d5-9ceb-39811c553b86"
      }
    },
    {
      "fullUrl": "urn:uuid:60584e77-f1e2-7864-31ce-931c9781c1dc",
      "resource": {
        "resourceType": "Organization",
        "id": "60584e77-f1e2-7864-31ce-931c9781c1dc",
        "identifier": [
          {
            "system": "http://hl7.org/fhir/sid/us-npi",
            "value": "99998899"
          }
        ],
        "name": "Community Health and Hospitals",
        "address": [
          {
            "line": [
              "1002 Healthcare Dr"
            ],
            "city": "Portland",
            "state": "OR",
            "country": "US",
            "postalCode": "97266"
          }
        ],
        "telecom": [
          {
            "system": "phone",
            "value": "+1(555)-555-5000",
            "use": "work"
          }
        ]
      },
      "request": {
        "method": "PUT",
        "url": "Organization/60584e77-f1e2-7864-31ce-931c9781c1dc"
      }
    },
    {
      "fullUrl": "urn:uuid:c90aeaec-bb03-beee-f30a-9397bf62eb93",
      "resource": {
        "resourceType": "Practitioner",
        "id": "c90aeaec-bb03-beee-f30a-9397bf62eb93",
        "meta": {
          "profile": [
            "http://hl7.org/fhir/us/core/StructureDefinition/us-core-practitioner"
          ]
        },
        "identifier": [
          {
            "system": "http://hl7.org/fhir/sid/us-npi",
            "value": "111111"
          }
        ],
        "name": [
          {
            "family": "Seven",
            "given": [
              "Henry"
            ],
            "prefix": [
              "Dr"
            ]
          }
        ],
        "address": [
          {
            "line": [
              "1002 Healthcare Dr"
            ],
            "city": "Portland",
            "state": "OR",
            "country": "US",
            "postalCode": "97266"
          }
        ],
        "telecom": [
          {
            "system": "phone",
            "value": "+1(555)-555-1002",
            "use": "work"
          }
        ],
        "qualification": [
          {
            "code": {
              "coding": [
                {
                  "code": "281P00000X",
                  "display": "Chronic Disease Hospital",
                  "system": "http://nucc.org/provider-taxonomy"
                }
              ]
            }
          }
        ]
      },
      "request": {
        "method": "PUT",
        "url": "Practitioner/c90aeaec-bb03-beee-f30a-9397bf62eb93"
      }
    },
    {
      "fullUrl": "urn:uuid:89236d99-8509-7d3a-9dfb-a82c6b81d268",
      "resource": {
        "resourceType": "Patient",
        "id": "89236d99-8509-7d3a-9dfb-a82c6b81d268",
        "meta": {
          "profile": [
            "http://hl7.org/fhir/us/core/StructureDefinition/us-core-patient"
          ]
        },
        "identifier": [
          {
            "system": "http://hl7.org/fhir/sid/us-ssn",
            "value": "414122222"
          }
        ],
        "name": [
          {
            "use": "usual",
            "family": "Maur",
            "given": [
              "Richard"
            ],
            "suffix": [
              "jr"
            ]
          }
        ],
        "birthDate": "1980-08-01",
        "gender": "male",
        "extension": [
          {
            "url": "http://hl7.org/fhir/us/core/StructureDefinition/us-core-race",
            "extension": [
              {
                "url": "ombCategory",
                "valueCoding": {
                  "system": "http://terminology.hl7.org/CodeSystem/v3-NullFlavor",
                  "code": "UNK",
                  "display": "Unknown"
                }
              },
              {
                "url": "ombCategory",
                "valueCoding": {
                  "system": "http://terminology.hl7.org/CodeSystem/v3-NullFlavor",
                  "code": "UNK",
                  "display": "Unknown"
                }
              },
              {
                "url": "text",
                "valueString": "Mixed"
              }
            ]
          },
          {
            "url": "http://hl7.org/fhir/us/core/StructureDefinition/us-core-ethnicity",
            "extension": [
              {
                "url": "ombCategory",
                "valueCoding": {
                  "system": "http://terminology.hl7.org/CodeSystem/v3-NullFlavor",
                  "code": "UNK",
                  "display": "Unknown"
                }
              },
              {
                "url": "text",
                "valueString": "Unknown"
              }
            ]
          }
        ],
        "address": [
          {
            "use": "home",
            "line": [
              "1357 Amber Dr"
            ],
            "city": "Beaverton",
            "state": "OR",
            "country": "US",
            "postalCode": "97006"
          }
        ],
        "telecom": [
          {
            "system": "phone",
            "value": "+1(555)-777-1234",
            "use": "mobile"
          },
          {
            "system": "phone",
            "value": "+1(555)-723-1544",
            "use": "home"
          }
        ],
        "communication": [
          {
            "language": {
              "coding": [
                {
                  "system": "urn:ietf:bcp:47",
                  "code": "en",
                  "display": "English"
                }
              ]
            },
            "preferred": true
          }
        ]
      },
      "request": {
        "method": "PUT",
        "url": "Patient/89236d99-8509-7d3a-9dfb-a82c6b81d268"
      }
    },
    {
      "fullUrl": "urn:uuid:9c900362-80a3-a844-0d6b-f34fcf42701a",
      "resource": {
        "resourceType": "AllergyIntolerance",
        "id": "9c900362-80a3-a844-0d6b-f34fcf42701a",
        "identifier": [
          {
            "system": "urn:ietf:rfc:3986",
            "value": "urn:uuid:4adc1020-7b16-11db-9fe1-0832200c9a66"
          }
        ],
        "clinicalStatus": {
          "coding": [
            {
              "system": "http://terminology.hl7.org/CodeSystem/allergyintolerance-clinical",
              "code": "active"
            }
          ]
        },
        "patient": {
          "reference": "Patient/89236d99-8509-7d3a-9dfb-a82c6b81d268"
        }
      },
      "request": {
        "method": "PUT",
        "url": "AllergyIntolerance/9c900362-80a3-a844-0d6b-f34fcf42701a"
      }
    },
    {
      "fullUrl": "urn:uuid:e8591e1e-9293-353e-29a2-f44b39769de1",
      "resource": {
        "resourceType": "MedicationStatement",
        "id": "e8591e1e-9293-353e-29a2-f44b39769de1",
        "identifier": [
          {
            "system": "urn:ietf:rfc:3986",
            "value": "urn:uuid:cdbd33f0-6cde-11db-9fe1-0833200c9a66"
          }
        ],
        "subject": {
          "reference": "Patient/89236d99-8509-7d3a-9dfb-a82c6b81d268"
        },
        "medicationReference": {
          "reference": "Medication/45ca540d-7e15-d7a9-7158-7426191f7a72"
        }
      },
      "request": {
        "method": "PUT",
        "url": "MedicationStatement/e8591e1e-9293-353e-29a2-f44b39769de1"
      }
    },
    {
      "fullUrl": "urn:uuid:45ca540d-7e15-d7a9-7158-7426191f7a72",
      "resource": {
        "resourceType": "Medication",
        "id": "45ca540d-7e15-d7a9-7158-7426191f7a72",
        "code": {
          "coding": [
            {
              "code": "410942007",
              "display": "drug or medication",
              "system": "http://snomed.info/sct"
            }
          ]
        }
      },
      "request": {
        "method": "PUT",
        "url": "Medication/45ca540d-7e15-d7a9-7158-7426191f7a72"
      }
    },
    {
      "fullUrl": "urn:uuid:bdb42bc4-9434-2918-b221-d2c48e38d0fd",
      "resource": {
        "resourceType": "Condition",
        "id": "bdb42bc4-9434-2918-b221-d2c48e38d0fd",
        "identifier": [
          {
            "system": "urn:ietf:rfc:3986",
            "value": "urn:uuid:ac416033-3cc1-4485-ab31-36ce7669f55c"
          }
        ],
        "code": {
          "coding": [
            {
              "code": "V49.75",
              "display": "Below Knee Amputation Status",
              "system": "urn:oid:2.16.840.1.113883.6.103"
            }
          ]
        },
        "onsetDateTime": "2014-04-02",
        "subject": {
          "reference": "Patient/89236d99-8509-7d3a-9dfb-a82c6b81d268"
        }
      },
      "request": {
        "method": "PUT",
        "url": "Condition/bdb42bc4-9434-2918-b221-d2c48e38d0fd"
      }
    },
    {
      "fullUrl": "urn:uuid:36152b51-4a31-ac78-9cf4-9d43d753958f",
      "resource": {
        "resourceType": "Condition",
        "id": "36152b51-4a31-ac78-9cf4-9d43d753958f",
        "identifier": [
          {
            "system": "urn:ietf:rfc:3986",
            "value": "urn:uuid:35e97377-b63b-4e6a-a53e-9cfb016bea0b"
          }
        ],
        "code": {
          "coding": [
            {
              "code": "385093006",
              "display": "Community Acquired Pneumonia",
              "system": "http://snomed.info/sct"
            }
          ]
        },
        "onsetDateTime": "2014-02-27",
        "subject": {
          "reference": "Patient/89236d99-8509-7d3a-9dfb-a82c6b81d268"
        }
      },
      "request": {
        "method": "PUT",
        "url": "Condition/36152b51-4a31-ac78-9cf4-9d43d753958f"
      }
    },
    {
      "fullUrl": "urn:uuid:40cb878b-47bb-2e9c-f66c-5726090e2d5a",
      "resource": {
        "resourceType": "DocumentReference",
        "id": "40cb878b-47bb-2e9c-f66c-5726090e2d5a",
        "type": {
          "coding": [
            {
              "code": "34133-9",
              "display": "Summarization of Episode Note",
              "system": "http://loinc.org"
            }
          ]
        },
        "date": "2024-10-31T15:05:06.309Z",
        "status": "current",
        "content": [
          {
            "attachment": {
              "contentType": "text/plain",
              "data": "",
              "hash": "YzQ3Y2NmMDFhMDVmYWJlMzlhZTkwMGU0NTVkZDIxZTYwY2EwNzBkYw=="
            }
          }
        ]
      },
      "request": {
        "method": "PUT",
        "url": "DocumentReference/40cb878b-47bb-2e9c-f66c-5726090e2d5a"
      }
    }
  ]
}