{
  "resourceType": "Bundle",
  "type": "batch",
  "entry": [
    {
      "fullUrl": "urn:uuid:3f7f06f6-eacb-9d39-c038-daf818559293",
      "resource": {
        "resourceType": "Composition",
        "id": "3f7f06f6-eacb-9d39-c038-daf818559293",
        "identifier": {
          "use": "official",
          "value": "2.16.840.1.113883.19"
        },
        "status": "final",
        "type": {
          "coding": [
            {
              "code": "11506-3",
              "display": "Subsequent evaluation note",
              "system": "http://loinc.org"
            }
          ]
        },
        "date": "2005-03-30T06:15:04+08:00",
        "title": "Progress Note",
        "confidentiality": "N",
        "attester": [
          {
            "mode": "legal",
            "time": "2005-03-30T11:44:11+08:00",
            "party": {
              "reference": "Practitioner/9a8ec740-4376-d542-141b-0984f6622a4e"
            }
          }
        ],
        "event": [
          {
            "period": {
              "start": "2010-06-01"
            }
          }
        ],
        "section": [
          {
            "title": "ALLERGIES AND ADVERSE REACTIONS",
            "text": {
              "status": "generated",
              "div": "<div xmlns=\"http://www.w3.org/1999/xhtml\">ALLERGIES AND ADVERSE REACTIONS</div>"
            },
            "code": {
              "coding": [
                {
                  "code": "48765-2",
                  "system": "http://loinc.org"
                }
              ]
            },
            "mode": "snapshot"
          },
          {
            "title": "ASSESSMENT",
            "text": {
              "status": "generated",
              "div": "<div xmlns=\"http://www.w3.org/1999/xhtml\">ASSESSMENT</div>"
            },
            "code": {
              "coding": [
                {
                  "code": "51848-0",
                  "display": "ASSESSMENT",
                  "system": "http://loinc.org"
                }
              ]
            },
            "mode": "snapshot"
          },
          {
            "title": "CHIEF COMPLAINT",
            "text": {
              "status": "generated",
              "div": "<div xmlns=\"http://www.w3.org/1999/xhtml\">CHIEF COMPLAINT</div>"
            },
            "code": {
              "coding": [
                {
                  "code": "10154-3",
                  "display": "CHIEF COMPLAINT",
                  "system": "http://loinc.org"
                }
              ]
            },
            "mode": "snapshot"
          },
          {
            "title": "MEDICATIONS",
            "text": {
              "status": "generated",
              "div": "<div xmlns=\"http://www.w3.org/1999/xhtml\">MEDICATIONS</div>"
            },
            "code": {
              "coding": [
                {
                  "code": "10160-0",
                  "display": "HISTORY OF MEDICATION USE",
                  "system": "http://loinc.org"
                }
              ]
            },
            "mode": "snapshot"
          },
          {
            "title": "OBJECTIVE DATA",
            "text": {
              "status": "generated",
              "div": "<div xmlns=\"http://www.w3.org/1999/xhtml\">OBJECTIVE DATA</div>"
            },
            "code": {
              "coding": [
                {
                  "code": "61149-1",
                  "display": "OBJECTIVE DATA ",
                  "system": "http://loinc.org"
                }
              ]
            },
            "mode": "snapshot"
          },
          {
            "title": "PHYSICAL EXAMINATION",
            "text": {
              "status": "generated",
              "div": "<div xmlns=\"http://www.w3.org/1999/xhtml\">PHYSICAL EXAMINATION</div>"
            },
            "code": {
              "coding": [
                {
                  "code": "29545-1",
                  "display": "PHYSICAL FINDINGS",
                  "system": "http://loinc.org"
                }
              ]
            },
            "mode": "snapshot"
          },
          {
            "title": "TREATMENT PLAN",
            "text": {
              "status": "generated",
              "div": "<div xmlns=\"http://www.w3.org/1999/xhtml\">TREATMENT PLAN</div>"
            },
            "code": {
              "coding": [
                {
                  "code": "18776-5",
                  "display": "Treatment plan",
                  "system": "http://loinc.org"
                }
              ]
            },
            "mode": "snapshot"
          },
          {
            "title": "PROBLEMS",
            "text": {
              "status": "generated",
              "div": "<div xmlns=\"http://www.w3.org/1999/xhtml\">PROBLEMS</div>"
            },
            "code": {
              "coding": [
                {
                  "code": "11450-4",
                  "display": "PROBLEM LIST",
                  "system": "http://loinc.org"
                }
              ]
            },
            "mode": "snapshot"
          },
          {
            "title": "RESULTS",
            "text": {
              "status": "generated",
              "div": "<div xmlns=\"http://www.w3.org/1999/xhtml\">RESULTS</div>"
            },
            "code": {
              "coding": [
                {
                  "code": "30954-2",
                  "display": "RESULTS",
                  "system": "http://loinc.org"
                }
              ]
            },
            "mode": "snapshot"
          },
          {
            "title": "REVIEW OF SYSTEMS",
            "text": {
              "status": "generated",
              "div": "<div xmlns=\"http://www.w3.org/1999/xhtml\">REVIEW OF SYSTEMS</div>"
            },
            "code": {
              "coding": [
                {
                  "code": "10187-3",
                  "display": "REVIEW OF SYSTEMS",
                  "system": "http://loinc.org"
                }
              ]
            },
            "mode": "snapshot"
          },
          {
            "title": "SUBJECTIVE DATA",
            "text": {
              "status": "generated",
              "div": "<div xmlns=\"http://www.w3.org/1999/xhtml\">SUBJECTIVE DATA</div>"
            },
            "code": {
              "coding": [
                {
                  "code": "61150-9",
                  "display": "SUBJECTIVE",
                  "system": "http://loinc.org"
                }
              ]
            },
            "mode": "snapshot"
          },
          {
            "title": "VITAL SIGNS",
            "text": {
              "status": "generated",
              "div": "<div xmlns=\"http://www.w3.org/1999/xhtml\">VITAL SIGNS</div>"
            },
            "code": {
              "coding": [
                {
                  "code": "8716-3",
                  "display": "VITAL SIGNS",
                  "system": "http://loinc.org"
                }
              ]
            },
            "mode": "snapshot"
          }
        ],
        "subject": {
          "reference": "Patient/a5e07268-e082-3212-493e-e68dd1d17d95"
        },
        "encounter": {
          "reference": "Encounter/71737d8f-64bf-b60c-2714-c1f217c9d101"
        },
        "custodian": {
          "reference": "Organization/93f37570-5790-ddaa-f614-1a827f39d4ce"
        },
        "author": [
          {
            "reference": "Practitioner/e1ba9b33-b82e-7558-1732-131914e8e2cc"
          }
        ]
      },
      "request": {
        "method": "PUT",
        "url": "Composition/3f7f06f6-eacb-9d39-c038-daf818559293"
      }
    },
    {
      "fullUrl": "urn:uuid:9a8ec740-4376-d542-141b-0984f6622a4e",
      "resource": {
        "resourceType": "Practitioner",
        "id": "9a8ec740-4376-d542-141b-0984f6622a4e",
        "meta": {
          "profile": [
            "http://hl7.org/fhir/us/core/StructureDefinition/us-core-practitioner"
          ]
        },
        "identifier": [
          {
            "system": "urn:oid:2.16.840.1.113883.19",
            "value": "KP00017"
          }
        ],
        "name": [
          {
            "family": "Seven",
            "given": [
              "Henry"
            ]
          }
        ],
        "address": [
          {
            "line": [
              "21 North Ave."
            ],
            "city": "Burlington",
            "state": "MA",
            "country": "USA",
            "postalCode": "02368"
          }
        ],
        "telecom": [
          {
            "system": "phone",
            "value": "(555)555-1003",
            "use": "work"
          }
        ]
      },
      "request": {
        "method": "PUT",
        "url": "Practitioner/9a8ec740-4376-d542-141b-0984f6622a4e"
      }
    },
    {
      "fullUrl": "urn:uuid:71737d8f-64bf-b60c-2714-c1f217c9d101",
      "resource": {
        "resourceType": "Encounter",
        "id": "71737d8f-64bf-b60c-2714-c1f217c9d101",
        "status": "unknown",
        "class": {
          "code": "99213",
          "display": "Evaluation and Management",
          "system": "urn:oid:2.16.840.1.113883.6.12"
        },
        "type": [
          {
            "coding": [
              {
                "code": "99213",
                "display": "Evaluation and Management",
                "system": "urn:oid:2.16.840.1.113883.6.12"
              }
            ]
          }
        ],
        "identifier": [
          {
            "system": "urn:oid:2.16.840.1.113883.19",
            "value": "9937012"
          }
        ],
        "period": {
          "start": "2005-03-29",
          "end": "2005-03-29"
        },
        "location": [
          {
            "location": {
              "reference": "Location/6dfdc7c6-e225-71eb-cec1-75870e529061"
            }
          }
        ]
      },
      "request": {
        "method": "PUT",
        "url": "Encounter/71737d8f-64bf-b60c-2714-c1f217c9d101"
      }
    },
    {
      "fullUrl": "urn:uuid:6dfdc7c6-e225-71eb-cec1-75870e529061",
      "resource": {
        "resourceType": "Location",
        "id": "6dfdc7c6-e225-71eb-cec1-75870e529061"
      },
      "request": {
        "method": "PUT",
        "url": "Location/6dfdc7c6-e225-71eb-cec1-75870e529061"
      }
    },
    {
      "fullUrl": "urn:uuid:93f37570-5790-ddaa-f614-1a827f39d4ce",
      "resource": {
        "resourceType": "Organization",
        "id": "93f37570-5790-ddaa-f614-1a827f39d4ce",
        "identifier": [
          {
            "system": "urn:ietf:rfc:3986",
            "value": "urn:uuid:2.16.840.1.113883.19.5"
          }
        ],
        "name": "Good Health Clinic",
        "address": [
          {
            "use": "work",
            "line": [
              "17 Daws Rd."
            ],
            "city": "Blue Bell",
            "state": "MA",
            "country": "USA",
            "postalCode": "02368"
          }
        ],
        "telecom": [
          {
            "system": "phone",
            "value": "(555)555-1212",
            "use": "work"
          }
        ]
      },
      "request": {
        "method": "PUT",
        "url": "Organization/93f37570-5790-ddaa-f614-1a827f39d4ce"
      }
    },
    {
      "fullUrl": "urn:uuid:e1ba9b33-b82e-7558-1732-131914e8e2cc",
      "resource": {
        "resourceType": "Practitioner",
        "id": "e1ba9b33-b82e-7558-1732-131914e8e2cc",
        "meta": {
          "profile": [
            "http://hl7.org/fhir/us/core/StructureDefinition/us-core-practitioner"
          ]
        },
        "identifier": [
          {
            "system": "urn:oid:2.16.840.1.113883.19.5",
            "value": "KP00017"
          }
        ],
        "name": [
          {
            "family": "Seven",
            "given": [
              "Henry"
            ]
          }
        ],
        "address": [
          {
            "line": [
              "21 North Ave."
            ],
            "city": "Burlington",
            "state": "MA",
            "country": "USA",
            "postalCode": "02368"
          }
        ],
        "telecom": [
          {
            "system": "phone",
            "value": "(555)555-1003",
            "use": "work"
          }
        ]
      },
      "request": {
        "method": "PUT",
        "url": "Practitioner/e1ba9b33-b82e-7558-1732-131914e8e2cc"
      }
    },
    {
      "fullUrl": "urn:uuid:a5e07268-e082-3212-493e-e68dd1d17d95",
      "resource": {
        "resourceType": "Patient",
        "id": "a5e07268-e082-3212-493e-e68dd1d17d95",
        "meta": {
          "profile": [
            "http://hl7.org/fhir/us/core/StructureDefinition/us-core-patient"
          ]
        },
        "identifier": [
          {
            "system": "urn:oid:2.16.840.1.113883.19",
            "value": "12345"
          },
          {
            "system": "http://hl7.org/fhir/sid/us-ssn",
            "value": "111-00-1234"
          }
        ],
        "name": [
          {
            "use": "usual",
            "family": "Everyman",
            "given": [
              "Adam",
              "Frankie"
            ],
            "prefix": [
              "Mr."
            ]
          }
        ],
        "birthDate": "1954-11-25",
        "gender": "male",
        "extension": [
          {
            "url": "http://hl7.org/fhir/us/core/StructureDefinition/us-core-race",
            "extension": [
              {
                "url": "ombCategory",
                "valueCoding": {
                  "code": "2106-3",
                  "display": "White",
                  "system": "urn:oid:2.16.840.1.113883.6.238"
                }
              },
              {
                "url": "text",
                "valueString": "White"
              }
            ]
          },
          {
            "url": "http://hl7.org/fhir/us/core/StructureDefinition/us-core-ethnicity",
            "extension": [
              {
                "url": "ombCategory",
                "valueCoding": {
                  "code": "2186-5",
                  "display": "Not Hispanic or Latino",
                  "system": "urn:oid:2.16.840.1.113883.6.238"
                }
              },
              {
                "url": "text",
                "valueString": "Not Hispanic or Latino"
              }
            ]
          }
        ],
        "address": [
          {
            "use": "home",
            "line": [
              "17 Daws Rd."
            ],
            "city": "Blue Bell",
            "state": "MA",
            "country": "US",
            "postalCode": "02368"
          }
        ],
        "telecom": [
          {
            "system": "phone",
            "value": "(781)555-1212",
            "use": "home"
          }
        ],
        "communication": [
          {
            "language": {
              "coding": [
                {
                  "system": "urn:ietf:bcp:47",
                  "code": "fr-CN",
                  "display": "fr-cn"
                }
              ]
            },
            "preferred": true
          }
        ]
      },
      "request": {
        "method": "PUT",
        "url": "Patient/a5e07268-e082-3212-493e-e68dd1d17d95"
      }
    },
    {
      "fullUrl": "urn:uuid:1aeabd37-80e3-9a71-2e7f-562c94618f14",
      "resource": {
        "resourceType": "RelatedPerson",
        "id": "1aeabd37-80e3-9a71-2e7f-562c94618f14",
        "relationship": [
          {
            "coding": [
              {
                "code": "GRFTH",
                "display": "Grandfather",
                "system": "urn:oid:2.16.840.1.113883.5.111"
              }
            ]
          }
        ],
        "name": [
          {
            "family": "Relative",
            "given": [
              "Ralph"
            ]
          }
        ],
        "telecom": [
          {
            "system": "phone",
            "value": "(781)555-1212",
            "use": "home"
          }
        ],
        "address": [
          {
            "use": "home",
            "line": [
              "17 Daws Rd."
            ],
            "city": "Blue Bell",
            "state": "MA",
            "country": "US",
            "postalCode": "02368"
          }
        ],
        "patient": {
          "reference": "Patient/a5e07268-e082-3212-493e-e68dd1d17d95"
        }
      },
      "request": {
        "method": "PUT",
        "url": "RelatedPerson/1aeabd37-80e3-9a71-2e7f-562c94618f14"
      }
    },
    {
      "fullUrl": "urn:uuid:6631e085-a49b-3068-2571-484601da1028",
      "resource": {
        "resourceType": "DocumentReference",
        "id": "6631e085-a49b-3068-2571-484601da1028",
        "type": {
          "coding": [
            {
              "code": "11506-3",
              "display": "Subsequent evaluation note",
              "system": "http://loinc.org"
            }
          ]
        },
        "date": "2021-05-13T08:27:04.567Z",
        "status": "current",
        "content": [
          {
            "attachment": {
              "contentType": "text/plain",
              "data": "",
              "hash": "NzdiNjE2ZDZmNmFlMDMzYzc0YWUwMzkwZjgwZGZlMDMzNGYyMzg2NA=="
            }
          }
        ]
      },
      "request": {
        "method": "PUT",
        "url": "DocumentReference/6631e085-a49b-3068-2571-484601da1028"
      }
    }
  ]
}