{
    "resourceType": "Bundle",
    "type": "batch",
    "entry": [
        {
            "fullUrl": "urn:uuid:645287b0-0f11-33c8-938a-cca215f7a943",
            "resource": {
                "resourceType": "Composition",
                "id": "645287b0-0f11-33c8-938a-cca215f7a943",
                "identifier": {
                    "use": "official",
                    "value": "TT101"
                },
                "status": "final",
                "type": {
                    "coding": [
                        {
                            "code": "34133-9",
                            "display": "Summarization of Episode Note",
                            "system": "http://loinc.org"
                        }
                    ]
                },
                "date": "2022-10-03T15:27:41.000Z",
                "title": "Data for Alice Newman, starting 10/03/1922, ending 10/03/2022",
                "confidentiality": "N",
                "event": [
                    {
                        "period": {
                            "start": "1922-10-03"
                        }
                    }
                ],
                "section": [
                    {
                        "title": "ALLERGIES AND ADVERSE REACTIONS",
                        "text": {
                            "status": "generated",
                            "div": "<div xmlns=\"http://www.w3.org/1999/xhtml\">ALLERGIES AND ADVERSE REACTIONS</div>"
                        },
                        "code": {
                            "coding": [
                                {
                                    "code": "48765-2",
                                    "display": "Allergies, adverse reactions, alerts",
                                    "system": "http://loinc.org"
                                }
                            ]
                        },
                        "mode": "snapshot",
                        "entry": [
                            {
                                "reference": "AllergyIntolerance/7394ca54-2075-3d73-9937-b5d2c135b607",
                                "display": "Ampicillin"
                            },
                            {
                                "reference": "AllergyIntolerance/6a8b6feb-1234-368b-aef7-085d48daecf9",
                                "display": "Penicillin G benzathine"
                            }
                        ]
                    },
                    {
                        "title": "ASSESSMENTS",
                        "text": {
                            "status": "generated",
                            "div": "<div xmlns=\"http://www.w3.org/1999/xhtml\">ASSESSMENTS</div>"
                        },
                        "code": {
                            "coding": [
                                {
                                    "code": "51848-0",
                                    "display": "Assessments",
                                    "system": "http://loinc.org"
                                }
                            ]
                        },
                        "mode": "snapshot"
                    },
                    {
                        "title": "ENCOUNTERS",
                        "text": {
                            "status": "generated",
                            "div": "<div xmlns=\"http://www.w3.org/1999/xhtml\">ENCOUNTERS</div>"
                        },
                        "code": {
                            "coding": [
                                {
                                    "code": "46240-8",
                                    "display": "Encounters",
                                    "system": "http://loinc.org"
                                }
                            ]
                        },
                        "mode": "snapshot",
                        "entry": [
                            {
                                "reference": "Encounter/374b4995-0dd7-37af-b915-38bec3e0337b"
                            }
                        ]
                    },
                    {
                        "title": "Functional Status",
                        "text": {
                            "status": "generated",
                            "div": "<div xmlns=\"http://www.w3.org/1999/xhtml\">Functional Status</div>"
                        },
                        "code": {
                            "coding": [
                                {
                                    "code": "47420-5",
                                    "display": "Functional Status",
                                    "system": "http://loinc.org"
                                }
                            ]
                        },
                        "mode": "snapshot"
                    },
                    {
                        "title": "Goal Section",
                        "text": {
                            "status": "generated",
                            "div": "<div xmlns=\"http://www.w3.org/1999/xhtml\">Goal Section</div>"
                        },
                        "code": {
                            "coding": [
                                {
                                    "code": "61146-7",
                                    "display": "Goals",
                                    "system": "http://loinc.org"
                                }
                            ]
                        },
                        "mode": "snapshot"
                    },
                    {
                        "title": "Health Concerns Section",
                        "text": {
                            "status": "generated",
                            "div": "<div xmlns=\"http://www.w3.org/1999/xhtml\">Health Concerns Section</div>"
                        },
                        "code": {
                            "coding": [
                                {
                                    "code": "75310-3",
                                    "display": "Health Concerns Document",
                                    "system": "http://loinc.org"
                                }
                            ]
                        },
                        "mode": "snapshot"
                    },
                    {
                        "title": "IMMUNIZATIONS",
                        "text": {
                            "status": "generated",
                            "div": "<div xmlns=\"http://www.w3.org/1999/xhtml\">IMMUNIZATIONS</div>"
                        },
                        "code": {
                            "coding": [
                                {
                                    "code": "11369-6",
                                    "display": "Immunizations",
                                    "system": "http://loinc.org"
                                }
                            ]
                        },
                        "mode": "snapshot",
                        "entry": [
                            {
                                "reference": "Immunization/46e4a369-1a33-3a57-9261-d813cd7d8f8f"
                            },
                            {
                                "reference": "Immunization/ccd2e4b8-c302-383e-8898-d0ec25093125"
                            },
                            {
                                "reference": "Immunization/ae27577a-64d8-3303-967c-9ad58b1cd0fe"
                            }
                        ]
                    },
                    {
                        "title": "Implants",
                        "text": {
                            "status": "generated",
                            "div": "<div xmlns=\"http://www.w3.org/1999/xhtml\">Implants</div>"
                        },
                        "code": {
                            "coding": [
                                {
                                    "code": "46264-8",
                                    "display": "Medical Equipment",
                                    "system": "http://loinc.org"
                                }
                            ]
                        },
                        "mode": "snapshot",
                        "entry": [
                            {
                                "reference": "Device/e5ce5c69-43e5-38ee-89bb-ec0e53496856"
                            }
                        ]
                    },
                    {
                        "title": "MEDICATIONS",
                        "text": {
                            "status": "generated",
                            "div": "<div xmlns=\"http://www.w3.org/1999/xhtml\">MEDICATIONS</div>"
                        },
                        "code": {
                            "coding": [
                                {
                                    "code": "10160-0",
                                    "display": "History of medication use",
                                    "system": "http://loinc.org"
                                }
                            ]
                        },
                        "mode": "snapshot",
                        "entry": [
                            {
                                "reference": "MedicationStatement/6a6c5ae4-74d0-35ec-91ff-bd6329c876da"
                            },
                            {
                                "reference": "MedicationStatement/3ad16cd5-8dd5-3e7e-84ed-edc8a13dd3a1"
                            },
                            {
                                "reference": "MedicationStatement/63989661-8fd4-3450-b6ed-a3617c48a0e9"
                            },
                            {
                                "reference": "MedicationStatement/c9a2a0c0-8b06-3d17-bc1b-f66e3ff67fc1"
                            }
                        ]
                    },
                    {
                        "title": "MENTAL STATUS",
                        "text": {
                            "status": "generated",
                            "div": "<div xmlns=\"http://www.w3.org/1999/xhtml\">MENTAL STATUS</div>"
                        },
                        "code": {
                            "coding": [
                                {
                                    "code": "10190-7",
                                    "display": "MENTAL STATUS",
                                    "system": "http://loinc.org"
                                }
                            ]
                        },
                        "mode": "snapshot"
                    },
                    {
                        "title": "Plan of Treatment",
                        "text": {
                            "status": "generated",
                            "div": "<div xmlns=\"http://www.w3.org/1999/xhtml\">Plan of Treatment</div>"
                        },
                        "code": {
                            "coding": [
                                {
                                    "code": "18776-5",
                                    "display": "Plan of Care",
                                    "system": "http://loinc.org"
                                }
                            ]
                        },
                        "mode": "snapshot",
                        "entry": [
                            {
                                "reference": "CarePlan/178bc0c6-826a-3093-a1e1-c406e57f9613"
                            }
                        ]
                    },
                    {
                        "title": "Problem List",
                        "text": {
                            "status": "generated",
                            "div": "<div xmlns=\"http://www.w3.org/1999/xhtml\">Problem List</div>"
                        },
                        "code": {
                            "coding": [
                                {
                                    "code": "11450-4",
                                    "display": "Problem List",
                                    "system": "http://loinc.org"
                                }
                            ]
                        },
                        "mode": "snapshot",
                        "entry": [
                            {
                                "reference": "Condition/16581aad-3df4-3c80-92f8-f4b125f8fde9"
                            },
                            {
                                "reference": "Condition/5db7bc59-056a-3466-82fd-453e09e62a59"
                            },
                            {
                                "reference": "Condition/ebef8def-a2ba-307a-80d5-2609ec4f3299"
                            },
                            {
                                "reference": "Condition/30e61d6f-63ac-3b6c-8ea0-f81b61825fcf"
                            },
                            {
                                "reference": "Condition/1d726825-c998-396e-80d8-7f7867bbc0fb"
                            }
                        ]
                    },
                    {
                        "title": "PROCEDURES",
                        "text": {
                            "status": "generated",
                            "div": "<div xmlns=\"http://www.w3.org/1999/xhtml\">PROCEDURES</div>"
                        },
                        "code": {
                            "coding": [
                                {
                                    "code": "47519-4",
                                    "display": "History of Procedures",
                                    "system": "http://loinc.org"
                                }
                            ]
                        },
                        "mode": "snapshot",
                        "entry": [
                            {
                                "reference": "Procedure/d2e2dde3-6720-31e7-b5b3-e55ea84e9afd"
                            },
                            {
                                "reference": "Procedure/c00837f0-22d5-300c-b93b-0ffc0a4e6d36"
                            }
                        ]
                    },
                    {
                        "title": "Results",
                        "text": {
                            "status": "generated",
                            "div": "<div xmlns=\"http://www.w3.org/1999/xhtml\">Results</div>"
                        },
                        "code": {
                            "coding": [
                                {
                                    "code": "30954-2",
                                    "display": "Relevant diagnostic tests and/or laboratory data",
                                    "system": "http://loinc.org"
                                }
                            ]
                        },
                        "mode": "snapshot",
                        "entry": [
                            {
                                "reference": "DiagnosticReport/08373cdd-1970-31bc-9ee0-bf582b81ced4"
                            },
                            {
                                "reference": "DiagnosticReport/26268c8c-ef4e-3502-9421-72f6981327ee"
                            }
                        ]
                    },
                    {
                        "title": "Social History",
                        "text": {
                            "status": "generated",
                            "div": "<div xmlns=\"http://www.w3.org/1999/xhtml\">Social History</div>"
                        },
                        "code": {
                            "coding": [
                                {
                                    "code": "29762-2",
                                    "display": "Social History",
                                    "system": "http://loinc.org"
                                }
                            ]
                        },
                        "mode": "snapshot",
                        "entry": [
                            {
                                "reference": "Observation/b368718c-55df-36bb-9d28-069e32c83207",
                                "display": "Assertion"
                            },
                            {
                                "reference": "Observation/709c0bb8-8f5b-388b-99ea-a64ab5caec1f"
                            },
                            {
                                "reference": "Observation/57b6b838-470d-34ff-8ef0-679a3e40b47e"
                            }
                        ]
                    },
                    {
                        "title": "Vitals",
                        "text": {
                            "status": "generated",
                            "div": "<div xmlns=\"http://www.w3.org/1999/xhtml\">Vitals</div>"
                        },
                        "code": {
                            "coding": [
                                {
                                    "code": "8716-3",
                                    "display": "Vital Signs",
                                    "system": "http://loinc.org"
                                }
                            ]
                        },
                        "mode": "snapshot",
                        "entry": [
                            {
                                "reference": "Observation/7aafd289-1ca6-358f-96aa-3007cd7ecce1",
                                "display": "Inhaled oxygen concentration"
                            },
                            {
                                "reference": "Observation/8484410f-1274-3dbf-9474-1c35a0fa6290",
                                "display": "Blood pressure panel with all children optional"
                            },
                            {
                                "reference": "Observation/26b487e9-f6b3-3ec8-9429-1f9d68191bba",
                                "display": "Body height"
                            },
                            {
                                "reference": "Observation/29df401f-71cd-3db1-ae9d-58ca43179c2d",
                                "display": "Body Temperature"
                            },
                            {
                                "reference": "Observation/9a805705-cc50-33c8-9789-b574f62c1cfc",
                                "display": "Oxygen saturation in Arterial blood by Pulse oximetry"
                            },
                            {
                                "reference": "Observation/e22b2219-7c4e-3b7f-a570-035462be9b4d",
                                "display": "Heart Rate"
                            },
                            {
                                "reference": "Observation/ded9347c-a4f5-349c-86ff-1890b01c02c1",
                                "display": "Respiratory Rate"
                            },
                            {
                                "reference": "Observation/001ad12b-d972-3c32-9dde-d8942c463cf6",
                                "display": "Body weight"
                            },
                            {
                                "reference": "Observation/8195a62a-47de-3058-95dd-46d4b787c505",
                                "display": "Body weight"
                            },
                            {
                                "reference": "Observation/e0728d50-c25e-3924-b6d7-27daa19c85ac",
                                "display": "Blood pressure panel with all children optional"
                            },
                            {
                                "reference": "Observation/ee364c00-e8cc-38f4-a7d5-fb7568d8098f",
                                "display": "Body height"
                            },
                            {
                                "reference": "Observation/b4fbcb97-060f-3d7d-b4b9-bbadf84bcd54",
                                "display": "Blood pressure panel with all children optional"
                            }
                        ]
                    },
                    {
                        "title": "REASON FOR REFERRAL",
                        "text": {
                            "status": "generated",
                            "div": "<div xmlns=\"http://www.w3.org/1999/xhtml\">REASON FOR REFERRAL</div>"
                        },
                        "code": {
                            "coding": [
                                {
                                    "code": "42349-1",
                                    "display": "Reason for Referral",
                                    "system": "http://loinc.org"
                                }
                            ]
                        },
                        "mode": "snapshot"
                    }
                ],
                "subject": {
                    "reference": "Patient/f40da2df-7505-315a-9acb-55513a02c37b"
                },
                "custodian": {
                    "reference": "Organization/3bfc3db2-cf06-379a-88cb-03444c877632"
                },
                "author": [
                    {
                        "reference": "Practitioner/17763d72-7526-32d1-a535-e60859682208"
                    },
                    {
                        "reference": "Practitioner/ead05b2c-8f43-3a9f-946d-1553f5aaa816"
                    }
                ]
            },
            "request": {
                "method": "PUT",
                "url": "Composition/645287b0-0f11-33c8-938a-cca215f7a943"
            }
        },
        {
            "fullUrl": "urn:uuid:3bfc3db2-cf06-379a-88cb-03444c877632",
            "resource": {
                "resourceType": "Organization",
                "id": "3bfc3db2-cf06-379a-88cb-03444c877632",
                "identifier": [
                    {
                        "system": "http://hl7.org/fhir/sid/us-npi",
                        "value": "99999999"
                    }
                ],
                "active": true,
                "name": "Iora Health",
                "address": [
                    {
                        "line": [
                            "101 Tremont Street, 6th Floor"
                        ],
                        "city": "Boston",
                        "state": "MA",
                        "country": "US",
                        "postalCode": "02108"
                    }
                ],
                "telecom": [
                    {
                        "system": "phone",
                        "value": "617-454-4672",
                        "use": "work"
                    }
                ]
            },
            "request": {
                "method": "PUT",
                "url": "Organization/3bfc3db2-cf06-379a-88cb-03444c877632"
            }
        },
        {
            "fullUrl": "urn:uuid:17763d72-7526-32d1-a535-e60859682208",
            "resource": {
                "resourceType": "Practitioner",
                "meta": {
                    "profile": [
                        "http://hl7.org/fhir/us/core/StructureDefinition/us-core-practitioner"
                    ]
                },
                "id": "17763d72-7526-32d1-a535-e60859682208",
                "identifier": [
                    {
                        "system": "http://hl7.org/fhir/sid/us-npi",
                        "value": "99999999"
                    }
                ],
                "name": [
                    {
                        "family": "Davis",
                        "given": [
                            "Albert"
                        ]
                    }
                ],
                "address": [
                    {
                        "line": [
                            "2472, Rocky  place"
                        ],
                        "city": "Beaverton",
                        "state": "OR",
                        "country": "US",
                        "postalCode": "97006"
                    }
                ],
                "telecom": [
                    {
                        "system": "phone",
                        "value": "555-555-1002",
                        "use": "work"
                    }
                ],
                "qualification": [
                    {
                        "code": {
                            "coding": [
                                {
                                    "code": "200000000X",
                                    "display": "Neighborhood Physicians Practice",
                                    "system": "http://nucc.org/provider-taxonomy"
                                }
                            ]
                        }
                    }
                ]
            },
            "request": {
                "method": "PUT",
                "url": "Practitioner/17763d72-7526-32d1-a535-e60859682208"
            }
        },
        {
            "fullUrl": "urn:uuid:604a79b8-d538-3959-a3ef-5ac66ee03e08",
            "resource": {
                "resourceType": "Location",
                "id": "604a79b8-d538-3959-a3ef-5ac66ee03e08",
                "identifier": [
                    {
                        "system": "http://hl7.org/fhir/sid/us-npi",
                        "value": "99999999"
                    }
                ],
                "address": {
                    "line": [
                        "2472, Rocky  place"
                    ],
                    "city": "Beaverton",
                    "state": "OR",
                    "country": "US",
                    "postalCode": "97006"
                },
                "telecom": [
                    {
                        "system": "phone",
                        "value": "555-555-1002",
                        "use": "work"
                    }
                ],
                "type": [
                    {
                        "coding": [
                            {
                                "code": "200000000X",
                                "display": "Neighborhood Physicians Practice",
                                "system": "http://nucc.org/provider-taxonomy"
                            }
                        ]
                    }
                ]
            },
            "request": {
                "method": "PUT",
                "url": "Location/604a79b8-d538-3959-a3ef-5ac66ee03e08"
            }
        },
        {
            "fullUrl": "urn:uuid:ead05b2c-8f43-3a9f-946d-1553f5aaa816",
            "resource": {
                "resourceType": "Practitioner",
                "meta": {
                    "profile": [
                        "http://hl7.org/fhir/us/core/StructureDefinition/us-core-practitioner"
                    ]
                },
                "id": "ead05b2c-8f43-3a9f-946d-1553f5aaa816",
                "identifier": [
                    {
                        "system": "http://hl7.org/fhir/sid/us-npi",
                        "value": "999999943252"
                    }
                ],
                "name": [
                    {
                        "family": "Davis",
                        "given": [
                            "Tracy"
                        ]
                    }
                ],
                "address": [
                    {
                        "line": [
                            "2472, Rocky  place"
                        ],
                        "city": "Beaverton",
                        "state": "OR",
                        "country": "US",
                        "postalCode": "97006"
                    }
                ],
                "telecom": [
                    {
                        "system": "phone",
                        "value": "555-555-1002",
                        "use": "work"
                    }
                ]
            },
            "request": {
                "method": "PUT",
                "url": "Practitioner/ead05b2c-8f43-3a9f-946d-1553f5aaa816"
            }
        },
        {
            "fullUrl": "urn:uuid:f40da2df-7505-315a-9acb-55513a02c37b",
            "resource": {
                "resourceType": "Patient",
                "meta": {
                    "profile": [
                        "http://hl7.org/fhir/us/core/StructureDefinition/us-core-patient"
                    ]
                },
                "id": "f40da2df-7505-315a-9acb-55513a02c37b",
                "identifier": [
                    {
                        "system": "urn:oid:2.16.840.1.113883.19.5.99999.2",
                        "value": "998991"
                    }
                ],
                "name": [
                    {
                        "family": "Newman",
                        "given": [
                            "Alice",
                            "Jones"
                        ],
                        "suffix": [
                            "Jr."
                        ]
                    },
                    {
                        "use": "old",
                        "family": "Newman",
                        "given": [
                            "Alicia",
                            "Jones"
                        ],
                        "suffix": [
                            "Jr."
                        ]
                    }
                ],
                "active": true,
                "birthDate": "1970-05-01",
                "gender": "female",
                "extension": [
                    {
                        "url": "http://hl7.org/fhir/us/core/StructureDefinition/us-core-race",
                        "extension": [
                            {
                                "url": "ombCategory",
                                "valueCoding": {
                                    "code": "2106-3",
                                    "display": "White",
                                    "system": "urn:oid:2.16.840.1.113883.6.238"
                                }
                            },
                            {
                                "url": "detailed",
                                "valueCoding": {
                                    "code": "2108-9",
                                    "display": "European",
                                    "system": "urn:oid:2.16.840.1.113883.6.238"
                                }
                            },
                            {
                                "url": "text",
                                "valueString": "Mixed"
                            }
                        ]
                    },
                    {
                        "url": "http://hl7.org/fhir/us/core/StructureDefinition/us-core-ethnicity",
                        "extension": [
                            {
                                "url": "ombCategory",
                                "valueCoding": {
                                    "code": "2186-5",
                                    "display": "Not Hispanic or Latino",
                                    "system": "urn:oid:2.16.840.1.113883.6.238"
                                }
                            },
                            {
                                "url": "text",
                                "valueString": "Not Hispanic or Latino"
                            }
                        ]
                    },
                    {
                        "url": "http://hl7.org/fhir/us/core/StructureDefinition/us-core-birthsex",
                        "valueCode": "F"
                    }
                ],
                "address": [
                    {
                        "line": [
                            "1357, Amber Dr"
                        ],
                        "city": "Beaverton",
                        "state": "OR",
                        "country": "US",
                        "postalCode": "97006",
                        "period": {
                            "start": "1970-05-01"
                        }
                    }
                ],
                "telecom": [
                    {
                        "system": "phone",
                        "value": "(555)723-1544",
                        "use": "home"
                    },
                    {
                        "system": "phone",
                        "value": "(555)777-1234",
                        "use": "mobile"
                    }
                ],
                "communication": [
                    {
                        "language": {
                            "coding": [
                                {
                                    "system": "urn:ietf:bcp:47",
                                    "code": "en",
                                    "display": "English"
                                }
                            ]
                        },
                        "preferred": true
                    }
                ],
                "generalPractitioner": [
                    {
                        "reference": "Practitioner/17763d72-7526-32d1-a535-e60859682208"
                    }
                ],
                "managingOrganization": {
                    "reference": "Organization/3bfc3db2-cf06-379a-88cb-03444c877632"
                }
            },
            "request": {
                "method": "PUT",
                "url": "Patient/f40da2df-7505-315a-9acb-55513a02c37b"
            }
        },
        {
            "fullUrl": "urn:uuid:17763d72-7526-32d1-a535-e60859682208",
            "resource": {
                "resourceType": "CareTeam",
                "id": "17763d72-7526-32d1-a535-e60859682208",
                "identifier": [
                    {
                        "system": "http://hl7.org/fhir/sid/us-npi",
                        "value": "99999999"
                    }
                ],
                "name": "USCoreCareTeam",
                "status": "active",
                "telecom": [
                    {
                        "system": "phone",
                        "value": "555-555-1002",
                        "use": "work"
                    }
                ],
                "participant": [
                    {
                        "role": [
                            {
                                "coding": [
                                    {
                                        "system": "http://snomed.info/sct",
                                        "code": "116154003",
                                        "display": "Patient"
                                    }
                                ],
                                "text": "Patient"
                            }
                        ],
                        "member": {
                            "reference": "Patient/f40da2df-7505-315a-9acb-55513a02c37b"
                        }
                    },
                    {
                        "role": [
                            {
                                "coding": [
                                    {
                                        "system": "http://snomed.info/sct",
                                        "code": "432100008",
                                        "display": "Health coach"
                                    }
                                ],
                                "text": "Healthcare professional (occupation)"
                            }
                        ],
                        "member": {
                            "reference": "Practitioner/ead05b2c-8f43-3a9f-946d-1553f5aaa816",
                            "display": "Tracy Davis"
                        }
                    },
                    {
                        "role": [
                            {
                                "coding": [
                                    {
                                        "system": "http://snomed.info/sct",
                                        "code": "309343006",
                                        "display": "Physician (occupation)"
                                    }
                                ],
                                "text": "Physician (occupation)"
                            }
                        ],
                        "member": {
                            "reference": "Practitioner/17763d72-7526-32d1-a535-e60859682208",
                            "display": "Albert Davis"
                        }
                    }
                ],
                "subject": {
                    "reference": "Patient/f40da2df-7505-315a-9acb-55513a02c37b"
                }
            },
            "request": {
                "method": "PUT",
                "url": "CareTeam/17763d72-7526-32d1-a535-e60859682208"
            }
        },
        {
            "fullUrl": "urn:uuid:aa52aac0-5b0d-3cc6-aa40-0544470f1138",
            "resource": {
                "resourceType": "AllergyIntolerance",
                "id": "aa52aac0-5b0d-3cc6-aa40-0544470f1138",
                "identifier": [
                    {
                        "system": "urn:ietf:rfc:3986",
                        "value": "urn:uuid:3d4c7888-a0f8-4157-81b1-b3df7c0133da"
                    }
                ],
                "clinicalStatus": {
                    "coding": [
                        {
                            "system": "http://terminology.hl7.org/CodeSystem/allergyintolerance-clinical",
                            "code": "active"
                        }
                    ]
                },
                "verificationStatus": {
                    "coding": [
                        {
                            "system": "http://terminology.hl7.org/CodeSystem/allergyintolerance-verification",
                            "code": "confirmed",
                            "display": "Confirmed"
                        }
                    ]
                },
                "code": {
                    "coding": [
                        {
                            "code": "247472004",
                            "display": "Hives",
                            "system": "http://snomed.info/sct"
                        }
                    ]
                },
                "reaction": [
                    {
                        "substance": {
                            "coding": [
                                {
                                    "code": "733",
                                    "display": "Ampicillin",
                                    "system": "http://www.nlm.nih.gov/research/umls/rxnorm"
                                }
                            ]
                        },
                        "manifestation": [
                            {
                                "coding": [
                                    {
                                        "code": "247472004",
                                        "display": "Hives",
                                        "system": "http://snomed.info/sct"
                                    }
                                ]
                            }
                        ]
                    }
                ],
                "onsetDateTime": "1980-10-05",
                "patient": {
                    "reference": "Patient/f40da2df-7505-315a-9acb-55513a02c37b"
                }
            },
            "request": {
                "method": "PUT",
                "url": "AllergyIntolerance/aa52aac0-5b0d-3cc6-aa40-0544470f1138"
            }
        },
        {
            "fullUrl": "urn:uuid:f6f66b6c-6418-32d7-be24-cc879deadca7",
            "resource": {
                "resourceType": "AllergyIntolerance",
                "id": "f6f66b6c-6418-32d7-be24-cc879deadca7",
                "identifier": [
                    {
                        "system": "urn:ietf:rfc:3986",
                        "value": "urn:uuid:faade653-5575-4b53-b5cc-cad0d001e053"
                    }
                ],
                "clinicalStatus": {
                    "coding": [
                        {
                            "system": "http://terminology.hl7.org/CodeSystem/allergyintolerance-clinical",
                            "code": "active"
                        }
                    ]
                },
                "verificationStatus": {
                    "coding": [
                        {
                            "system": "http://terminology.hl7.org/CodeSystem/allergyintolerance-verification",
                            "code": "confirmed",
                            "display": "Confirmed"
                        }
                    ]
                },
                "code": {
                    "coding": [
                        {
                            "code": "247472004",
                            "display": "Hives",
                            "system": "http://snomed.info/sct"
                        }
                    ]
                },
                "reaction": [
                    {
                        "substance": {
                            "coding": [
                                {
                                    "code": "7980",
                                    "display": "Penicillin G benzathine",
                                    "system": "http://www.nlm.nih.gov/research/umls/rxnorm"
                                }
                            ]
                        },
                        "manifestation": [
                            {
                                "coding": [
                                    {
                                        "code": "247472004",
                                        "display": "Hives",
                                        "system": "http://snomed.info/sct"
                                    }
                                ]
                            }
                        ]
                    }
                ],
                "onsetDateTime": "1980-10-05",
                "patient": {
                    "reference": "Patient/f40da2df-7505-315a-9acb-55513a02c37b"
                }
            },
            "request": {
                "method": "PUT",
                "url": "AllergyIntolerance/f6f66b6c-6418-32d7-be24-cc879deadca7"
            }
        },
        {
            "fullUrl": "urn:uuid:832a45e8-62a6-3821-82ab-0fd932edbb27",
            "resource": {
                "resourceType": "MedicationStatement",
                "id": "832a45e8-62a6-3821-82ab-0fd932edbb27",
                "identifier": [
                    {
                        "system": "urn:ietf:rfc:3986",
                        "value": "urn:uuid:8705f86f-034f-4b0e-bfc9-4d2314548530"
                    }
                ],
                "status": "active",
                "effectivePeriod": {
                    "start": "2015-06-22"
                },
                "dosage": [
                    {
                        "text": "Inject 1 syringe intramuscularly once a week",
                        "doseAndRate": [
                            {
                                "doseQuantity": {
                                    "value": 1
                                }
                            }
                        ]
                    }
                ],
                "subject": {
                    "reference": "Patient/f40da2df-7505-315a-9acb-55513a02c37b"
                },
                "medicationReference": {
                    "reference": "Medication/a6491cac-c1ee-3c02-a78e-063c467a9350"
                }
            },
            "request": {
                "method": "PUT",
                "url": "MedicationStatement/832a45e8-62a6-3821-82ab-0fd932edbb27"
            }
        },
        {
            "fullUrl": "urn:uuid:a6491cac-c1ee-3c02-a78e-063c467a9350",
            "resource": {
                "resourceType": "Medication",
                "id": "a6491cac-c1ee-3c02-a78e-063c467a9350",
                "code": {
                    "coding": [
                        {
                            "code": "731241",
                            "display": "Aranesp (in polysorbate) 500 mcg/mL syringe",
                            "system": "http://www.nlm.nih.gov/research/umls/rxnorm"
                        }
                    ]
                }
            },
            "request": {
                "method": "PUT",
                "url": "Medication/a6491cac-c1ee-3c02-a78e-063c467a9350"
            }
        },
        {
            "fullUrl": "urn:uuid:23bfac68-b6bf-38b9-bb43-7db569bdde82",
            "resource": {
                "resourceType": "MedicationRequest",
                "id": "23bfac68-b6bf-38b9-bb43-7db569bdde82",
                "identifier": [
                    {
                        "system": "urn:ietf:rfc:3986",
                        "value": "urn:uuid:8705f86f-034f-4b0e-bfc9-4d2314548530"
                    }
                ],
                "intent": "order",
                "status": "active",
                "reportedBoolean": false,
                "authoredOn": "2015-06-22",
                "dosageInstruction": [
                    {
                        "text": "Inject 1 syringe intramuscularly once a week",
                        "doseAndRate": [
                            {
                                "doseQuantity": {
                                    "value": 1
                                }
                            }
                        ]
                    }
                ],
                "subject": {
                    "reference": "Patient/f40da2df-7505-315a-9acb-55513a02c37b"
                },
                "medicationReference": {
                    "reference": "Medication/a6491cac-c1ee-3c02-a78e-063c467a9350"
                },
                "requester": {
                    "reference": "Practitioner/77feb0a0-c8a6-342a-98da-5b3375442250"
                }
            },
            "request": {
                "method": "PUT",
                "url": "MedicationRequest/23bfac68-b6bf-38b9-bb43-7db569bdde82"
            }
        },
        {
            "fullUrl": "urn:uuid:77feb0a0-c8a6-342a-98da-5b3375442250",
            "resource": {
                "resourceType": "Practitioner",
                "meta": {
                    "profile": [
                        "http://hl7.org/fhir/us/core/StructureDefinition/us-core-practitioner"
                    ]
                },
                "id": "77feb0a0-c8a6-342a-98da-5b3375442250",
                "identifier": [
                    {
                        "system": "http://hl7.org/fhir/sid/us-npi",
                        "value": "99999999"
                    }
                ],
                "name": [
                    {
                        "family": "Zelaznik",
                        "given": [
                            "Steve"
                        ]
                    }
                ],
                "telecom": [
                    {
                        "system": "phone",
                        "value": "UNK",
                        "use": "work"
                    }
                ],
                "qualification": [
                    {
                        "code": {
                            "coding": [
                                {
                                    "code": "UNK"
                                }
                            ]
                        }
                    }
                ]
            },
            "request": {
                "method": "PUT",
                "url": "Practitioner/77feb0a0-c8a6-342a-98da-5b3375442250"
            }
        },
        {
            "fullUrl": "urn:uuid:f418b4d3-1df5-3149-a9fa-1a89b4a64663",
            "resource": {
                "resourceType": "MedicationStatement",
                "id": "f418b4d3-1df5-3149-a9fa-1a89b4a64663",
                "identifier": [
                    {
                        "system": "urn:ietf:rfc:3986",
                        "value": "urn:uuid:3d1a3a7f-bbad-4ece-847a-49922ae24048"
                    }
                ],
                "status": "active",
                "effectivePeriod": {
                    "start": "2022-09-13"
                },
                "dosage": [
                    {
                        "text": "Take 1 tablet by mouth once a day",
                        "doseAndRate": [
                            {
                                "doseQuantity": {
                                    "value": 1
                                }
                            }
                        ]
                    }
                ],
                "subject": {
                    "reference": "Patient/f40da2df-7505-315a-9acb-55513a02c37b"
                },
                "medicationReference": {
                    "reference": "Medication/3a5b2405-cbc2-3370-a18d-a4c96b12a816"
                }
            },
            "request": {
                "method": "PUT",
                "url": "MedicationStatement/f418b4d3-1df5-3149-a9fa-1a89b4a64663"
            }
        },
        {
            "fullUrl": "urn:uuid:3a5b2405-cbc2-3370-a18d-a4c96b12a816",
            "resource": {
                "resourceType": "Medication",
                "id": "3a5b2405-cbc2-3370-a18d-a4c96b12a816",
                "code": {
                    "coding": [
                        {
                            "code": "308460",
                            "display": "azithromycin 250 mg tablet",
                            "system": "http://www.nlm.nih.gov/research/umls/rxnorm"
                        }
                    ]
                }
            },
            "request": {
                "method": "PUT",
                "url": "Medication/3a5b2405-cbc2-3370-a18d-a4c96b12a816"
            }
        },
        {
            "fullUrl": "urn:uuid:f418b4d3-1df5-3149-a9fa-1a89b4a64663",
            "resource": {
                "resourceType": "MedicationRequest",
                "id": "f418b4d3-1df5-3149-a9fa-1a89b4a64663",
                "identifier": [
                    {
                        "system": "urn:ietf:rfc:3986",
                        "value": "urn:uuid:3d1a3a7f-bbad-4ece-847a-49922ae24048"
                    }
                ],
                "intent": "plan",
                "status": "active",
                "reportedBoolean": true,
                "authoredOn": "2022-09-13",
                "dosageInstruction": [
                    {
                        "text": "Take 1 tablet by mouth once a day",
                        "doseAndRate": [
                            {
                                "doseQuantity": {
                                    "value": 1
                                }
                            }
                        ]
                    }
                ],
                "subject": {
                    "reference": "Patient/f40da2df-7505-315a-9acb-55513a02c37b"
                },
                "requester": {
                    "reference": "Patient/f40da2df-7505-315a-9acb-55513a02c37b"
                },
                "medicationReference": {
                    "reference": "Medication/3a5b2405-cbc2-3370-a18d-a4c96b12a816"
                }
            },
            "request": {
                "method": "PUT",
                "url": "MedicationRequest/f418b4d3-1df5-3149-a9fa-1a89b4a64663"
            }
        },
        {
            "fullUrl": "urn:uuid:54fbd4c7-07b8-3b3b-91fc-142f14d04239",
            "resource": {
                "resourceType": "MedicationStatement",
                "id": "54fbd4c7-07b8-3b3b-91fc-142f14d04239",
                "identifier": [
                    {
                        "system": "urn:ietf:rfc:3986",
                        "value": "urn:uuid:88fa01a6-bd93-412f-ae2b-1c74d6527aba"
                    }
                ],
                "status": "active",
                "effectivePeriod": {
                    "start": "2015-06-22"
                },
                "dosage": [
                    {
                        "text": "Inject 1 unit twice a day as directed",
                        "doseAndRate": [
                            {
                                "doseQuantity": {
                                    "value": 1
                                }
                            }
                        ]
                    }
                ],
                "subject": {
                    "reference": "Patient/f40da2df-7505-315a-9acb-55513a02c37b"
                },
                "medicationReference": {
                    "reference": "Medication/0ca58338-80c4-3637-8f7f-2ad7a174d09c"
                }
            },
            "request": {
                "method": "PUT",
                "url": "MedicationStatement/54fbd4c7-07b8-3b3b-91fc-142f14d04239"
            }
        },
        {
            "fullUrl": "urn:uuid:0ca58338-80c4-3637-8f7f-2ad7a174d09c",
            "resource": {
                "resourceType": "Medication",
                "id": "0ca58338-80c4-3637-8f7f-2ad7a174d09c",
                "code": {
                    "coding": [
                        {
                            "code": "309090",
                            "display": "ceftriaxone 10 gram recon soln",
                            "system": "http://www.nlm.nih.gov/research/umls/rxnorm"
                        }
                    ]
                }
            },
            "request": {
                "method": "PUT",
                "url": "Medication/0ca58338-80c4-3637-8f7f-2ad7a174d09c"
            }
        },
        {
            "fullUrl": "urn:uuid:06dd0591-f6d1-308d-baf8-45f11896de85",
            "resource": {
                "resourceType": "MedicationRequest",
                "id": "06dd0591-f6d1-308d-baf8-45f11896de85",
                "identifier": [
                    {
                        "system": "urn:ietf:rfc:3986",
                        "value": "urn:uuid:88fa01a6-bd93-412f-ae2b-1c74d6527aba"
                    }
                ],
                "intent": "order",
                "status": "active",
                "reportedBoolean": false,
                "authoredOn": "2015-06-22",
                "dosageInstruction": [
                    {
                        "text": "Inject 1 unit twice a day as directed",
                        "doseAndRate": [
                            {
                                "doseQuantity": {
                                    "value": 1
                                }
                            }
                        ]
                    }
                ],
                "subject": {
                    "reference": "Patient/f40da2df-7505-315a-9acb-55513a02c37b"
                },
                "medicationReference": {
                    "reference": "Medication/0ca58338-80c4-3637-8f7f-2ad7a174d09c"
                },
                "requester": {
                    "reference": "Practitioner/77feb0a0-c8a6-342a-98da-5b3375442250"
                }
            },
            "request": {
                "method": "PUT",
                "url": "MedicationRequest/06dd0591-f6d1-308d-baf8-45f11896de85"
            }
        },
        {
            "fullUrl": "urn:uuid:93108615-b730-3039-a8a8-c736cfd31ba8",
            "resource": {
                "resourceType": "MedicationStatement",
                "id": "93108615-b730-3039-a8a8-c736cfd31ba8",
                "identifier": [
                    {
                        "system": "urn:ietf:rfc:3986",
                        "value": "urn:uuid:be50a122-63b8-4795-8d06-ba545b4596f2"
                    }
                ],
                "status": "active",
                "effectivePeriod": {
                    "start": "2015-06-22"
                },
                "dosage": [
                    {
                        "text": "Take 1 tablet by mouth as needed",
                        "doseAndRate": [
                            {
                                "doseQuantity": {
                                    "value": 1
                                }
                            }
                        ]
                    }
                ],
                "subject": {
                    "reference": "Patient/f40da2df-7505-315a-9acb-55513a02c37b"
                },
                "medicationReference": {
                    "reference": "Medication/f1bf406b-00cb-333d-bfe9-1c9e0a070162"
                }
            },
            "request": {
                "method": "PUT",
                "url": "MedicationStatement/93108615-b730-3039-a8a8-c736cfd31ba8"
            }
        },
        {
            "fullUrl": "urn:uuid:f1bf406b-00cb-333d-bfe9-1c9e0a070162",
            "resource": {
                "resourceType": "Medication",
                "id": "f1bf406b-00cb-333d-bfe9-1c9e0a070162",
                "code": {
                    "coding": [
                        {
                            "code": "209459",
                            "display": "Tylenol Extra Strength 500 mg tablet",
                            "system": "http://www.nlm.nih.gov/research/umls/rxnorm"
                        }
                    ]
                }
            },
            "request": {
                "method": "PUT",
                "url": "Medication/f1bf406b-00cb-333d-bfe9-1c9e0a070162"
            }
        },
        {
            "fullUrl": "urn:uuid:2ab56f7d-e187-3611-a14b-818950266ceb",
            "resource": {
                "resourceType": "MedicationRequest",
                "id": "2ab56f7d-e187-3611-a14b-818950266ceb",
                "identifier": [
                    {
                        "system": "urn:ietf:rfc:3986",
                        "value": "urn:uuid:be50a122-63b8-4795-8d06-ba545b4596f2"
                    }
                ],
                "intent": "order",
                "status": "active",
                "reportedBoolean": false,
                "authoredOn": "2015-06-22",
                "dosageInstruction": [
                    {
                        "text": "Take 1 tablet by mouth as needed",
                        "doseAndRate": [
                            {
                                "doseQuantity": {
                                    "value": 1
                                }
                            }
                        ]
                    }
                ],
                "subject": {
                    "reference": "Patient/f40da2df-7505-315a-9acb-55513a02c37b"
                },
                "medicationReference": {
                    "reference": "Medication/f1bf406b-00cb-333d-bfe9-1c9e0a070162"
                },
                "requester": {
                    "reference": "Practitioner/77feb0a0-c8a6-342a-98da-5b3375442250"
                }
            },
            "request": {
                "method": "PUT",
                "url": "MedicationRequest/2ab56f7d-e187-3611-a14b-818950266ceb"
            }
        },
        {
            "fullUrl": "urn:uuid:ffb4b66f-cffb-3afe-a9e7-d75534d088f3",
            "resource": {
                "resourceType": "Condition",
                "id": "ffb4b66f-cffb-3afe-a9e7-d75534d088f3",
                "identifier": [
                    {
                        "system": "urn:ietf:rfc:3986",
                        "value": "urn:uuid:1.3.6.1.4.1.22812.4.111.0.4.1.32939"
                    }
                ],
                "verificationStatus": {
                    "coding": [
                        {
                            "system": "http://terminology.hl7.org/CodeSystem/condition-ver-status",
                            "code": "confirmed"
                        }
                    ]
                },
                "category": [
                    {
                        "coding": [
                            {
                                "system": "http://snomed.info/sct",
                                "code": "55607006",
                                "display": "Problem"
                            },
                            {
                                "system": "http://terminology.hl7.org/CodeSystem/condition-category",
                                "code": "problem-list-item"
                            }
                        ]
                    }
                ],
                "clinicalStatus": {
                    "coding": [
                        {
                            "system": "http://terminology.hl7.org/CodeSystem/condition-clinical",
                            "code": "inactive"
                        }
                    ]
                },
                "code": {
                    "coding": [
                        {
                            "code": "244.8",
                            "display": "Other specified acquired hypothyroidism",
                            "system": "urn:oid:2.16.840.1.113883.6.103"
                        }
                    ]
                },
                "onsetDateTime": "2006-12-31T05:00:00.000Z",
                "subject": {
                    "reference": "Patient/f40da2df-7505-315a-9acb-55513a02c37b"
                }
            },
            "request": {
                "method": "PUT",
                "url": "Condition/ffb4b66f-cffb-3afe-a9e7-d75534d088f3"
            }
        },
        {
            "fullUrl": "urn:uuid:e85a5f6b-a9b4-3f86-a9d7-7095e485351b",
            "resource": {
                "resourceType": "Condition",
                "id": "e85a5f6b-a9b4-3f86-a9d7-7095e485351b",
                "identifier": [
                    {
                        "system": "urn:ietf:rfc:3986",
                        "value": "urn:uuid:1.3.6.1.4.1.22812.4.111.0.4.1.32940"
                    }
                ],
                "verificationStatus": {
                    "coding": [
                        {
                            "system": "http://terminology.hl7.org/CodeSystem/condition-ver-status",
                            "code": "confirmed"
                        }
                    ]
                },
                "category": [
                    {
                        "coding": [
                            {
                                "system": "http://snomed.info/sct",
                                "code": "55607006",
                                "display": "Problem"
                            },
                            {
                                "system": "http://terminology.hl7.org/CodeSystem/condition-category",
                                "code": "problem-list-item"
                            }
                        ]
                    }
                ],
                "clinicalStatus": {
                    "coding": [
                        {
                            "system": "http://terminology.hl7.org/CodeSystem/condition-clinical",
                            "code": "inactive"
                        }
                    ]
                },
                "code": {
                    "coding": [
                        {
                            "code": "996.81",
                            "display": "Complications of transplanted kidney",
                            "system": "urn:oid:2.16.840.1.113883.6.103"
                        }
                    ]
                },
                "onsetDateTime": "2011-12-31T05:00:00.000Z",
                "subject": {
                    "reference": "Patient/f40da2df-7505-315a-9acb-55513a02c37b"
                }
            },
            "request": {
                "method": "PUT",
                "url": "Condition/e85a5f6b-a9b4-3f86-a9d7-7095e485351b"
            }
        },
        {
            "fullUrl": "urn:uuid:081341a3-b007-34b2-ad29-d010dad2ddf6",
            "resource": {
                "resourceType": "Condition",
                "id": "081341a3-b007-34b2-ad29-d010dad2ddf6",
                "identifier": [
                    {
                        "system": "urn:ietf:rfc:3986",
                        "value": "urn:uuid:1.3.6.1.4.1.22812.4.111.0.4.1.32941"
                    }
                ],
                "verificationStatus": {
                    "coding": [
                        {
                            "system": "http://terminology.hl7.org/CodeSystem/condition-ver-status",
                            "code": "confirmed"
                        }
                    ]
                },
                "category": [
                    {
                        "coding": [
                            {
                                "system": "http://snomed.info/sct",
                                "code": "55607006",
                                "display": "Problem"
                            },
                            {
                                "system": "http://terminology.hl7.org/CodeSystem/condition-category",
                                "code": "problem-list-item"
                            }
                        ]
                    }
                ],
                "clinicalStatus": {
                    "coding": [
                        {
                            "system": "http://terminology.hl7.org/CodeSystem/condition-clinical",
                            "code": "inactive"
                        }
                    ]
                },
                "code": {
                    "coding": [
                        {
                            "code": "780.60",
                            "display": "Fever, unspecified",
                            "system": "urn:oid:2.16.840.1.113883.6.103"
                        }
                    ]
                },
                "onsetDateTime": "2015-06-22T04:00:00.000Z",
                "subject": {
                    "reference": "Patient/f40da2df-7505-315a-9acb-55513a02c37b"
                }
            },
            "request": {
                "method": "PUT",
                "url": "Condition/081341a3-b007-34b2-ad29-d010dad2ddf6"
            }
        },
        {
            "fullUrl": "urn:uuid:e2717651-459a-32eb-a348-427144ccf9cd",
            "resource": {
                "resourceType": "Condition",
                "id": "e2717651-459a-32eb-a348-427144ccf9cd",
                "identifier": [
                    {
                        "system": "urn:ietf:rfc:3986",
                        "value": "urn:uuid:1.3.6.1.4.1.22812.4.111.0.4.1.32938"
                    }
                ],
                "verificationStatus": {
                    "coding": [
                        {
                            "system": "http://terminology.hl7.org/CodeSystem/condition-ver-status",
                            "code": "confirmed"
                        }
                    ]
                },
                "category": [
                    {
                        "coding": [
                            {
                                "system": "http://snomed.info/sct",
                                "code": "55607006",
                                "display": "Problem"
                            },
                            {
                                "system": "http://terminology.hl7.org/CodeSystem/condition-category",
                                "code": "problem-list-item"
                            }
                        ]
                    }
                ],
                "clinicalStatus": {
                    "coding": [
                        {
                            "system": "http://terminology.hl7.org/CodeSystem/condition-clinical",
                            "code": "inactive"
                        }
                    ]
                },
                "code": {
                    "coding": [
                        {
                            "code": "401.9",
                            "display": "Unspecified essential hypertension",
                            "system": "urn:oid:2.16.840.1.113883.6.103"
                        }
                    ]
                },
                "onsetDateTime": "2011-10-05T04:00:00.000Z",
                "subject": {
                    "reference": "Patient/f40da2df-7505-315a-9acb-55513a02c37b"
                }
            },
            "request": {
                "method": "PUT",
                "url": "Condition/e2717651-459a-32eb-a348-427144ccf9cd"
            }
        },
        {
            "fullUrl": "urn:uuid:767e0192-6340-39d6-9075-7520af641c48",
            "resource": {
                "resourceType": "Condition",
                "id": "767e0192-6340-39d6-9075-7520af641c48",
                "identifier": [
                    {
                        "system": "urn:ietf:rfc:3986",
                        "value": "urn:uuid:1.3.6.1.4.1.22812.4.111.0.4.1.32942"
                    }
                ],
                "verificationStatus": {
                    "coding": [
                        {
                            "system": "http://terminology.hl7.org/CodeSystem/condition-ver-status",
                            "code": "confirmed"
                        }
                    ]
                },
                "category": [
                    {
                        "coding": [
                            {
                                "system": "http://snomed.info/sct",
                                "code": "55607006",
                                "display": "Problem"
                            },
                            {
                                "system": "http://terminology.hl7.org/CodeSystem/condition-category",
                                "code": "problem-list-item"
                            }
                        ]
                    }
                ],
                "clinicalStatus": {
                    "coding": [
                        {
                            "system": "http://terminology.hl7.org/CodeSystem/condition-clinical",
                            "code": "inactive"
                        }
                    ]
                },
                "code": {
                    "coding": [
                        {
                            "code": "278.02",
                            "display": "Overweight",
                            "system": "urn:oid:2.16.840.1.113883.6.103"
                        }
                    ]
                },
                "onsetDateTime": "2006-12-31T05:00:00.000Z",
                "subject": {
                    "reference": "Patient/f40da2df-7505-315a-9acb-55513a02c37b"
                }
            },
            "request": {
                "method": "PUT",
                "url": "Condition/767e0192-6340-39d6-9075-7520af641c48"
            }
        },
        {
            "fullUrl": "urn:uuid:3bd5bf3a-86ed-39f4-b26a-876b09f89e9a",
            "resource": {
                "resourceType": "DiagnosticReport",
                "id": "3bd5bf3a-86ed-39f4-b26a-876b09f89e9a",
                "identifier": [
                    {
                        "system": "urn:ietf:rfc:3986",
                        "value": "urn:uuid:dd58dded-95cb-4a1f-9330-2fce25c72587"
                    }
                ],
                "status": "final",
                "category": [
                    {
                        "coding": [
                            {
                                "system": "http://terminology.hl7.org/CodeSystem/v2-0074",
                                "code": "LAB",
                                "display": "Laboratory"
                            }
                        ]
                    }
                ],
                "code": {
                    "coding": [
                        {
                            "system": "http://terminology.hl7.org/CodeSystem/v2-0074",
                            "code": "LAB",
                            "display": "Urinanalysis macro (dipstick) panel"
                        }
                    ],
                    "text": "Urinanalysis macro (dipstick) panel"
                },
                "effectivePeriod": {
                    "start": "2015-06-22T00:00:00.000Z",
                    "end": "2015-06-22T00:00:00.000Z"
                },
                "issued": "2015-06-22T00:00:00.000Z",
                "subject": {
                    "reference": "Patient/f40da2df-7505-315a-9acb-55513a02c37b"
                },
                "result": [
                    {
                        "reference": "Observation/cfdae2e9-ca09-3c97-b132-2cbaca486550"
                    },
                    {
                        "reference": "Observation/a2042463-5b72-384e-ad6d-12ff02cb4045"
                    },
                    {
                        "reference": "Observation/72efd2e0-a04b-3c03-98b3-93728c881130"
                    },
                    {
                        "reference": "Observation/b9d8499c-4479-395a-970c-226d46b01032"
                    },
                    {
                        "reference": "Observation/b61aeeea-39c0-3bbd-81d2-0d63cfcde382"
                    },
                    {
                        "reference": "Observation/781ca019-6c05-396c-ad98-08ef56788225"
                    },
                    {
                        "reference": "Observation/d81f7401-6804-3090-afdb-8ffcd34ae117"
                    }
                ]
            },
            "request": {
                "method": "PUT",
                "url": "DiagnosticReport/3bd5bf3a-86ed-39f4-b26a-876b09f89e9a"
            }
        },
        {
            "fullUrl": "urn:uuid:cfdae2e9-ca09-3c97-b132-2cbaca486550",
            "resource": {
                "resourceType": "Observation",
                "meta": {
                    "profile": [
                        "http://hl7.org/fhir/us/core/StructureDefinition/us-core-observationresults"
                    ]
                },
                "id": "cfdae2e9-ca09-3c97-b132-2cbaca486550",
                "identifier": [
                    {
                        "system": "urn:ietf:rfc:3986",
                        "value": "urn:uuid:4dcc804b-64a2-41c0-8651-348994ee65cb"
                    }
                ],
                "category": [
                    {
                        "coding": [
                            {
                                "system": "http://terminology.hl7.org/CodeSystem/observation-category",
                                "code": "laboratory"
                            }
                        ]
                    }
                ],
                "status": "final",
                "code": {
                    "coding": [
                        {
                            "code": "5778-6",
                            "display": "Color of Urine",
                            "system": "http://loinc.org"
                        }
                    ]
                },
                "effectiveDateTime": "2015-06-22T00:00:00.000Z",
                "issued": "2015-06-22T00:00:00.000Z",
                "valueString": "Yellow",
                "subject": {
                    "reference": "Patient/f40da2df-7505-315a-9acb-55513a02c37b"
                }
            },
            "request": {
                "method": "PUT",
                "url": "Observation/cfdae2e9-ca09-3c97-b132-2cbaca486550"
            }
        },
        {
            "fullUrl": "urn:uuid:a2042463-5b72-384e-ad6d-12ff02cb4045",
            "resource": {
                "resourceType": "Observation",
                "meta": {
                    "profile": [
                        "http://hl7.org/fhir/us/core/StructureDefinition/us-core-observationresults"
                    ]
                },
                "id": "a2042463-5b72-384e-ad6d-12ff02cb4045",
                "identifier": [
                    {
                        "system": "urn:ietf:rfc:3986",
                        "value": "urn:uuid:aa392fe2-6821-4394-8afb-728d6aba0cb2"
                    }
                ],
                "category": [
                    {
                        "coding": [
                            {
                                "system": "http://terminology.hl7.org/CodeSystem/observation-category",
                                "code": "laboratory"
                            }
                        ]
                    }
                ],
                "status": "final",
                "code": {
                    "coding": [
                        {
                            "code": "5767-9",
                            "display": "Appearance of Urine",
                            "system": "http://loinc.org"
                        }
                    ]
                },
                "effectiveDateTime": "2015-06-22T00:00:00.000Z",
                "issued": "2015-06-22T00:00:00.000Z",
                "valueString": "Clear",
                "subject": {
                    "reference": "Patient/f40da2df-7505-315a-9acb-55513a02c37b"
                }
            },
            "request": {
                "method": "PUT",
                "url": "Observation/a2042463-5b72-384e-ad6d-12ff02cb4045"
            }
        },
        {
            "fullUrl": "urn:uuid:72efd2e0-a04b-3c03-98b3-93728c881130",
            "resource": {
                "resourceType": "Observation",
                "meta": {
                    "profile": [
                        "http://hl7.org/fhir/us/core/StructureDefinition/us-core-observationresults"
                    ]
                },
                "id": "72efd2e0-a04b-3c03-98b3-93728c881130",
                "identifier": [
                    {
                        "system": "urn:ietf:rfc:3986",
                        "value": "urn:uuid:5f8520b0-757a-4cbb-87e9-2ae0b46ee43a"
                    }
                ],
                "category": [
                    {
                        "coding": [
                            {
                                "system": "http://terminology.hl7.org/CodeSystem/observation-category",
                                "code": "laboratory"
                            }
                        ]
                    }
                ],
                "status": "final",
                "code": {
                    "coding": [
                        {
                            "code": "5811-5",
                            "display": "Specific gravity of Urine by Test strip",
                            "system": "http://loinc.org"
                        }
                    ]
                },
                "effectiveDateTime": "2015-06-22T00:00:00.000Z",
                "issued": "2015-06-22T00:00:00.000Z",
                "valueQuantity": {
                    "value": 1.015,
                    "unit": "1",
                    "system": "http://unitsofmeasure.org",
                    "code": "1"
                },
                "referenceRange": [
                    {
                        "low": {
                            "value": 1.005,
                            "unit": "1"
                        },
                        "high": {
                            "value": 1.03,
                            "unit": "1"
                        }
                    }
                ],
                "subject": {
                    "reference": "Patient/f40da2df-7505-315a-9acb-55513a02c37b"
                }
            },
            "request": {
                "method": "PUT",
                "url": "Observation/72efd2e0-a04b-3c03-98b3-93728c881130"
            }
        },
        {
            "fullUrl": "urn:uuid:b9d8499c-4479-395a-970c-226d46b01032",
            "resource": {
                "resourceType": "Observation",
                "meta": {
                    "profile": [
                        "http://hl7.org/fhir/us/core/StructureDefinition/us-core-observationresults"
                    ]
                },
                "id": "b9d8499c-4479-395a-970c-226d46b01032",
                "identifier": [
                    {
                        "system": "urn:ietf:rfc:3986",
                        "value": "urn:uuid:b81a35a0-fb27-4aa8-8ff4-8cae03906c15"
                    }
                ],
                "category": [
                    {
                        "coding": [
                            {
                                "system": "http://terminology.hl7.org/CodeSystem/observation-category",
                                "code": "laboratory"
                            }
                        ]
                    }
                ],
                "status": "final",
                "code": {
                    "coding": [
                        {
                            "code": "5803-2",
                            "display": "pH of Urine by Test strip",
                            "system": "http://loinc.org"
                        }
                    ]
                },
                "effectiveDateTime": "2015-06-22T00:00:00.000Z",
                "issued": "2015-06-22T00:00:00.000Z",
                "valueQuantity": {
                    "value": 5,
                    "unit": "[pH]",
                    "system": "http://unitsofmeasure.org",
                    "code": "[pH]"
                },
                "referenceRange": [
                    {
                        "low": {
                            "value": 5,
                            "unit": "[pH]"
                        },
                        "high": {
                            "value": 8,
                            "unit": "[pH]"
                        }
                    }
                ],
                "subject": {
                    "reference": "Patient/f40da2df-7505-315a-9acb-55513a02c37b"
                }
            },
            "request": {
                "method": "PUT",
                "url": "Observation/b9d8499c-4479-395a-970c-226d46b01032"
            }
        },
        {
            "fullUrl": "urn:uuid:b61aeeea-39c0-3bbd-81d2-0d63cfcde382",
            "resource": {
                "resourceType": "Observation",
                "meta": {
                    "profile": [
                        "http://hl7.org/fhir/us/core/StructureDefinition/us-core-observationresults"
                    ]
                },
                "id": "b61aeeea-39c0-3bbd-81d2-0d63cfcde382",
                "identifier": [
                    {
                        "system": "urn:ietf:rfc:3986",
                        "value": "urn:uuid:c54ab0a6-25f2-4367-bb40-c55599e7a5ea"
                    }
                ],
                "category": [
                    {
                        "coding": [
                            {
                                "system": "http://terminology.hl7.org/CodeSystem/observation-category",
                                "code": "laboratory"
                            }
                        ]
                    }
                ],
                "status": "final",
                "code": {
                    "coding": [
                        {
                            "code": "5792-7",
                            "display": "Glucose[Mass/volume] in urine by test strip",
                            "system": "http://loinc.org"
                        }
                    ]
                },
                "effectiveDateTime": "2015-06-22T00:00:00.000Z",
                "issued": "2015-06-22T00:00:00.000Z",
                "valueQuantity": {
                    "value": 50,
                    "unit": "mg/dL",
                    "system": "http://unitsofmeasure.org",
                    "code": "mg/dL"
                },
                "subject": {
                    "reference": "Patient/f40da2df-7505-315a-9acb-55513a02c37b"
                }
            },
            "request": {
                "method": "PUT",
                "url": "Observation/b61aeeea-39c0-3bbd-81d2-0d63cfcde382"
            }
        },
        {
            "fullUrl": "urn:uuid:781ca019-6c05-396c-ad98-08ef56788225",
            "resource": {
                "resourceType": "Observation",
                "meta": {
                    "profile": [
                        "http://hl7.org/fhir/us/core/StructureDefinition/us-core-observationresults"
                    ]
                },
                "id": "781ca019-6c05-396c-ad98-08ef56788225",
                "identifier": [
                    {
                        "system": "urn:ietf:rfc:3986",
                        "value": "urn:uuid:de99a3fd-90fc-4616-a7d1-3a6ee32bb383"
                    }
                ],
                "category": [
                    {
                        "coding": [
                            {
                                "system": "http://terminology.hl7.org/CodeSystem/observation-category",
                                "code": "laboratory"
                            }
                        ]
                    }
                ],
                "status": "final",
                "code": {
                    "coding": [
                        {
                            "code": "5797-6",
                            "display": "Ketones[Mass/volume] in urine by test strip",
                            "system": "http://loinc.org"
                        }
                    ]
                },
                "effectiveDateTime": "2015-06-22T00:00:00.000Z",
                "issued": "2015-06-22T00:00:00.000Z",
                "valueString": "Negative",
                "subject": {
                    "reference": "Patient/f40da2df-7505-315a-9acb-55513a02c37b"
                }
            },
            "request": {
                "method": "PUT",
                "url": "Observation/781ca019-6c05-396c-ad98-08ef56788225"
            }
        },
        {
            "fullUrl": "urn:uuid:d81f7401-6804-3090-afdb-8ffcd34ae117",
            "resource": {
                "resourceType": "Observation",
                "meta": {
                    "profile": [
                        "http://hl7.org/fhir/us/core/StructureDefinition/us-core-observationresults"
                    ]
                },
                "id": "d81f7401-6804-3090-afdb-8ffcd34ae117",
                "identifier": [
                    {
                        "system": "urn:ietf:rfc:3986",
                        "value": "urn:uuid:ab2048b5-2a37-4410-9b0a-5dca4e76595c"
                    }
                ],
                "category": [
                    {
                        "coding": [
                            {
                                "system": "http://terminology.hl7.org/CodeSystem/observation-category",
                                "code": "laboratory"
                            }
                        ]
                    }
                ],
                "status": "final",
                "code": {
                    "coding": [
                        {
                            "code": "5804-0",
                            "display": "Protein[Mass/volume] in urine by test strip",
                            "system": "http://loinc.org"
                        }
                    ]
                },
                "effectiveDateTime": "2015-06-22T00:00:00.000Z",
                "issued": "2015-06-22T00:00:00.000Z",
                "valueQuantity": {
                    "value": 100,
                    "unit": "mg/dL",
                    "system": "http://unitsofmeasure.org",
                    "code": "mg/dL"
                },
                "subject": {
                    "reference": "Patient/f40da2df-7505-315a-9acb-55513a02c37b"
                }
            },
            "request": {
                "method": "PUT",
                "url": "Observation/d81f7401-6804-3090-afdb-8ffcd34ae117"
            }
        },
        {
            "fullUrl": "urn:uuid:1fdb9ccf-3eb1-37ed-a3ce-4b51eb4baa36",
            "resource": {
                "resourceType": "DiagnosticReport",
                "id": "1fdb9ccf-3eb1-37ed-a3ce-4b51eb4baa36",
                "identifier": [
                    {
                        "system": "urn:ietf:rfc:3986",
                        "value": "urn:uuid:4dd7d428-8a45-4cec-81d6-62b528604ffa"
                    }
                ],
                "status": "final",
                "category": [
                    {
                        "coding": [
                            {
                                "system": "http://terminology.hl7.org/CodeSystem/v2-0074",
                                "code": "LAB",
                                "display": "Laboratory"
                            }
                        ]
                    }
                ],
                "code": {
                    "coding": [
                        {
                            "system": "http://terminology.hl7.org/CodeSystem/v2-0074",
                            "code": "LAB",
                            "display": "Chest X-ray 2 Views"
                        }
                    ],
                    "text": "Chest X-ray 2 Views"
                },
                "effectivePeriod": {
                    "start": "2015-06-22T00:00:00.000Z",
                    "end": "2015-06-22T00:00:00.000Z"
                },
                "issued": "2015-06-22T00:00:00.000Z",
                "subject": {
                    "reference": "Patient/f40da2df-7505-315a-9acb-55513a02c37b"
                },
                "result": [
                    {
                        "reference": "Observation/c53a39b0-b1bc-374a-9921-fb077f93bdcc"
                    }
                ]
            },
            "request": {
                "method": "PUT",
                "url": "DiagnosticReport/1fdb9ccf-3eb1-37ed-a3ce-4b51eb4baa36"
            }
        },
        {
            "fullUrl": "urn:uuid:c53a39b0-b1bc-374a-9921-fb077f93bdcc",
            "resource": {
                "resourceType": "Observation",
                "meta": {
                    "profile": [
                        "http://hl7.org/fhir/us/core/StructureDefinition/us-core-observationresults"
                    ]
                },
                "id": "c53a39b0-b1bc-374a-9921-fb077f93bdcc",
                "identifier": [
                    {
                        "system": "urn:ietf:rfc:3986",
                        "value": "urn:uuid:50dc72ae-61e3-42fb-b06e-e79311f7102f"
                    }
                ],
                "category": [
                    {
                        "coding": [
                            {
                                "system": "http://terminology.hl7.org/CodeSystem/observation-category",
                                "code": "laboratory"
                            }
                        ]
                    }
                ],
                "status": "final",
                "code": {
                    "coding": [
                        {
                            "code": "36643-5",
                            "display": "Chest X-ray 2 Views",
                            "system": "http://loinc.org"
                        }
                    ]
                },
                "effectiveDateTime": "2015-06-22T00:00:00.000Z",
                "issued": "2015-06-22T00:00:00.000Z",
                "valueString": "Lungs are not clear, cannot rule out Anemia. Other tests are required to determine the presence or absence of Anemia.",
                "subject": {
                    "reference": "Patient/f40da2df-7505-315a-9acb-55513a02c37b"
                }
            },
            "request": {
                "method": "PUT",
                "url": "Observation/c53a39b0-b1bc-374a-9921-fb077f93bdcc"
            }
        },
        {
            "fullUrl": "urn:uuid:e547f21e-9f3b-3368-b546-05393f577394",
            "resource": {
                "resourceType": "Observation",
                "meta": {
                    "profile": [
                        "http://hl7.org/fhir/us/core/StructureDefinition/us-core-observationresults"
                    ]
                },
                "id": "e547f21e-9f3b-3368-b546-05393f577394",
                "category": [
                    {
                        "coding": [
                            {
                                "system": "http://terminology.hl7.org/CodeSystem/observation-category",
                                "code": "social-history"
                            }
                        ]
                    }
                ],
                "status": "final",
                "code": {
                    "coding": [
                        {
                            "code": "ASSERTION",
                            "display": "Assertion",
                            "system": "urn:oid:2.16.840.1.113883.5.4"
                        }
                    ]
                },
                "effectiveDateTime": "2015-06-22T04:00:00.000Z",
                "issued": "2015-06-22T04:00:00.000Z",
                "valueCodeableConcept": {
                    "coding": [
                        {
                            "code": "449868002",
                            "display": "Smokes tobacco daily",
                            "system": "http://snomed.info/sct"
                        }
                    ]
                },
                "subject": {
                    "reference": "Patient/f40da2df-7505-315a-9acb-55513a02c37b"
                }
            },
            "request": {
                "method": "PUT",
                "url": "Observation/e547f21e-9f3b-3368-b546-05393f577394"
            }
        },
        {
            "fullUrl": "urn:uuid:dd5a0dd1-e58c-34b6-8460-b18686169d0c",
            "resource": {
                "resourceType": "Observation",
                "meta": {
                    "profile": [
                        "http://hl7.org/fhir/us/core/StructureDefinition/us-core-observationresults"
                    ]
                },
                "id": "dd5a0dd1-e58c-34b6-8460-b18686169d0c",
                "category": [
                    {
                        "coding": [
                            {
                                "system": "http://terminology.hl7.org/CodeSystem/observation-category",
                                "code": "social-history"
                            }
                        ]
                    }
                ],
                "status": "final",
                "code": {
                    "coding": [
                        {
                            "code": "76689-9",
                            "system": "http://loinc.org"
                        }
                    ]
                },
                "valueCodeableConcept": {
                    "coding": [
                        {
                            "code": "F",
                            "display": "Female",
                            "system": "urn:oid:2.16.840.1.113883.5.1"
                        }
                    ]
                },
                "subject": {
                    "reference": "Patient/f40da2df-7505-315a-9acb-55513a02c37b"
                }
            },
            "request": {
                "method": "PUT",
                "url": "Observation/dd5a0dd1-e58c-34b6-8460-b18686169d0c"
            }
        },
        {
            "fullUrl": "urn:uuid:fcc079c2-3b24-374c-98f0-15156bf19553",
            "resource": {
                "resourceType": "Observation",
                "meta": {
                    "profile": [
                        "http://hl7.org/fhir/us/core/StructureDefinition/us-core-observationresults"
                    ]
                },
                "id": "fcc079c2-3b24-374c-98f0-15156bf19553",
                "category": [
                    {
                        "coding": [
                            {
                                "system": "http://terminology.hl7.org/CodeSystem/observation-category",
                                "code": "social-history"
                            }
                        ]
                    }
                ],
                "status": "final",
                "code": {
                    "coding": [
                        {
                            "code": "72166-2",
                            "system": "http://loinc.org"
                        }
                    ]
                },
                "effectivePeriod": {
                    "start": "2015-06-22T04:00:00.000Z"
                },
                "issued": "2015-06-22T04:00:00.000Z",
                "valueCodeableConcept": {
                    "coding": [
                        {
                            "code": "8517006",
                            "display": "Former Smoker",
                            "system": "http://snomed.info/sct"
                        }
                    ]
                },
                "subject": {
                    "reference": "Patient/f40da2df-7505-315a-9acb-55513a02c37b"
                }
            },
            "request": {
                "method": "PUT",
                "url": "Observation/fcc079c2-3b24-374c-98f0-15156bf19553"
            }
        },
        {
            "fullUrl": "urn:uuid:bd02d10a-b656-34db-b3a5-ae0fd97194f9",
            "resource": {
                "resourceType": "Observation",
                "meta": {
                    "profile": [
                        "http://hl7.org/fhir/us/core/StructureDefinition/us-core-observationresults"
                    ]
                },
                "id": "bd02d10a-b656-34db-b3a5-ae0fd97194f9",
                "identifier": [
                    {
                        "system": "urn:ietf:rfc:3986",
                        "value": "urn:uuid:1.3.6.1.4.1.22812.4.111.0.4.1.0.0"
                    }
                ],
                "category": [
                    {
                        "coding": [
                            {
                                "system": "http://terminology.hl7.org/CodeSystem/observation-category",
                                "code": "vital-signs"
                            }
                        ]
                    }
                ],
                "status": "final",
                "code": {
                    "coding": [
                        {
                            "code": "3150-0",
                            "display": "Inhaled oxygen concentration",
                            "system": "http://loinc.org"
                        }
                    ]
                },
                "effectiveDateTime": "2015-06-02T14:12:00.000Z",
                "issued": "2015-06-02T14:12:00.000Z",
                "valueQuantity": {
                    "value": 36,
                    "unit": "%",
                    "system": "http://unitsofmeasure.org",
                    "code": "%"
                },
                "subject": {
                    "reference": "Patient/f40da2df-7505-315a-9acb-55513a02c37b"
                }
            },
            "request": {
                "method": "PUT",
                "url": "Observation/bd02d10a-b656-34db-b3a5-ae0fd97194f9"
            }
        },
        {
            "fullUrl": "urn:uuid:f3f76197-1bda-31f3-817e-206f72626013",
            "resource": {
                "resourceType": "Observation",
                "meta": {
                    "profile": [
                        "http://hl7.org/fhir/us/core/StructureDefinition/us-core-observationresults"
                    ]
                },
                "id": "f3f76197-1bda-31f3-817e-206f72626013",
                "identifier": [
                    {
                        "system": "urn:ietf:rfc:3986",
                        "value": "urn:uuid:1.3.6.1.4.1.22812.4.111.0.4.1.1"
                    }
                ],
                "category": [
                    {
                        "coding": [
                            {
                                "system": "http://terminology.hl7.org/CodeSystem/observation-category",
                                "code": "vital-signs"
                            }
                        ]
                    }
                ],
                "status": "final",
                "code": {
                    "coding": [
                        {
                            "code": "85354-9",
                            "display": "Blood pressure panel with all children optional",
                            "system": "http://loinc.org"
                        }
                    ]
                },
                "effectiveDateTime": "2015-06-22T23:59:59.000Z",
                "issued": "2015-06-22T23:59:59.000Z",
                "component": [
                    {
                        "code": {
                            "coding": [
                                {
                                    "system": "http://loinc.org",
                                    "code": "8480-6",
                                    "display": "Systolic blood pressure"
                                }
                            ]
                        },
                        "valueQuantity": {
                            "value": 145,
                            "unit": "mmHg",
                            "system": "http://unitsofmeasure.org",
                            "code": "mm[Hg]"
                        }
                    },
                    {
                        "code": {
                            "coding": [
                                {
                                    "system": "http://loinc.org",
                                    "code": "8462-4",
                                    "display": "Diastolic blood pressure"
                                }
                            ]
                        },
                        "valueQuantity": {
                            "value": 88,
                            "unit": "mmHg",
                            "system": "http://unitsofmeasure.org",
                            "code": "mm[Hg]"
                        }
                    }
                ],
                "subject": {
                    "reference": "Patient/f40da2df-7505-315a-9acb-55513a02c37b"
                }
            },
            "request": {
                "method": "PUT",
                "url": "Observation/f3f76197-1bda-31f3-817e-206f72626013"
            }
        },
        {
            "fullUrl": "urn:uuid:4893d915-1bce-32c9-a50a-4432570b4404",
            "resource": {
                "resourceType": "Observation",
                "meta": {
                    "profile": [
                        "http://hl7.org/fhir/us/core/StructureDefinition/us-core-observationresults"
                    ]
                },
                "id": "4893d915-1bce-32c9-a50a-4432570b4404",
                "identifier": [
                    {
                        "system": "urn:ietf:rfc:3986",
                        "value": "urn:uuid:1.3.6.1.4.1.22812.4.111.0.4.1.1.2"
                    }
                ],
                "category": [
                    {
                        "coding": [
                            {
                                "system": "http://terminology.hl7.org/CodeSystem/observation-category",
                                "code": "vital-signs"
                            }
                        ]
                    }
                ],
                "status": "final",
                "code": {
                    "coding": [
                        {
                            "code": "8302-2",
                            "display": "Body height",
                            "system": "http://loinc.org"
                        }
                    ]
                },
                "effectiveDateTime": "2015-06-22T14:05:00.000Z",
                "issued": "2015-06-22T14:05:00.000Z",
                "valueQuantity": {
                    "value": 177,
                    "unit": "cm",
                    "system": "http://unitsofmeasure.org",
                    "code": "cm"
                },
                "subject": {
                    "reference": "Patient/f40da2df-7505-315a-9acb-55513a02c37b"
                }
            },
            "request": {
                "method": "PUT",
                "url": "Observation/4893d915-1bce-32c9-a50a-4432570b4404"
            }
        },
        {
            "fullUrl": "urn:uuid:889886cd-0df5-3ea5-afb3-39cb8e8f4f18",
            "resource": {
                "resourceType": "Observation",
                "meta": {
                    "profile": [
                        "http://hl7.org/fhir/us/core/StructureDefinition/us-core-observationresults"
                    ]
                },
                "id": "889886cd-0df5-3ea5-afb3-39cb8e8f4f18",
                "identifier": [
                    {
                        "system": "urn:ietf:rfc:3986",
                        "value": "urn:uuid:1.3.6.1.4.1.22812.4.111.0.4.1.1.3"
                    }
                ],
                "category": [
                    {
                        "coding": [
                            {
                                "system": "http://terminology.hl7.org/CodeSystem/observation-category",
                                "code": "vital-signs"
                            }
                        ]
                    }
                ],
                "status": "final",
                "code": {
                    "coding": [
                        {
                            "code": "8310-5",
                            "display": "Body Temperature",
                            "system": "http://loinc.org"
                        }
                    ]
                },
                "effectiveDateTime": "2015-06-22T04:00:00.000Z",
                "issued": "2015-06-22T04:00:00.000Z",
                "valueQuantity": {
                    "value": 38,
                    "unit": "Cel",
                    "system": "http://unitsofmeasure.org",
                    "code": "Cel"
                },
                "subject": {
                    "reference": "Patient/f40da2df-7505-315a-9acb-55513a02c37b"
                }
            },
            "request": {
                "method": "PUT",
                "url": "Observation/889886cd-0df5-3ea5-afb3-39cb8e8f4f18"
            }
        },
        {
            "fullUrl": "urn:uuid:ba364293-9fd9-34e0-8709-3bae3dd5fa45",
            "resource": {
                "resourceType": "Observation",
                "meta": {
                    "profile": [
                        "http://hl7.org/fhir/us/core/StructureDefinition/us-core-observationresults"
                    ]
                },
                "id": "ba364293-9fd9-34e0-8709-3bae3dd5fa45",
                "identifier": [
                    {
                        "system": "urn:ietf:rfc:3986",
                        "value": "urn:uuid:1.3.6.1.4.1.22812.4.111.0.4.1.1.4"
                    }
                ],
                "category": [
                    {
                        "coding": [
                            {
                                "system": "http://terminology.hl7.org/CodeSystem/observation-category",
                                "code": "vital-signs"
                            }
                        ]
                    }
                ],
                "status": "final",
                "code": {
                    "coding": [
                        {
                            "code": "59408-5",
                            "display": "Oxygen saturation in Arterial blood by Pulse oximetry",
                            "system": "http://loinc.org"
                        },
                        {
                            "system": "http://loinc.org",
                            "code": "2708-6",
                            "display": "Oxygen saturation in Arterial blood"
                        }
                    ]
                },
                "effectiveDateTime": "2015-06-22T04:00:00.000Z",
                "issued": "2015-06-22T04:00:00.000Z",
                "valueQuantity": {
                    "value": 95,
                    "unit": "%",
                    "system": "http://unitsofmeasure.org",
                    "code": "%"
                },
                "subject": {
                    "reference": "Patient/f40da2df-7505-315a-9acb-55513a02c37b"
                },
                "component": [
                    {
                        "code": {
                            "coding": [
                                {
                                    "system": "http://loinc.org",
                                    "code": "3151-8",
                                    "display": "Inhaled oxygen flow rate"
                                }
                            ],
                            "text": "Inhaled oxygen flow rate"
                        },
                        "dataAbsentReason": {
                            "coding": [
                                {
                                    "system": "http://terminology.hl7.org/CodeSystem/data-absent-reason",
                                    "code": "unknown",
                                    "display": "Unknown"
                                }
                            ],
                            "text": "Unknown"
                        }
                    },
                    {
                        "code": {
                            "coding": [
                                {
                                    "system": "http://loinc.org",
                                    "code": "3150-0",
                                    "display": "Inhaled oxygen concentration"
                                }
                            ],
                            "text": "Inhaled oxygen concentration"
                        },
                        "dataAbsentReason": {
                            "coding": [
                                {
                                    "system": "http://terminology.hl7.org/CodeSystem/data-absent-reason",
                                    "code": "unknown",
                                    "display": "Unknown"
                                }
                            ],
                            "text": "Unknown"
                        }
                    }
                ]
            },
            "request": {
                "method": "PUT",
                "url": "Observation/ba364293-9fd9-34e0-8709-3bae3dd5fa45"
            }
        },
        {
            "fullUrl": "urn:uuid:c9bc6a0e-a670-3b3a-834b-d61f976642fc",
            "resource": {
                "resourceType": "Observation",
                "meta": {
                    "profile": [
                        "http://hl7.org/fhir/us/core/StructureDefinition/us-core-observationresults"
                    ]
                },
                "id": "c9bc6a0e-a670-3b3a-834b-d61f976642fc",
                "identifier": [
                    {
                        "system": "urn:ietf:rfc:3986",
                        "value": "urn:uuid:1.3.6.1.4.1.22812.4.111.0.4.1.1.5"
                    }
                ],
                "category": [
                    {
                        "coding": [
                            {
                                "system": "http://terminology.hl7.org/CodeSystem/observation-category",
                                "code": "vital-signs"
                            }
                        ]
                    }
                ],
                "status": "final",
                "code": {
                    "coding": [
                        {
                            "code": "8867-4",
                            "display": "Heart Rate",
                            "system": "http://loinc.org"
                        }
                    ]
                },
                "effectiveDateTime": "2015-06-22T04:00:00.000Z",
                "issued": "2015-06-22T04:00:00.000Z",
                "valueQuantity": {
                    "value": 80,
                    "unit": "/min",
                    "system": "http://unitsofmeasure.org",
                    "code": "/min"
                },
                "subject": {
                    "reference": "Patient/f40da2df-7505-315a-9acb-55513a02c37b"
                }
            },
            "request": {
                "method": "PUT",
                "url": "Observation/c9bc6a0e-a670-3b3a-834b-d61f976642fc"
            }
        },
        {
            "fullUrl": "urn:uuid:b8a8e92d-fc94-3cba-8b13-62b635aee332",
            "resource": {
                "resourceType": "Observation",
                "meta": {
                    "profile": [
                        "http://hl7.org/fhir/us/core/StructureDefinition/us-core-observationresults"
                    ]
                },
                "id": "b8a8e92d-fc94-3cba-8b13-62b635aee332",
                "identifier": [
                    {
                        "system": "urn:ietf:rfc:3986",
                        "value": "urn:uuid:1.3.6.1.4.1.22812.4.111.0.4.1.1.6"
                    }
                ],
                "category": [
                    {
                        "coding": [
                            {
                                "system": "http://terminology.hl7.org/CodeSystem/observation-category",
                                "code": "vital-signs"
                            }
                        ]
                    }
                ],
                "status": "final",
                "code": {
                    "coding": [
                        {
                            "code": "9279-1",
                            "display": "Respiratory Rate",
                            "system": "http://loinc.org"
                        }
                    ]
                },
                "effectiveDateTime": "2015-06-22T04:00:00.000Z",
                "issued": "2015-06-22T04:00:00.000Z",
                "valueQuantity": {
                    "value": 18,
                    "unit": "/min",
                    "system": "http://unitsofmeasure.org",
                    "code": "/min"
                },
                "subject": {
                    "reference": "Patient/f40da2df-7505-315a-9acb-55513a02c37b"
                }
            },
            "request": {
                "method": "PUT",
                "url": "Observation/b8a8e92d-fc94-3cba-8b13-62b635aee332"
            }
        },
        {
            "fullUrl": "urn:uuid:4b2bada9-e138-3497-a020-5547b9e76921",
            "resource": {
                "resourceType": "Observation",
                "meta": {
                    "profile": [
                        "http://hl7.org/fhir/us/core/StructureDefinition/us-core-observationresults"
                    ]
                },
                "id": "4b2bada9-e138-3497-a020-5547b9e76921",
                "identifier": [
                    {
                        "system": "urn:ietf:rfc:3986",
                        "value": "urn:uuid:1.3.6.1.4.1.22812.4.111.0.4.1.2.0"
                    }
                ],
                "category": [
                    {
                        "coding": [
                            {
                                "system": "http://terminology.hl7.org/CodeSystem/observation-category",
                                "code": "vital-signs"
                            }
                        ]
                    }
                ],
                "status": "final",
                "code": {
                    "coding": [
                        {
                            "code": "29463-7",
                            "display": "Body weight",
                            "system": "http://loinc.org"
                        }
                    ]
                },
                "effectiveDateTime": "2015-06-23T02:05:00.000Z",
                "issued": "2015-06-23T02:05:00.000Z",
                "valueQuantity": {
                    "value": 88,
                    "unit": "kg",
                    "system": "http://unitsofmeasure.org",
                    "code": "kg"
                },
                "subject": {
                    "reference": "Patient/f40da2df-7505-315a-9acb-55513a02c37b"
                }
            },
            "request": {
                "method": "PUT",
                "url": "Observation/4b2bada9-e138-3497-a020-5547b9e76921"
            }
        },
        {
            "fullUrl": "urn:uuid:dbfddaed-1b11-317b-a3ff-33b829f723d1",
            "resource": {
                "resourceType": "Observation",
                "meta": {
                    "profile": [
                        "http://hl7.org/fhir/us/core/StructureDefinition/us-core-observationresults"
                    ]
                },
                "id": "dbfddaed-1b11-317b-a3ff-33b829f723d1",
                "identifier": [
                    {
                        "system": "urn:ietf:rfc:3986",
                        "value": "urn:uuid:1.3.6.1.4.1.22812.4.111.0.4.1.3"
                    }
                ],
                "category": [
                    {
                        "coding": [
                            {
                                "system": "http://terminology.hl7.org/CodeSystem/observation-category",
                                "code": "vital-signs"
                            }
                        ]
                    }
                ],
                "status": "final",
                "code": {
                    "coding": [
                        {
                            "code": "85354-9",
                            "display": "Blood pressure panel with all children optional",
                            "system": "http://loinc.org"
                        }
                    ]
                },
                "effectiveDateTime": "2021-01-28T23:59:59.000Z",
                "issued": "2021-01-28T23:59:59.000Z",
                "component": [
                    {
                        "code": {
                            "coding": [
                                {
                                    "system": "http://loinc.org",
                                    "code": "8480-6",
                                    "display": "Systolic blood pressure"
                                }
                            ]
                        },
                        "valueQuantity": {
                            "value": 145,
                            "unit": "mmHg",
                            "system": "http://unitsofmeasure.org",
                            "code": "mm[Hg]"
                        }
                    },
                    {
                        "code": {
                            "coding": [
                                {
                                    "system": "http://loinc.org",
                                    "code": "8462-4",
                                    "display": "Diastolic blood pressure"
                                }
                            ]
                        },
                        "valueQuantity": {
                            "value": 90,
                            "unit": "mmHg",
                            "system": "http://unitsofmeasure.org",
                            "code": "mm[Hg]"
                        }
                    }
                ],
                "subject": {
                    "reference": "Patient/f40da2df-7505-315a-9acb-55513a02c37b"
                }
            },
            "request": {
                "method": "PUT",
                "url": "Observation/dbfddaed-1b11-317b-a3ff-33b829f723d1"
            }
        },
        {
            "fullUrl": "urn:uuid:11c099a0-2fc0-3ad7-9cf0-d7a720ea5cfe",
            "resource": {
                "resourceType": "Observation",
                "meta": {
                    "profile": [
                        "http://hl7.org/fhir/us/core/StructureDefinition/us-core-observationresults"
                    ]
                },
                "id": "11c099a0-2fc0-3ad7-9cf0-d7a720ea5cfe",
                "identifier": [
                    {
                        "system": "urn:ietf:rfc:3986",
                        "value": "urn:uuid:1.3.6.1.4.1.22812.4.111.0.4.1.3.0"
                    }
                ],
                "category": [
                    {
                        "coding": [
                            {
                                "system": "http://terminology.hl7.org/CodeSystem/observation-category",
                                "code": "vital-signs"
                            }
                        ]
                    }
                ],
                "status": "final",
                "code": {
                    "coding": [
                        {
                            "code": "29463-7",
                            "display": "Body weight",
                            "system": "http://loinc.org"
                        }
                    ]
                },
                "effectiveDateTime": "2021-01-28T05:00:00.000Z",
                "issued": "2021-01-28T05:00:00.000Z",
                "valueQuantity": {
                    "value": 104,
                    "unit": "kg",
                    "system": "http://unitsofmeasure.org",
                    "code": "kg"
                },
                "subject": {
                    "reference": "Patient/f40da2df-7505-315a-9acb-55513a02c37b"
                }
            },
            "request": {
                "method": "PUT",
                "url": "Observation/11c099a0-2fc0-3ad7-9cf0-d7a720ea5cfe"
            }
        },
        {
            "fullUrl": "urn:uuid:a4bd6cbd-b9f8-3780-b7a8-9d3adda61e52",
            "resource": {
                "resourceType": "Observation",
                "meta": {
                    "profile": [
                        "http://hl7.org/fhir/us/core/StructureDefinition/us-core-observationresults"
                    ]
                },
                "id": "a4bd6cbd-b9f8-3780-b7a8-9d3adda61e52",
                "identifier": [
                    {
                        "system": "urn:ietf:rfc:3986",
                        "value": "urn:uuid:1.3.6.1.4.1.22812.4.111.0.4.1.3.3"
                    }
                ],
                "category": [
                    {
                        "coding": [
                            {
                                "system": "http://terminology.hl7.org/CodeSystem/observation-category",
                                "code": "vital-signs"
                            }
                        ]
                    }
                ],
                "status": "final",
                "code": {
                    "coding": [
                        {
                            "code": "8302-2",
                            "display": "Body height",
                            "system": "http://loinc.org"
                        }
                    ]
                },
                "effectiveDateTime": "2021-01-28T05:00:00.000Z",
                "issued": "2021-01-28T05:00:00.000Z",
                "valueQuantity": {
                    "value": 177,
                    "unit": "cm",
                    "system": "http://unitsofmeasure.org",
                    "code": "cm"
                },
                "subject": {
                    "reference": "Patient/f40da2df-7505-315a-9acb-55513a02c37b"
                }
            },
            "request": {
                "method": "PUT",
                "url": "Observation/a4bd6cbd-b9f8-3780-b7a8-9d3adda61e52"
            }
        },
        {
            "fullUrl": "urn:uuid:c1762f6c-b896-3183-ad94-0aa1c4beab15",
            "resource": {
                "resourceType": "Observation",
                "meta": {
                    "profile": [
                        "http://hl7.org/fhir/us/core/StructureDefinition/us-core-observationresults"
                    ]
                },
                "id": "c1762f6c-b896-3183-ad94-0aa1c4beab15",
                "identifier": [
                    {
                        "system": "urn:ietf:rfc:3986",
                        "value": "urn:uuid:1.3.6.1.4.1.22812.4.111.0.4.1.4"
                    }
                ],
                "category": [
                    {
                        "coding": [
                            {
                                "system": "http://terminology.hl7.org/CodeSystem/observation-category",
                                "code": "vital-signs"
                            }
                        ]
                    }
                ],
                "status": "final",
                "code": {
                    "coding": [
                        {
                            "code": "85354-9",
                            "display": "Blood pressure panel with all children optional",
                            "system": "http://loinc.org"
                        }
                    ]
                },
                "effectiveDateTime": "2021-05-14T23:59:59.000Z",
                "issued": "2021-05-14T23:59:59.000Z",
                "component": [
                    {
                        "code": {
                            "coding": [
                                {
                                    "system": "http://loinc.org",
                                    "code": "8462-4",
                                    "display": "Diastolic blood pressure"
                                }
                            ]
                        },
                        "valueQuantity": {
                            "value": 90,
                            "unit": "mmHg",
                            "system": "http://unitsofmeasure.org",
                            "code": "mm[Hg]"
                        }
                    },
                    {
                        "code": {
                            "coding": [
                                {
                                    "system": "http://loinc.org",
                                    "code": "8480-6",
                                    "display": "Systolic blood pressure"
                                }
                            ]
                        },
                        "valueQuantity": {
                            "value": 160,
                            "unit": "mmHg",
                            "system": "http://unitsofmeasure.org",
                            "code": "mm[Hg]"
                        }
                    }
                ],
                "subject": {
                    "reference": "Patient/f40da2df-7505-315a-9acb-55513a02c37b"
                }
            },
            "request": {
                "method": "PUT",
                "url": "Observation/c1762f6c-b896-3183-ad94-0aa1c4beab15"
            }
        },
        {
            "fullUrl": "urn:uuid:efc450f1-bf82-3df2-91ab-52a0ab34168f",
            "resource": {
                "resourceType": "Procedure",
                "meta": {
                    "profile": [
                        "http://hl7.org/fhir/us/core/StructureDefinition/us-core-procedure"
                    ]
                },
                "id": "efc450f1-bf82-3df2-91ab-52a0ab34168f",
                "identifier": [
                    {
                        "system": "urn:ietf:rfc:3986",
                        "value": "urn:uuid:Procedure-4"
                    }
                ],
                "status": "completed",
                "code": {
                    "coding": [
                        {
                            "code": "56251003",
                            "display": "Nebulizer Therapy",
                            "system": "http://snomed.info/sct"
                        }
                    ]
                },
                "performedPeriod": {
                    "start": "2015-06-22T00:00:00.000Z"
                },
                "subject": {
                    "reference": "Patient/f40da2df-7505-315a-9acb-55513a02c37b"
                }
            },
            "request": {
                "method": "PUT",
                "url": "Procedure/efc450f1-bf82-3df2-91ab-52a0ab34168f"
            }
        },
        {
            "fullUrl": "urn:uuid:dc960e37-29ed-34c8-a651-c832b045ed95",
            "resource": {
                "resourceType": "Procedure",
                "meta": {
                    "profile": [
                        "http://hl7.org/fhir/us/core/StructureDefinition/us-core-procedure"
                    ]
                },
                "id": "dc960e37-29ed-34c8-a651-c832b045ed95",
                "identifier": [
                    {
                        "system": "urn:ietf:rfc:3986",
                        "value": "urn:uuid:Procedure-5"
                    }
                ],
                "status": "completed",
                "code": {
                    "coding": [
                        {
                            "code": "175135009",
                            "display": "Introduction of cardiac pacemaker system via vein",
                            "system": "http://snomed.info/sct"
                        }
                    ]
                },
                "performedPeriod": {
                    "start": "2011-10-05T00:00:00.000Z"
                },
                "subject": {
                    "reference": "Patient/f40da2df-7505-315a-9acb-55513a02c37b"
                }
            },
            "request": {
                "method": "PUT",
                "url": "Procedure/dc960e37-29ed-34c8-a651-c832b045ed95"
            }
        },
        {
            "fullUrl": "urn:uuid:76cf492e-2852-37d3-a398-5a99ddf2afb2",
            "resource": {
                "resourceType": "CarePlan",
                "id": "76cf492e-2852-37d3-a398-5a99ddf2afb2",
                "text": {
                    "status": "additional",
                    "div": "<div xmlns=\"http://www.w3.org/1999/xhtml\"><list>\n  <item>\n    Urinalysis macro (dipstick) panel | Date: 6/29/15\n    <ID>PlannedObservation2dab4f8583ce44848069b18556d1c183</ID>\n  </item>\n  <item>\n    i. Get an EKG done on 6/23/2015.ii. Get a Chest X-ray done on 6/23/2015 showing the Lower Respiratory TractStructure.iii. Take Clindamycin 300mg three times a day as needed if pain does not subside/iv. Schedule follow on visit with Neighborhood Physicians Practice on7/1/2015.\n    <ID>PlannedObservation7a8da4f2-b8e1-439f-a8dd-40091dd88452</ID>\n  </item>\n</list></div>"
                },
                "title": "Plan of Treatment",
                "category": [
                    {
                        "coding": [
                            {
                                "system": "http://hl7.org/fhir/us/core/CodeSystem/careplan-category",
                                "code": "assess-plan",
                                "display": "Assessment and Plan of Treatment"
                            }
                        ],
                        "text": "Assessment and Plan of Treatment"
                    }
                ],
                "status": "active",
                "intent": "plan",
                "subject": {
                    "reference": "Patient/f40da2df-7505-315a-9acb-55513a02c37b"
                }
            },
            "request": {
                "method": "PUT",
                "url": "CarePlan/76cf492e-2852-37d3-a398-5a99ddf2afb2"
            }
        },
        {
            "fullUrl": "urn:uuid:374b4995-0dd7-37af-b915-38bec3e0337b",
            "resource": {
                "resourceType": "Encounter",
                "id": "374b4995-0dd7-37af-b915-38bec3e0337b",
                "status": "finished",
                "class": {
                    "system": "http://terminology.hl7.org/CodeSystem/v3-ActCode",
                    "code": "AMB"
                },
                "type": [
                    {
                        "coding": [
                            {
                                "code": "29308-4",
                                "display": "Diagnosis",
                                "system": "http://loinc.org"
                            }
                        ]
                    }
                ],
                "reasonCode": [
                    {
                        "coding": [
                            {
                                "system": "http://snomed.info/sct",
                                "code": "55607006",
                                "display": "Problem"
                            }
                        ]
                    }
                ],
                "identifier": [
                    {
                        "system": "urn:ietf:rfc:3986",
                        "value": "urn:uuid:4bad68b7-298f-46ae-b68e-2cb06c2ec684"
                    }
                ],
                "period": {
                    "start": "2019-10-16T04:00:00.000Z"
                },
                "location": [
                    {
                        "location": {
                            "reference": "Location/604a79b8-d538-3959-a3ef-5ac66ee03e08"
                        }
                    }
                ],
                "participant": [
                    {
                        "individual": {
                            "reference": "Practitioner/17763d72-7526-32d1-a535-e60859682208"
                        },
                        "period": {
                            "start": "2019-10-16T04:00:00.000Z"
                        },
                        "type": [
                            {
                                "coding": [
                                    {
                                        "system": "http://terminology.hl7.org/CodeSystem/v3-ParticipationType",
                                        "code": "PPRF",
                                        "display": "primary performer"
                                    }
                                ]
                            }
                        ]
                    }
                ],
                "subject": {
                    "reference": "Patient/f40da2df-7505-315a-9acb-55513a02c37b"
                },
                "diagnosis": [
                    {
                        "condition": {
                            "reference": "Condition/2bd1153c-b561-3fc8-ab4c-ad476e7f1691"
                        }
                    }
                ]
            },
            "request": {
                "method": "PUT",
                "url": "Encounter/374b4995-0dd7-37af-b915-38bec3e0337b"
            }
        },
        {
            "fullUrl": "urn:uuid:2bd1153c-b561-3fc8-ab4c-ad476e7f1691",
            "resource": {
                "resourceType": "Condition",
                "id": "2bd1153c-b561-3fc8-ab4c-ad476e7f1691",
                "identifier": [
                    {
                        "system": "urn:ietf:rfc:3986",
                        "value": "urn:uuid:50c80ce7-0f02-43f1-acbc-140b0305346b"
                    }
                ],
                "verificationStatus": {
                    "coding": [
                        {
                            "system": "http://terminology.hl7.org/CodeSystem/condition-ver-status",
                            "code": "confirmed"
                        }
                    ]
                },
                "category": [
                    {
                        "coding": [
                            {
                                "system": "http://snomed.info/sct",
                                "code": "55607006",
                                "display": "Problem"
                            },
                            {
                                "system": "http://terminology.hl7.org/CodeSystem/condition-category",
                                "code": "problem-list-item"
                            }
                        ]
                    }
                ],
                "clinicalStatus": {
                    "coding": [
                        {
                            "system": "http://terminology.hl7.org/CodeSystem/condition-clinical",
                            "code": "inactive"
                        }
                    ]
                },
                "code": {
                    "coding": [
                        {
                            "code": "780.60",
                            "display": "Fever, unspecified",
                            "system": "urn:oid:2.16.840.1.113883.6.103"
                        }
                    ]
                },
                "onsetDateTime": "2015-06-22T04:00:00.000Z",
                "subject": {
                    "reference": "Patient/f40da2df-7505-315a-9acb-55513a02c37b"
                }
            },
            "request": {
                "method": "PUT",
                "url": "Condition/2bd1153c-b561-3fc8-ab4c-ad476e7f1691"
            }
        },
        {
            "fullUrl": "urn:uuid:46e4a369-1a33-3a57-9261-d813cd7d8f8f",
            "resource": {
                "resourceType": "Immunization",
                "id": "46e4a369-1a33-3a57-9261-d813cd7d8f8f",
                "identifier": [
                    {
                        "system": "urn:ietf:rfc:3986",
                        "value": "urn:uuid:84f439fd-318d-46d3-a4b3-b4fe839c9343"
                    }
                ],
                "occurrenceDateTime": "2021-01-28T05:00:00.000Z",
                "vaccineCode": {
                    "coding": [
                        {
                            "code": "207",
                            "display": "SARS-COV-2 (COVID-19) vaccine, mRNA, spike protein, LNP, preservative free, 100 mcg/0.5mL dose",
                            "system": "urn:oid:2.16.840.1.113883.12.292"
                        }
                    ]
                },
                "primarySource": true,
                "status": "completed",
                "statusReason": {
                    "coding": [
                        {
                            "system": "http://terminology.hl7.org/CodeSystem/v3-ActReason",
                            "code": "MEDPREC",
                            "display": "medical precaution"
                        }
                    ]
                },
                "route": {
                    "coding": [
                        {
                            "code": "C28161",
                            "display": "Intramuscular injection",
                            "system": "urn:oid:2.16.840.1.113883.3.26.1.1"
                        }
                    ]
                },
                "patient": {
                    "reference": "Patient/f40da2df-7505-315a-9acb-55513a02c37b"
                }
            },
            "request": {
                "method": "PUT",
                "url": "Immunization/46e4a369-1a33-3a57-9261-d813cd7d8f8f"
            }
        },
        {
            "fullUrl": "urn:uuid:ccd2e4b8-c302-383e-8898-d0ec25093125",
            "resource": {
                "resourceType": "Immunization",
                "id": "ccd2e4b8-c302-383e-8898-d0ec25093125",
                "identifier": [
                    {
                        "system": "urn:ietf:rfc:3986",
                        "value": "urn:uuid:2e7b74d2-b7cd-402a-bf71-5b4348fa1e86"
                    }
                ],
                "occurrenceDateTime": "2015-06-22T04:00:00.000Z",
                "vaccineCode": {
                    "coding": [
                        {
                            "code": "166",
                            "system": "urn:oid:2.16.840.1.113883.12.292"
                        }
                    ]
                },
                "primarySource": true,
                "status": "cancelled",
                "statusReason": {
                    "coding": [
                        {
                            "system": "http://terminology.hl7.org/CodeSystem/v3-ActReason",
                            "code": "MEDPREC",
                            "display": "medical precaution"
                        }
                    ]
                },
                "patient": {
                    "reference": "Patient/f40da2df-7505-315a-9acb-55513a02c37b"
                }
            },
            "request": {
                "method": "PUT",
                "url": "Immunization/ccd2e4b8-c302-383e-8898-d0ec25093125"
            }
        },
        {
            "fullUrl": "urn:uuid:ae27577a-64d8-3303-967c-9ad58b1cd0fe",
            "resource": {
                "resourceType": "Immunization",
                "id": "ae27577a-64d8-3303-967c-9ad58b1cd0fe",
                "identifier": [
                    {
                        "system": "urn:ietf:rfc:3986",
                        "value": "urn:uuid:f817d4fb-ecc6-43a2-a072-93e911015e77"
                    }
                ],
                "occurrenceDateTime": "2012-01-04T06:00:00.000Z",
                "vaccineCode": {
                    "coding": [
                        {
                            "code": "106",
                            "display": "diphtheria, tetanus toxoids and acellular pertussis vaccine, 5 pertussis antigens",
                            "system": "urn:oid:2.16.840.1.113883.12.292"
                        }
                    ]
                },
                "primarySource": true,
                "status": "completed",
                "statusReason": {
                    "coding": [
                        {
                            "system": "http://terminology.hl7.org/CodeSystem/v3-ActReason",
                            "code": "MEDPREC",
                            "display": "medical precaution"
                        }
                    ]
                },
                "route": {
                    "coding": [
                        {
                            "code": "C28161",
                            "display": "Intramuscular injection",
                            "system": "urn:oid:2.16.840.1.113883.3.26.1.1"
                        }
                    ]
                },
                "patient": {
                    "reference": "Patient/f40da2df-7505-315a-9acb-55513a02c37b"
                }
            },
            "request": {
                "method": "PUT",
                "url": "Immunization/ae27577a-64d8-3303-967c-9ad58b1cd0fe"
            }
        },
        {
            "fullUrl": "urn:uuid:296600cb-6150-34cf-b1d0-9eacc07cc506",
            "resource": {
                "resourceType": "Procedure",
                "meta": {
                    "profile": [
                        "http://hl7.org/fhir/us/core/StructureDefinition/us-core-procedure"
                    ]
                },
                "id": "296600cb-6150-34cf-b1d0-9eacc07cc506",
                "identifier": [
                    {
                        "system": "urn:oid:1.2.840.114350.1.13.5552.1.7.2.737780",
                        "value": "2744"
                    }
                ],
                "status": "active",
                "performedPeriod": {
                    "start": "2011-10-05T00:00:00.000Z"
                },
                "subject": {
                    "reference": "Patient/f40da2df-7505-315a-9acb-55513a02c37b"
                }
            },
            "request": {
                "method": "PUT",
                "url": "Procedure/296600cb-6150-34cf-b1d0-9eacc07cc506"
            }
        },
        {
            "fullUrl": "urn:uuid:ca6a8595-ecdf-3bc3-84bd-61426bb216d6",
            "resource": {
                "resourceType": "DocumentReference",
                "id": "ca6a8595-ecdf-3bc3-84bd-61426bb216d6",
                "type": {
                    "coding": [
                        {
                            "code": "34133-9",
                            "display": "Summarization of Episode Note",
                            "system": "http://loinc.org"
                        }
                    ]
                },
                "date": "2022-10-03T18:11:52.790Z",
                "status": "current",
                "content": [
                    {
                        "attachment": {
                            "contentType": "text/plain",
                            "data": "",
                            "hash": "lXHVXncNy9iXSZzXEs052fALPUs="
                        }
                    }
                ]
            },
            "request": {
                "method": "PUT",
                "url": "DocumentReference/ca6a8595-ecdf-3bc3-84bd-61426bb216d6"
            }
        }
    ]
}