{
    "resourceType": "Bundle",
    "type": "batch",
    "entry": [
        {
            "fullUrl": "urn:uuid:321d73b3-755a-3487-af64-77a2470429da",
            "resource": {
                "resourceType": "Composition",
                "id": "321d73b3-755a-3487-af64-77a2470429da",
                "identifier": {
                    "use": "official",
                    "value": "2.16.840.1.113883.3.3208.101.1"
                },
                "status": "final",
                "type": {
                    "coding": [
                        {
                            "code": "81334-5",
                            "display": "Personal adv care plan",
                            "system": "http://loinc.org"
                        }
                    ]
                },
                "date": "2014-07-31T23:22:00.000Z",
                "title": "Personal Advance Care Document",
                "confidentiality": "N",
                "subject": {
                    "reference": "Patient/9a67ecb1-3288-3996-971e-d6be22d795f8"
                },
                "custodian": {
                    "reference": "Organization/150ba850-1190-3e45-8370-faececd042c3"
                }
            },
            "request": {
                "method": "PUT",
                "url": "Composition/321d73b3-755a-3487-af64-77a2470429da"
            }
        },
        {
            "fullUrl": "urn:uuid:150ba850-1190-3e45-8370-faececd042c3",
            "resource": {
                "resourceType": "Organization",
                "id": "150ba850-1190-3e45-8370-faececd042c3",
                "identifier": [
                    {
                        "system": "http://hl7.org/fhir/sid/us-npi",
                        "value": "44444"
                    }
                ],
                "name": "MyDirectives.com",
                "address": [
                    {
                        "use": "work",
                        "line": [
                            "P.O. Box 832624"
                        ],
                        "city": "Richardson",
                        "state": "TX",
                        "country": "US",
                        "postalCode": "75083"
                    }
                ],
                "telecom": [
                    {
                        "system": "phone",
                        "value": "+1(202)776-7700",
                        "use": "work"
                    }
                ]
            },
            "request": {
                "method": "PUT",
                "url": "Organization/150ba850-1190-3e45-8370-faececd042c3"
            }
        },
        {
            "fullUrl": "urn:uuid:9a67ecb1-3288-3996-971e-d6be22d795f8",
            "resource": {
                "resourceType": "Patient",
                "meta": {
                    "profile": [
                        "http://hl7.org/fhir/us/core/StructureDefinition/us-core-patient"
                    ]
                },
                "id": "9a67ecb1-3288-3996-971e-d6be22d795f8",
                "identifier": [
                    {
                        "system": "urn:oid:2.16.840.1.113883.4.823.1",
                        "value": "20130607100800-McBeeID"
                    },
                    {
                        "system": "urn:oid:2.16.840.1.113883.9.9.9",
                        "value": "Roger.McBee@direct.max.md"
                    }
                ],
                "name": [
                    {
                        "use": "usual",
                        "family": "McBee",
                        "given": [
                            "Roger",
                            "Rienman"
                        ]
                    }
                ],
                "birthDate": "1930-09-11",
                "gender": "male",
                "extension": [
                    {
                        "url": "http://hl7.org/fhir/us/core/StructureDefinition/us-core-race",
                        "extension": [
                            {
                                "url": "ombCategory",
                                "valueCoding": {
                                    "code": "2106-3",
                                    "display": "White",
                                    "system": "urn:oid:2.16.840.1.113883.6.238"
                                }
                            },
                            {
                                "url": "text",
                                "valueString": "White"
                            }
                        ]
                    },
                    {
                        "url": "http://hl7.org/fhir/us/core/StructureDefinition/us-core-ethnicity",
                        "extension": [
                            {
                                "url": "ombCategory",
                                "valueCoding": {
                                    "code": "2186-5",
                                    "display": "Not Hispanic or Latino",
                                    "system": "urn:oid:2.16.840.1.113883.6.238"
                                }
                            },
                            {
                                "url": "text",
                                "valueString": "Not Hispanic or Latino"
                            }
                        ]
                    }
                ],
                "address": [
                    {
                        "use": "home",
                        "line": [
                            "1111 StreetName St."
                        ],
                        "city": "Silver Spring",
                        "state": "IL",
                        "country": "US",
                        "postalCode": "20901"
                    }
                ],
                "telecom": [
                    {
                        "system": "phone",
                        "value": "+1(301)111-1111",
                        "use": "home"
                    },
                    {
                        "system": "email",
                        "value": "roger.r.mcbee@fakegmail.com",
                        "use": "temp"
                    }
                ],
                "communication": [
                    {
                        "language": {
                            "coding": [
                                {
                                    "system": "urn:ietf:bcp:47",
                                    "code": "eng"
                                }
                            ]
                        }
                    }
                ]
            },
            "request": {
                "method": "PUT",
                "url": "Patient/9a67ecb1-3288-3996-971e-d6be22d795f8"
            }
        },
        {
            "fullUrl": "urn:uuid:d6f87286-91c2-3397-97e7-b56966a05d8f",
            "resource": {
                "resourceType": "DocumentReference",
                "id": "d6f87286-91c2-3397-97e7-b56966a05d8f",
                "type": {
                    "coding": [
                        {
                            "code": "81334-5",
                            "display": "Personal adv care plan",
                            "system": "http://loinc.org"
                        }
                    ]
                },
                "date": "2020-09-30T03:00:40.962Z",
                "status": "current",
                "content": [
                    {
                        "attachment": {
                            "contentType": "text/plain",
                            "data": "",
                            "hash": "fvdh5u6ckRNxGYxL+6QLaJIhLR4="
                        }
                    }
                ]
            },
            "request": {
                "method": "PUT",
                "url": "DocumentReference/d6f87286-91c2-3397-97e7-b56966a05d8f"
            }
        }
    ]
}