{
    "resourceType": "Bundle",
    "type": "batch",
    "entry": [
        {
            "fullUrl": "urn:uuid:3d56fc2f-b0bc-33ab-ae8e-263f91e8ea95",
            "resource": {
                "resourceType": "Composition",
                "id": "3d56fc2f-b0bc-33ab-ae8e-263f91e8ea95",
                "identifier": {
                    "use": "official",
                    "value": "6f1bd58b-c58f-40b7-b314-caf1294ed98b"
                },
                "status": "final",
                "type": {
                    "coding": [
                        {
                            "code": "57113-1",
                            "display": "Referral Note",
                            "system": "http://loinc.org"
                        }
                    ]
                },
                "date": "2013-09-21T13:00:00.000Z",
                "title": "Referral Note",
                "confidentiality": "N",
                "attester": [
                    {
                        "mode": "legal",
                        "time": "2013-09-16T06:36:15.000Z",
                        "party": {
                            "reference": "Practitioner/4939e179-a309-30ef-9889-e04751868181"
                        }
                    }
                ],
                "section": [
                    {
                        "title": "ADVANCE DIRECTIVES",
                        "text": {
                            "status": "generated",
                            "div": "<div xmlns=\"http://www.w3.org/1999/xhtml\">ADVANCE DIRECTIVES</div>"
                        },
                        "code": {
                            "coding": [
                                {
                                    "code": "42348-3",
                                    "system": "http://loinc.org"
                                }
                            ]
                        },
                        "mode": "snapshot",
                        "entry": [
                            {
                                "reference": "Consent/d952f845-68f0-309f-8e56-f0772b951e50"
                            }
                        ]
                    },
                    {
                        "title": "ALLERGIES AND ADVERSE REACTIONS",
                        "text": {
                            "status": "generated",
                            "div": "<div xmlns=\"http://www.w3.org/1999/xhtml\">ALLERGIES AND ADVERSE REACTIONS</div>"
                        },
                        "code": {
                            "coding": [
                                {
                                    "code": "48765-2",
                                    "system": "http://loinc.org"
                                }
                            ]
                        },
                        "mode": "snapshot",
                        "entry": [
                            {
                                "reference": "AllergyIntolerance/2f81c6de-bfa0-3518-837e-cb099137a422",
                                "display": "Penicillin"
                            },
                            {
                                "reference": "AllergyIntolerance/3326936b-2b3a-3fde-be84-adb8f1acd2aa",
                                "display": "Codeine"
                            }
                        ]
                    },
                    {
                        "title": "ASSESSMENT",
                        "text": {
                            "status": "generated",
                            "div": "<div xmlns=\"http://www.w3.org/1999/xhtml\">ASSESSMENT</div>"
                        },
                        "code": {
                            "coding": [
                                {
                                    "code": "51848-0",
                                    "display": "ASSESSMENT",
                                    "system": "http://loinc.org"
                                }
                            ]
                        },
                        "mode": "snapshot"
                    },
                    {
                        "title": "CHIEF COMPLAINT(S) AND REASON FOR VISIT",
                        "text": {
                            "status": "generated",
                            "div": "<div xmlns=\"http://www.w3.org/1999/xhtml\">CHIEF COMPLAINT(S) AND REASON FOR VISIT</div>"
                        },
                        "code": {
                            "coding": [
                                {
                                    "code": "46239-0",
                                    "display": "CHIEF COMPLAINT AND REASON FOR VISIT",
                                    "system": "http://loinc.org"
                                }
                            ]
                        },
                        "mode": "snapshot"
                    },
                    {
                        "title": "FAMILY HISTORY",
                        "text": {
                            "status": "generated",
                            "div": "<div xmlns=\"http://www.w3.org/1999/xhtml\">FAMILY HISTORY</div>"
                        },
                        "code": {
                            "coding": [
                                {
                                    "code": "10157-6",
                                    "system": "http://loinc.org"
                                }
                            ]
                        },
                        "mode": "snapshot",
                        "entry": [
                            {
                                "reference": "FamilyMemberHistory/2494b3bf-1bec-3be5-b4e9-5040ccb562e3"
                            }
                        ]
                    },
                    {
                        "title": "FUNCTIONAL STATUS",
                        "text": {
                            "status": "generated",
                            "div": "<div xmlns=\"http://www.w3.org/1999/xhtml\">FUNCTIONAL STATUS</div>"
                        },
                        "code": {
                            "coding": [
                                {
                                    "code": "47420-5",
                                    "display": "Functional Status",
                                    "system": "http://loinc.org"
                                }
                            ]
                        },
                        "mode": "snapshot",
                        "entry": [
                            {
                                "reference": "Condition/2588f26a-17a0-34a8-8d18-b408389b7026"
                            }
                        ]
                    },
                    {
                        "title": "HISTORY OF PRESENT ILLNESS",
                        "text": {
                            "status": "generated",
                            "div": "<div xmlns=\"http://www.w3.org/1999/xhtml\">HISTORY OF PRESENT ILLNESS</div>"
                        },
                        "code": {
                            "coding": [
                                {
                                    "code": "10164-2",
                                    "display": "HISTORY OF PRESENT ILLNESS",
                                    "system": "http://loinc.org"
                                }
                            ]
                        },
                        "mode": "snapshot"
                    },
                    {
                        "title": "MEDICATIONS",
                        "text": {
                            "status": "generated",
                            "div": "<div xmlns=\"http://www.w3.org/1999/xhtml\">MEDICATIONS</div>"
                        },
                        "code": {
                            "coding": [
                                {
                                    "code": "10160-0",
                                    "display": "HISTORY OF MEDICATION USE",
                                    "system": "http://loinc.org"
                                }
                            ]
                        },
                        "mode": "snapshot",
                        "entry": [
                            {
                                "reference": "MedicationStatement/e16f4c43-5998-3acd-8f4c-b2a67674f009"
                            },
                            {
                                "reference": "MedicationStatement/9179fb86-abaf-391b-89f7-144bc3767fc9"
                            }
                        ]
                    },
                    {
                        "title": "MEDICAL EQUIPMENT",
                        "text": {
                            "status": "generated",
                            "div": "<div xmlns=\"http://www.w3.org/1999/xhtml\">MEDICAL EQUIPMENT</div>"
                        },
                        "code": {
                            "coding": [
                                {
                                    "code": "46264-8",
                                    "system": "http://loinc.org"
                                }
                            ]
                        },
                        "mode": "snapshot",
                        "entry": [
                            {
                                "reference": "Device/225ef49c-2cde-3947-abb0-7639d4f488a5"
                            },
                            {
                                "reference": "Device/299b3789-b38d-35b0-95b3-d6df78b5fbbc"
                            },
                            {
                                "reference": "Device/103cee90-2a47-3c2b-9a72-e8eda2774d66"
                            }
                        ]
                    },
                    {
                        "title": "MENTAL STATUS",
                        "text": {
                            "status": "generated",
                            "div": "<div xmlns=\"http://www.w3.org/1999/xhtml\">MENTAL STATUS</div>"
                        },
                        "code": {
                            "coding": [
                                {
                                    "code": "10190-7",
                                    "display": "MENTAL STATUS",
                                    "system": "http://loinc.org"
                                }
                            ]
                        },
                        "mode": "snapshot"
                    },
                    {
                        "title": "NUTRITION SECTION",
                        "text": {
                            "status": "generated",
                            "div": "<div xmlns=\"http://www.w3.org/1999/xhtml\">NUTRITION SECTION</div>"
                        },
                        "code": {
                            "coding": [
                                {
                                    "code": "61144-2",
                                    "display": "Diet and Nutrition",
                                    "system": "http://loinc.org"
                                }
                            ]
                        },
                        "mode": "snapshot"
                    },
                    {
                        "title": "Physical Examination",
                        "text": {
                            "status": "generated",
                            "div": "<div xmlns=\"http://www.w3.org/1999/xhtml\">Physical Examination</div>"
                        },
                        "code": {
                            "coding": [
                                {
                                    "code": "29545-1",
                                    "display": "Physical Findings",
                                    "system": "http://loinc.org"
                                }
                            ]
                        },
                        "mode": "snapshot"
                    },
                    {
                        "title": "TREATMENT PLAN",
                        "text": {
                            "status": "generated",
                            "div": "<div xmlns=\"http://www.w3.org/1999/xhtml\">TREATMENT PLAN</div>"
                        },
                        "code": {
                            "coding": [
                                {
                                    "code": "18776-5",
                                    "display": "Treatment plan",
                                    "system": "http://loinc.org"
                                }
                            ]
                        },
                        "mode": "snapshot",
                        "entry": [
                            {
                                "reference": "CarePlan/17704798-7be3-394f-bfeb-3415a0b606ce"
                            },
                            {
                                "reference": "CarePlan/72aed3b1-0ace-3d82-9227-e4e616761435"
                            },
                            {
                                "reference": "CarePlan/f1ddaa99-e11f-33a9-b0bc-e08085cb45fb"
                            },
                            {
                                "reference": "CarePlan/70982163-9af2-3396-948a-aeb4e67cc75b"
                            },
                            {
                                "reference": "CarePlan/337391b5-1e19-3481-8fed-e6e2baeb9d3d"
                            }
                        ]
                    },
                    {
                        "title": "PROBLEMS",
                        "text": {
                            "status": "generated",
                            "div": "<div xmlns=\"http://www.w3.org/1999/xhtml\">PROBLEMS</div>"
                        },
                        "code": {
                            "coding": [
                                {
                                    "code": "11450-4",
                                    "display": "PROBLEM LIST",
                                    "system": "http://loinc.org"
                                }
                            ]
                        },
                        "mode": "snapshot",
                        "entry": [
                            {
                                "reference": "Condition/ba477002-a2c7-3b57-8496-244b4e92cf37"
                            },
                            {
                                "reference": "Condition/deb5ce17-57bd-38ee-937c-455a7e806dc7"
                            },
                            {
                                "reference": "Condition/a719b352-5049-3920-8642-b3e2c477e0ce"
                            }
                        ]
                    },
                    {
                        "title": "Procedures",
                        "text": {
                            "status": "generated",
                            "div": "<div xmlns=\"http://www.w3.org/1999/xhtml\">Procedures</div>"
                        },
                        "code": {
                            "coding": [
                                {
                                    "code": "47519-4",
                                    "display": "History of Procedures",
                                    "system": "http://loinc.org"
                                }
                            ]
                        },
                        "mode": "snapshot",
                        "entry": [
                            {
                                "reference": "Procedure/e8a846b8-b0dd-3c99-97e0-d21b3dc764d9"
                            },
                            {
                                "reference": "Procedure/2fc08ed6-19cc-3640-b150-6aa261c6c49d"
                            },
                            {
                                "reference": "Procedure/adf32b20-3e65-3fca-bb91-b31fe6f0de4a"
                            }
                        ]
                    },
                    {
                        "title": "REASON FOR REFERRAL",
                        "text": {
                            "status": "generated",
                            "div": "<div xmlns=\"http://www.w3.org/1999/xhtml\">REASON FOR REFERRAL</div>"
                        },
                        "code": {
                            "coding": [
                                {
                                    "code": "42349-1",
                                    "display": "Reason for Referral ",
                                    "system": "http://loinc.org"
                                }
                            ]
                        },
                        "mode": "snapshot"
                    },
                    {
                        "title": "RESULTS",
                        "text": {
                            "status": "generated",
                            "div": "<div xmlns=\"http://www.w3.org/1999/xhtml\">RESULTS</div>"
                        },
                        "code": {
                            "coding": [
                                {
                                    "code": "30954-2",
                                    "display": "RESULTS",
                                    "system": "http://loinc.org"
                                }
                            ]
                        },
                        "mode": "snapshot",
                        "entry": [
                            {
                                "reference": "DiagnosticReport/d7c9c2eb-dad5-3a4f-91c8-a50721795632"
                            },
                            {
                                "reference": "DiagnosticReport/1fbd4100-6069-365c-87b9-9c37c66bdbca"
                            }
                        ]
                    },
                    {
                        "title": "VITAL SIGNS",
                        "text": {
                            "status": "generated",
                            "div": "<div xmlns=\"http://www.w3.org/1999/xhtml\">VITAL SIGNS</div>"
                        },
                        "code": {
                            "coding": [
                                {
                                    "code": "8716-3",
                                    "display": "VITAL SIGNS",
                                    "system": "http://loinc.org"
                                }
                            ]
                        },
                        "mode": "snapshot",
                        "entry": [
                            {
                                "reference": "Observation/1e9caa79-2528-3988-99da-3786a99ad7ab",
                                "display": "Height"
                            },
                            {
                                "reference": "Observation/19beb9fa-22cd-389b-a362-739b49e470b4",
                                "display": "Patient Body Weight - Measured"
                            },
                            {
                                "reference": "Observation/62a93fc8-6a29-3b68-b573-a00036851160",
                                "display": "Intravascular Systolic"
                            },
                            {
                                "reference": "Observation/61faa1ca-a3d3-31b3-9dd8-75d0bc04ec80",
                                "display": "BP Diastolic"
                            },
                            {
                                "reference": "Observation/aaec862f-6ab0-376c-83e0-eba56d36b80b",
                                "display": "Height"
                            },
                            {
                                "reference": "Observation/da774ce5-94ed-34de-8d52-a8f70322dae6",
                                "display": "Patient Body Weight - Measured"
                            },
                            {
                                "reference": "Observation/af97fb57-3e40-3983-86f9-bdfe3cbebff4",
                                "display": "BP Systolic"
                            },
                            {
                                "reference": "Observation/0d0ef4d3-5b49-3066-b980-b3f0aff2de97",
                                "display": "BP Diastolic"
                            }
                        ]
                    }
                ],
                "subject": {
                    "reference": "Patient/2745d583-e3d1-3f88-8b21-7b59adb60779"
                },
                "custodian": {
                    "reference": "Organization/2db1cde5-fcf8-341d-94fb-fa21b03c1415"
                },
                "author": [
                    {
                        "reference": "Practitioner/4939e179-a309-30ef-9889-e04751868181"
                    }
                ]
            },
            "request": {
                "method": "PUT",
                "url": "Composition/3d56fc2f-b0bc-33ab-ae8e-263f91e8ea95"
            }
        },
        {
            "fullUrl": "urn:uuid:4939e179-a309-30ef-9889-e04751868181",
            "resource": {
                "resourceType": "Practitioner",
                "meta": {
                    "profile": [
                        "http://hl7.org/fhir/us/core/StructureDefinition/us-core-practitioner"
                    ]
                },
                "id": "4939e179-a309-30ef-9889-e04751868181",
                "identifier": [
                    {
                        "system": "http://hl7.org/fhir/sid/us-npi",
                        "value": "5555555555"
                    }
                ],
                "name": [
                    {
                        "family": "Primary",
                        "given": [
                            "Patricia",
                            "Patty"
                        ],
                        "suffix": [
                            "M.D."
                        ]
                    }
                ],
                "address": [
                    {
                        "line": [
                            "1004 Healthcare Drive"
                        ],
                        "city": "Portland",
                        "state": "OR",
                        "country": "US",
                        "postalCode": "99123"
                    }
                ],
                "telecom": [
                    {
                        "system": "phone",
                        "value": "+1(555)-1004",
                        "use": "work"
                    },
                    {
                        "system": "phone",
                        "value": "+1(555)555-1004",
                        "use": "work"
                    }
                ],
                "qualification": [
                    {
                        "code": {
                            "coding": [
                                {
                                    "code": "207QA0505X",
                                    "display": "Adult Medicine",
                                    "system": "http://nucc.org/provider-taxonomy"
                                }
                            ]
                        }
                    },
                    {
                        "code": {
                            "coding": [
                                {
                                    "code": "207QA0505X",
                                    "display": "Adult Medicine",
                                    "system": "urn:oid:2.16.840.1.113883.5.53"
                                }
                            ]
                        }
                    }
                ]
            },
            "request": {
                "method": "PUT",
                "url": "Practitioner/4939e179-a309-30ef-9889-e04751868181"
            }
        },
        {
            "fullUrl": "urn:uuid:2db1cde5-fcf8-341d-94fb-fa21b03c1415",
            "resource": {
                "resourceType": "Organization",
                "id": "2db1cde5-fcf8-341d-94fb-fa21b03c1415",
                "identifier": [
                    {
                        "system": "http://hl7.org/fhir/sid/us-npi",
                        "value": "321CX"
                    }
                ],
                "name": "Good Health HIE",
                "address": [
                    {
                        "use": "work",
                        "line": [
                            "1009 Healthcare Drive"
                        ],
                        "city": "Portland",
                        "state": "OR",
                        "country": "US",
                        "postalCode": "99123"
                    }
                ],
                "telecom": [
                    {
                        "system": "phone",
                        "value": "+1(555)-1009",
                        "use": "work"
                    }
                ]
            },
            "request": {
                "method": "PUT",
                "url": "Organization/2db1cde5-fcf8-341d-94fb-fa21b03c1415"
            }
        },
        {
            "fullUrl": "urn:uuid:2745d583-e3d1-3f88-8b21-7b59adb60779",
            "resource": {
                "resourceType": "Patient",
                "meta": {
                    "profile": [
                        "http://hl7.org/fhir/us/core/StructureDefinition/us-core-patient"
                    ]
                },
                "id": "2745d583-e3d1-3f88-8b21-7b59adb60779",
                "identifier": [
                    {
                        "system": "http://hl7.org/fhir/sid/us-ssn",
                        "value": "444222222"
                    }
                ],
                "name": [
                    {
                        "use": "usual",
                        "family": "Betterhalf",
                        "given": [
                            "Eve"
                        ]
                    },
                    {
                        "family": "Everywoman",
                        "given": [
                            "Eve"
                        ]
                    }
                ],
                "birthDate": "1975-05-01",
                "gender": "female",
                "extension": [
                    {
                        "url": "http://hl7.org/fhir/us/core/StructureDefinition/us-core-race",
                        "extension": [
                            {
                                "url": "ombCategory",
                                "valueCoding": {
                                    "code": "2106-3",
                                    "display": "White",
                                    "system": "urn:oid:2.16.840.1.113883.6.238"
                                }
                            },
                            {
                                "url": "ombCategory",
                                "valueCoding": {
                                    "code": "2076-8",
                                    "display": "Hawaiian or Other Pacific Islander",
                                    "system": "urn:oid:2.16.840.1.113883.6.238"
                                }
                            },
                            {
                                "url": "text",
                                "valueString": "Mixed"
                            }
                        ]
                    },
                    {
                        "url": "http://hl7.org/fhir/us/core/StructureDefinition/us-core-ethnicity",
                        "extension": [
                            {
                                "url": "ombCategory",
                                "valueCoding": {
                                    "code": "2186-5",
                                    "display": "Not Hispanic or Latino",
                                    "system": "urn:oid:2.16.840.1.113883.6.238"
                                }
                            },
                            {
                                "url": "text",
                                "valueString": "Not Hispanic or Latino"
                            }
                        ]
                    }
                ],
                "address": [
                    {
                        "use": "home",
                        "line": [
                            "2222 Home Street"
                        ],
                        "city": "Beaverton",
                        "state": "OR",
                        "country": "US",
                        "postalCode": "97867"
                    }
                ],
                "telecom": [
                    {
                        "system": "phone",
                        "value": "+1(555)555-2003",
                        "use": "home"
                    }
                ],
                "communication": [
                    {
                        "language": {
                            "coding": [
                                {
                                    "system": "urn:ietf:bcp:47",
                                    "code": "eng"
                                }
                            ]
                        },
                        "preferred": true
                    }
                ]
            },
            "request": {
                "method": "PUT",
                "url": "Patient/2745d583-e3d1-3f88-8b21-7b59adb60779"
            }
        },
        {
            "fullUrl": "urn:uuid:5fab84f6-27ae-3100-a4be-3785d3a7a76b",
            "resource": {
                "resourceType": "RelatedPerson",
                "id": "5fab84f6-27ae-3100-a4be-3785d3a7a76b",
                "relationship": [
                    {
                        "coding": [
                            {
                                "code": "POWATT",
                                "display": "Power of Attorney",
                                "system": "urn:oid:2.16.840.1.113883.1.11.19830"
                            }
                        ]
                    }
                ],
                "name": [
                    {
                        "family": "Betterhalf",
                        "given": [
                            "Boris",
                            "Bo"
                        ]
                    }
                ],
                "telecom": [
                    {
                        "system": "phone",
                        "value": "+1(555)555-2008",
                        "use": "mobile"
                    }
                ],
                "address": [
                    {
                        "use": "home",
                        "line": [
                            "2222 Home Street"
                        ],
                        "city": "Beaverton",
                        "state": "OR",
                        "country": "US",
                        "postalCode": "97867"
                    }
                ],
                "patient": {
                    "reference": "Patient/2745d583-e3d1-3f88-8b21-7b59adb60779"
                }
            },
            "request": {
                "method": "PUT",
                "url": "RelatedPerson/5fab84f6-27ae-3100-a4be-3785d3a7a76b"
            }
        },
        {
            "fullUrl": "urn:uuid:b201b12e-ac3d-318f-83e3-3574c19f3b65",
            "resource": {
                "resourceType": "AllergyIntolerance",
                "id": "b201b12e-ac3d-318f-83e3-3574c19f3b65",
                "identifier": [
                    {
                        "system": "urn:ietf:rfc:3986",
                        "value": "urn:uuid:4adc1020-7b14-11db-9fe1-0800200c9a66"
                    }
                ],
                "clinicalStatus": {
                    "coding": [
                        {
                            "system": "http://terminology.hl7.org/CodeSystem/allergyintolerance-clinical",
                            "code": "active"
                        }
                    ]
                },
                "reaction": [
                    {
                        "substance": {
                            "coding": [
                                {
                                    "code": "70618",
                                    "display": "Penicillin",
                                    "system": "http://www.nlm.nih.gov/research/umls/rxnorm"
                                }
                            ]
                        },
                        "manifestation": [
                            {
                                "coding": [
                                    {
                                        "code": "422587007",
                                        "display": "Nausea",
                                        "system": "http://snomed.info/sct"
                                    }
                                ]
                            }
                        ],
                        "onset": "2008-02-26T16:05:00.000Z"
                    }
                ],
                "onsetDateTime": "1998-05-01",
                "patient": {
                    "reference": "Patient/2745d583-e3d1-3f88-8b21-7b59adb60779"
                }
            },
            "request": {
                "method": "PUT",
                "url": "AllergyIntolerance/b201b12e-ac3d-318f-83e3-3574c19f3b65"
            }
        },
        {
            "fullUrl": "urn:uuid:47dbc556-8fd1-3caf-a11c-e944ef02c78d",
            "resource": {
                "resourceType": "AllergyIntolerance",
                "id": "47dbc556-8fd1-3caf-a11c-e944ef02c78d",
                "identifier": [
                    {
                        "system": "urn:ietf:rfc:3986",
                        "value": "urn:uuid:901db0f8-9355-4794-81cd-fd951ef07917"
                    }
                ],
                "clinicalStatus": {
                    "coding": [
                        {
                            "system": "http://terminology.hl7.org/CodeSystem/allergyintolerance-clinical",
                            "code": "active"
                        }
                    ]
                },
                "reaction": [
                    {
                        "substance": {
                            "coding": [
                                {
                                    "code": "2670",
                                    "display": "Codeine",
                                    "system": "http://www.nlm.nih.gov/research/umls/rxnorm"
                                }
                            ]
                        },
                        "manifestation": [
                            {
                                "coding": [
                                    {
                                        "code": "56018004",
                                        "display": "Wheezing",
                                        "system": "http://snomed.info/sct"
                                    }
                                ]
                            }
                        ],
                        "severity": "mild"
                    }
                ],
                "patient": {
                    "reference": "Patient/2745d583-e3d1-3f88-8b21-7b59adb60779"
                }
            },
            "request": {
                "method": "PUT",
                "url": "AllergyIntolerance/47dbc556-8fd1-3caf-a11c-e944ef02c78d"
            }
        },
        {
            "fullUrl": "urn:uuid:93a30562-b470-3223-bd61-619e3a87e08e",
            "resource": {
                "resourceType": "MedicationStatement",
                "id": "93a30562-b470-3223-bd61-619e3a87e08e",
                "identifier": [
                    {
                        "system": "urn:ietf:rfc:3986",
                        "value": "urn:uuid:cdbd33f0-6cde-11db-9fe1-0800200c9a66"
                    }
                ],
                "status": "active",
                "dosage": [
                    {
                        "doseAndRate": [
                            {
                                "doseQuantity": {
                                    "value": 2
                                }
                            }
                        ]
                    }
                ],
                "subject": {
                    "reference": "Patient/2745d583-e3d1-3f88-8b21-7b59adb60779"
                },
                "medicationReference": {
                    "reference": "Medication/e8542bc8-91e7-32e4-96a5-7b2e159b8672"
                }
            },
            "request": {
                "method": "PUT",
                "url": "MedicationStatement/93a30562-b470-3223-bd61-619e3a87e08e"
            }
        },
        {
            "fullUrl": "urn:uuid:e8542bc8-91e7-32e4-96a5-7b2e159b8672",
            "resource": {
                "resourceType": "Medication",
                "id": "e8542bc8-91e7-32e4-96a5-7b2e159b8672",
                "code": {
                    "coding": [
                        {
                            "code": "573621",
                            "display": "Proventil 0.09 MG/ACTUAT inhalant solution",
                            "system": "http://www.nlm.nih.gov/research/umls/rxnorm"
                        }
                    ]
                }
            },
            "request": {
                "method": "PUT",
                "url": "Medication/e8542bc8-91e7-32e4-96a5-7b2e159b8672"
            }
        },
        {
            "fullUrl": "urn:uuid:0d3aac13-5767-385c-ace0-2a20a5d2a143",
            "resource": {
                "resourceType": "MedicationStatement",
                "id": "0d3aac13-5767-385c-ace0-2a20a5d2a143",
                "identifier": [
                    {
                        "system": "urn:ietf:rfc:3986",
                        "value": "urn:uuid:6c844c75-aa34-411c-b7bd-5e4a9f206e29"
                    }
                ],
                "status": "active",
                "dosage": [
                    {
                        "doseAndRate": [
                            {
                                "doseQuantity": {
                                    "value": 1
                                }
                            }
                        ]
                    }
                ],
                "subject": {
                    "reference": "Patient/2745d583-e3d1-3f88-8b21-7b59adb60779"
                },
                "medicationReference": {
                    "reference": "Medication/eaa01790-b0cc-3c1e-bfa1-bce758cbc962"
                }
            },
            "request": {
                "method": "PUT",
                "url": "MedicationStatement/0d3aac13-5767-385c-ace0-2a20a5d2a143"
            }
        },
        {
            "fullUrl": "urn:uuid:eaa01790-b0cc-3c1e-bfa1-bce758cbc962",
            "resource": {
                "resourceType": "Medication",
                "id": "eaa01790-b0cc-3c1e-bfa1-bce758cbc962",
                "code": {
                    "coding": [
                        {
                            "code": "197380",
                            "display": "Atenolol 25 MG Oral Tablet",
                            "system": "http://www.nlm.nih.gov/research/umls/rxnorm"
                        }
                    ]
                }
            },
            "request": {
                "method": "PUT",
                "url": "Medication/eaa01790-b0cc-3c1e-bfa1-bce758cbc962"
            }
        },
        {
            "fullUrl": "urn:uuid:e598faae-598e-3ccf-b9e4-b690a62f082c",
            "resource": {
                "resourceType": "Condition",
                "id": "e598faae-598e-3ccf-b9e4-b690a62f082c",
                "identifier": [
                    {
                        "system": "urn:ietf:rfc:3986",
                        "value": "urn:uuid:ab1791b0-5c71-11db-b0de-0800200c9a66"
                    }
                ],
                "code": {
                    "coding": [
                        {
                            "code": "190389009",
                            "display": "Type II diabetes mellitus with ulcer (disorder)",
                            "system": "http://snomed.info/sct"
                        }
                    ]
                },
                "onsetDateTime": "2000-07-03",
                "subject": {
                    "reference": "Patient/2745d583-e3d1-3f88-8b21-7b59adb60779"
                }
            },
            "request": {
                "method": "PUT",
                "url": "Condition/e598faae-598e-3ccf-b9e4-b690a62f082c"
            }
        },
        {
            "fullUrl": "urn:uuid:8525c6eb-dce8-31d1-8193-1b9f6a94f99f",
            "resource": {
                "resourceType": "Condition",
                "id": "8525c6eb-dce8-31d1-8193-1b9f6a94f99f",
                "identifier": [
                    {
                        "system": "urn:ietf:rfc:3986",
                        "value": "urn:uuid:11d088a8-b957-401c-8ee0-3bd20a772fc0"
                    }
                ],
                "code": {
                    "coding": [
                        {
                            "code": "195977004",
                            "display": "mixed asthma",
                            "system": "http://snomed.info/sct"
                        }
                    ]
                },
                "onsetDateTime": "2007-04-14",
                "subject": {
                    "reference": "Patient/2745d583-e3d1-3f88-8b21-7b59adb60779"
                }
            },
            "request": {
                "method": "PUT",
                "url": "Condition/8525c6eb-dce8-31d1-8193-1b9f6a94f99f"
            }
        },
        {
            "fullUrl": "urn:uuid:8d59dda0-fc9b-3a8f-b513-e9f16b95d6d8",
            "resource": {
                "resourceType": "Condition",
                "id": "8d59dda0-fc9b-3a8f-b513-e9f16b95d6d8",
                "identifier": [
                    {
                        "system": "urn:ietf:rfc:3986",
                        "value": "urn:uuid:4991db40-4c4f-41e8-9146-50c12d716424"
                    }
                ],
                "code": {
                    "coding": [
                        {
                            "code": "304527002",
                            "display": "Acute Asthma",
                            "system": "http://snomed.info/sct"
                        }
                    ]
                },
                "onsetDateTime": "2007-04-17",
                "subject": {
                    "reference": "Patient/2745d583-e3d1-3f88-8b21-7b59adb60779"
                }
            },
            "request": {
                "method": "PUT",
                "url": "Condition/8d59dda0-fc9b-3a8f-b513-e9f16b95d6d8"
            }
        },
        {
            "fullUrl": "urn:uuid:6d2790dc-dba8-3032-a8c9-a9e405978194",
            "resource": {
                "resourceType": "Condition",
                "id": "6d2790dc-dba8-3032-a8c9-a9e405978194",
                "identifier": [
                    {
                        "system": "urn:ietf:rfc:3986",
                        "value": "urn:uuid:10506b4d-c30a-4220-8bec-97bff9568fd1"
                    }
                ],
                "code": {
                    "coding": [
                        {
                            "code": "233604007",
                            "display": "Pneumonia",
                            "system": "http://snomed.info/sct"
                        }
                    ]
                },
                "onsetDateTime": "1998-03-10",
                "subject": {
                    "reference": "Patient/2745d583-e3d1-3f88-8b21-7b59adb60779"
                }
            },
            "request": {
                "method": "PUT",
                "url": "Condition/6d2790dc-dba8-3032-a8c9-a9e405978194"
            }
        },
        {
            "fullUrl": "urn:uuid:13b101c8-495f-3b23-8baa-f4ae4765a547",
            "resource": {
                "resourceType": "DiagnosticReport",
                "id": "13b101c8-495f-3b23-8baa-f4ae4765a547",
                "identifier": [
                    {
                        "system": "urn:ietf:rfc:3986",
                        "value": "urn:uuid:7d5a02b0-67a4-11db-bd13-0800200c9a66"
                    }
                ],
                "status": "final",
                "code": {
                    "coding": [
                        {
                            "code": "57021-8",
                            "display": "CBC W Auto Differential panel in Blood",
                            "system": "http://loinc.org"
                        }
                    ]
                },
                "effectivePeriod": {
                    "start": "2013-03-11T16:30:00.000Z",
                    "end": "2013-03-11T16:30:00.000Z"
                },
                "subject": {
                    "reference": "Patient/2745d583-e3d1-3f88-8b21-7b59adb60779"
                },
                "result": [
                    {
                        "reference": "Observation/b87d8267-3a8f-3382-8be2-7599e1c37a4a"
                    },
                    {
                        "reference": "Observation/e44b0984-fddb-3b8f-99c1-179c971054fd"
                    },
                    {
                        "reference": "Observation/92b4f6cb-5e0c-368a-a744-36f7a0d4e483"
                    },
                    {
                        "reference": "Observation/f0c0415d-878d-378e-be7f-24cfcb3acd04"
                    },
                    {
                        "reference": "Observation/43544d2d-15fa-3b83-8d25-c0db51914425"
                    }
                ]
            },
            "request": {
                "method": "PUT",
                "url": "DiagnosticReport/13b101c8-495f-3b23-8baa-f4ae4765a547"
            }
        },
        {
            "fullUrl": "urn:uuid:b87d8267-3a8f-3382-8be2-7599e1c37a4a",
            "resource": {
                "resourceType": "Observation",
                "meta": {
                    "profile": [
                        "http://hl7.org/fhir/us/core/StructureDefinition/us-core-observationresults"
                    ]
                },
                "id": "b87d8267-3a8f-3382-8be2-7599e1c37a4a",
                "identifier": [
                    {
                        "system": "urn:ietf:rfc:3986",
                        "value": "urn:uuid:107c2dc0-67a5-11db-bd13-0800200c9a66"
                    }
                ],
                "category": [
                    {
                        "coding": [
                            {
                                "system": "http://terminology.hl7.org/CodeSystem/observation-category",
                                "code": "laboratory"
                            }
                        ]
                    }
                ],
                "status": "final",
                "code": {
                    "coding": [
                        {
                            "code": "718-7",
                            "display": "Hemoglobin",
                            "system": "http://loinc.org"
                        }
                    ]
                },
                "effectiveDateTime": "2013-03-11T16:30:00.000Z",
                "valueQuantity": {
                    "value": 13.2,
                    "unit": "g/dL"
                },
                "referenceRange": [
                    {
                        "low": {
                            "value": 12,
                            "unit": "g/dL"
                        },
                        "high": {
                            "value": 15.5,
                            "unit": "g/dL"
                        }
                    }
                ],
                "interpretation": [
                    {
                        "coding": [
                            {
                                "code": "N",
                                "system": "http://terminology.hl7.org/CodeSystem/v3-ObservationInterpretation"
                            }
                        ]
                    }
                ],
                "subject": {
                    "reference": "Patient/2745d583-e3d1-3f88-8b21-7b59adb60779"
                },
                "performer": [
                    {
                        "reference": "Practitioner/7b28babc-fd6e-3540-b98f-2b6a0901138d"
                    }
                ]
            },
            "request": {
                "method": "PUT",
                "url": "Observation/b87d8267-3a8f-3382-8be2-7599e1c37a4a"
            }
        },
        {
            "fullUrl": "urn:uuid:e44b0984-fddb-3b8f-99c1-179c971054fd",
            "resource": {
                "resourceType": "Observation",
                "meta": {
                    "profile": [
                        "http://hl7.org/fhir/us/core/StructureDefinition/us-core-observationresults"
                    ]
                },
                "id": "e44b0984-fddb-3b8f-99c1-179c971054fd",
                "identifier": [
                    {
                        "system": "urn:ietf:rfc:3986",
                        "value": "urn:uuid:a69b3d60-2ffd-4440-958b-72b3335ff35f"
                    }
                ],
                "category": [
                    {
                        "coding": [
                            {
                                "system": "http://terminology.hl7.org/CodeSystem/observation-category",
                                "code": "laboratory"
                            }
                        ]
                    }
                ],
                "status": "final",
                "code": {
                    "coding": [
                        {
                            "code": "6690-2",
                            "display": "Leukocytes",
                            "system": "http://loinc.org"
                        }
                    ]
                },
                "effectiveDateTime": "2013-03-11T16:30:00.000Z",
                "valueQuantity": {
                    "value": 6.7,
                    "unit": "10*9/L"
                },
                "referenceRange": [
                    {
                        "low": {
                            "value": 4.3,
                            "unit": "10*9/L"
                        },
                        "high": {
                            "value": 10.8,
                            "unit": "10*9/L"
                        }
                    }
                ],
                "interpretation": [
                    {
                        "coding": [
                            {
                                "code": "N",
                                "system": "http://terminology.hl7.org/CodeSystem/v3-ObservationInterpretation"
                            }
                        ]
                    }
                ],
                "subject": {
                    "reference": "Patient/2745d583-e3d1-3f88-8b21-7b59adb60779"
                },
                "performer": [
                    {
                        "reference": "Practitioner/7b28babc-fd6e-3540-b98f-2b6a0901138d"
                    }
                ]
            },
            "request": {
                "method": "PUT",
                "url": "Observation/e44b0984-fddb-3b8f-99c1-179c971054fd"
            }
        },
        {
            "fullUrl": "urn:uuid:92b4f6cb-5e0c-368a-a744-36f7a0d4e483",
            "resource": {
                "resourceType": "Observation",
                "meta": {
                    "profile": [
                        "http://hl7.org/fhir/us/core/StructureDefinition/us-core-observationresults"
                    ]
                },
                "id": "92b4f6cb-5e0c-368a-a744-36f7a0d4e483",
                "identifier": [
                    {
                        "system": "urn:ietf:rfc:3986",
                        "value": "urn:uuid:ef5c1c58-4665-4556-a8e8-6e720d82f572"
                    }
                ],
                "category": [
                    {
                        "coding": [
                            {
                                "system": "http://terminology.hl7.org/CodeSystem/observation-category",
                                "code": "laboratory"
                            }
                        ]
                    }
                ],
                "status": "final",
                "code": {
                    "coding": [
                        {
                            "code": "777-3",
                            "display": "Platelets",
                            "system": "http://loinc.org"
                        }
                    ]
                },
                "effectiveDateTime": "2013-03-11T16:30:00.000Z",
                "valueQuantity": {
                    "value": 123,
                    "unit": "10*9/L"
                },
                "referenceRange": [
                    {
                        "low": {
                            "value": 150,
                            "unit": "10*9/L"
                        },
                        "high": {
                            "value": 350,
                            "unit": "10*9/L"
                        }
                    }
                ],
                "interpretation": [
                    {
                        "coding": [
                            {
                                "code": "LX",
                                "system": "http://terminology.hl7.org/CodeSystem/v3-ObservationInterpretation"
                            }
                        ]
                    }
                ],
                "subject": {
                    "reference": "Patient/2745d583-e3d1-3f88-8b21-7b59adb60779"
                },
                "performer": [
                    {
                        "reference": "Practitioner/7b28babc-fd6e-3540-b98f-2b6a0901138d"
                    }
                ]
            },
            "request": {
                "method": "PUT",
                "url": "Observation/92b4f6cb-5e0c-368a-a744-36f7a0d4e483"
            }
        },
        {
            "fullUrl": "urn:uuid:f0c0415d-878d-378e-be7f-24cfcb3acd04",
            "resource": {
                "resourceType": "Observation",
                "meta": {
                    "profile": [
                        "http://hl7.org/fhir/us/core/StructureDefinition/us-core-observationresults"
                    ]
                },
                "id": "f0c0415d-878d-378e-be7f-24cfcb3acd04",
                "identifier": [
                    {
                        "system": "urn:ietf:rfc:3986",
                        "value": "urn:uuid:7c0704bb-9c40-41b5-9c7d-26b2d59e234f"
                    }
                ],
                "category": [
                    {
                        "coding": [
                            {
                                "system": "http://terminology.hl7.org/CodeSystem/observation-category",
                                "code": "laboratory"
                            }
                        ]
                    }
                ],
                "status": "final",
                "code": {
                    "coding": [
                        {
                            "code": "4544-3",
                            "display": "Hematocrit",
                            "system": "http://loinc.org"
                        }
                    ]
                },
                "effectiveDateTime": "2013-03-11T16:30:00.000Z",
                "valueQuantity": {
                    "value": 35.3,
                    "unit": "%"
                },
                "referenceRange": [
                    {
                        "low": {
                            "value": 34.9,
                            "unit": "%"
                        },
                        "high": {
                            "value": 44.5,
                            "unit": "%"
                        }
                    }
                ],
                "interpretation": [
                    {
                        "coding": [
                            {
                                "code": "LX",
                                "system": "http://terminology.hl7.org/CodeSystem/v3-ObservationInterpretation"
                            }
                        ]
                    }
                ],
                "subject": {
                    "reference": "Patient/2745d583-e3d1-3f88-8b21-7b59adb60779"
                },
                "performer": [
                    {
                        "reference": "Practitioner/7b28babc-fd6e-3540-b98f-2b6a0901138d"
                    }
                ]
            },
            "request": {
                "method": "PUT",
                "url": "Observation/f0c0415d-878d-378e-be7f-24cfcb3acd04"
            }
        },
        {
            "fullUrl": "urn:uuid:43544d2d-15fa-3b83-8d25-c0db51914425",
            "resource": {
                "resourceType": "Observation",
                "meta": {
                    "profile": [
                        "http://hl7.org/fhir/us/core/StructureDefinition/us-core-observationresults"
                    ]
                },
                "id": "43544d2d-15fa-3b83-8d25-c0db51914425",
                "identifier": [
                    {
                        "system": "urn:ietf:rfc:3986",
                        "value": "urn:uuid:bccd6fc9-0c7f-455e-8616-923ed0d04d09"
                    }
                ],
                "category": [
                    {
                        "coding": [
                            {
                                "system": "http://terminology.hl7.org/CodeSystem/observation-category",
                                "code": "laboratory"
                            }
                        ]
                    }
                ],
                "status": "final",
                "code": {
                    "coding": [
                        {
                            "code": "789-8",
                            "display": "Erythrocytes",
                            "system": "http://loinc.org"
                        }
                    ]
                },
                "effectiveDateTime": "2013-03-11T16:30:00.000Z",
                "valueQuantity": {
                    "value": 4.21,
                    "unit": "10*12/L"
                },
                "referenceRange": [
                    {
                        "low": {
                            "value": 3.9,
                            "unit": "10*12/L"
                        },
                        "high": {
                            "value": 5.03,
                            "unit": "10*12/L"
                        }
                    }
                ],
                "interpretation": [
                    {
                        "coding": [
                            {
                                "code": "N",
                                "system": "http://terminology.hl7.org/CodeSystem/v3-ObservationInterpretation"
                            }
                        ]
                    }
                ],
                "subject": {
                    "reference": "Patient/2745d583-e3d1-3f88-8b21-7b59adb60779"
                },
                "performer": [
                    {
                        "reference": "Practitioner/7b28babc-fd6e-3540-b98f-2b6a0901138d"
                    }
                ]
            },
            "request": {
                "method": "PUT",
                "url": "Observation/43544d2d-15fa-3b83-8d25-c0db51914425"
            }
        },
        {
            "fullUrl": "urn:uuid:5c93bd88-d0a9-352e-951a-7a701c89244c",
            "resource": {
                "resourceType": "DiagnosticReport",
                "id": "5c93bd88-d0a9-352e-951a-7a701c89244c",
                "identifier": [
                    {
                        "system": "urn:ietf:rfc:3986",
                        "value": "urn:uuid:122ed3ae-6d9e-43d0-bfa2-434ea34b1426"
                    }
                ],
                "status": "unknown",
                "code": {
                    "coding": [
                        {
                            "code": "166312007",
                            "display": "Blood chemistry test",
                            "system": "http://snomed.info/sct"
                        }
                    ]
                },
                "effectivePeriod": {
                    "start": "2008-03-20T17:30:00.000Z",
                    "end": "2008-03-20T17:30:00.000Z"
                },
                "subject": {
                    "reference": "Patient/2745d583-e3d1-3f88-8b21-7b59adb60779"
                },
                "result": [
                    {
                        "reference": "Observation/28cc10ec-36e6-3839-b130-3f7257a67ad3"
                    }
                ]
            },
            "request": {
                "method": "PUT",
                "url": "DiagnosticReport/5c93bd88-d0a9-352e-951a-7a701c89244c"
            }
        },
        {
            "fullUrl": "urn:uuid:28cc10ec-36e6-3839-b130-3f7257a67ad3",
            "resource": {
                "resourceType": "Observation",
                "meta": {
                    "profile": [
                        "http://hl7.org/fhir/us/core/StructureDefinition/us-core-observationresults"
                    ]
                },
                "id": "28cc10ec-36e6-3839-b130-3f7257a67ad3",
                "identifier": [
                    {
                        "system": "urn:ietf:rfc:3986",
                        "value": "urn:uuid:aed821af-3330-4138-97f0-e84dfe5f3c35"
                    }
                ],
                "category": [
                    {
                        "coding": [
                            {
                                "system": "http://terminology.hl7.org/CodeSystem/observation-category",
                                "code": "laboratory"
                            }
                        ]
                    }
                ],
                "status": "unknown",
                "code": {
                    "coding": [
                        {
                            "code": "3094-0",
                            "display": "Urea nitrogen, Serum",
                            "system": "http://loinc.org"
                        }
                    ]
                },
                "effectiveDateTime": "2008-03-20T17:30:00.000Z",
                "subject": {
                    "reference": "Patient/2745d583-e3d1-3f88-8b21-7b59adb60779"
                }
            },
            "request": {
                "method": "PUT",
                "url": "Observation/28cc10ec-36e6-3839-b130-3f7257a67ad3"
            }
        },
        {
            "fullUrl": "urn:uuid:0c1519ae-56b6-3cc9-9823-076a347c20c6",
            "resource": {
                "resourceType": "Observation",
                "meta": {
                    "profile": [
                        "http://hl7.org/fhir/us/core/StructureDefinition/us-core-observationresults"
                    ]
                },
                "id": "0c1519ae-56b6-3cc9-9823-076a347c20c6",
                "identifier": [
                    {
                        "system": "urn:ietf:rfc:3986",
                        "value": "urn:uuid:ed9589fd-fda0-41f7-a3d0-dc537554f5c2"
                    }
                ],
                "category": [
                    {
                        "coding": [
                            {
                                "system": "http://terminology.hl7.org/CodeSystem/observation-category",
                                "code": "vital-signs"
                            }
                        ]
                    }
                ],
                "status": "final",
                "code": {
                    "coding": [
                        {
                            "code": "8302-2",
                            "display": "Height",
                            "system": "http://loinc.org"
                        }
                    ]
                },
                "effectiveDateTime": "2012-09-10",
                "valueQuantity": {
                    "value": 177,
                    "unit": "cm"
                },
                "interpretation": [
                    {
                        "coding": [
                            {
                                "code": "N",
                                "system": "http://terminology.hl7.org/CodeSystem/v3-ObservationInterpretation"
                            }
                        ]
                    }
                ],
                "subject": {
                    "reference": "Patient/2745d583-e3d1-3f88-8b21-7b59adb60779"
                }
            },
            "request": {
                "method": "PUT",
                "url": "Observation/0c1519ae-56b6-3cc9-9823-076a347c20c6"
            }
        },
        {
            "fullUrl": "urn:uuid:4ff18960-08f7-3fd4-8bbf-a891f34d34f2",
            "resource": {
                "resourceType": "Observation",
                "meta": {
                    "profile": [
                        "http://hl7.org/fhir/us/core/StructureDefinition/us-core-observationresults"
                    ]
                },
                "id": "4ff18960-08f7-3fd4-8bbf-a891f34d34f2",
                "identifier": [
                    {
                        "system": "urn:ietf:rfc:3986",
                        "value": "urn:uuid:f4e729e2-a97f-4a7e-8e23-c92f9b6b55cf"
                    }
                ],
                "category": [
                    {
                        "coding": [
                            {
                                "system": "http://terminology.hl7.org/CodeSystem/observation-category",
                                "code": "vital-signs"
                            }
                        ]
                    }
                ],
                "status": "final",
                "code": {
                    "coding": [
                        {
                            "code": "3141-9",
                            "display": "Patient Body Weight - Measured",
                            "system": "http://loinc.org"
                        }
                    ]
                },
                "effectiveDateTime": "2012-09-10",
                "valueQuantity": {
                    "value": 86,
                    "unit": "kg"
                },
                "interpretation": [
                    {
                        "coding": [
                            {
                                "code": "N",
                                "system": "http://terminology.hl7.org/CodeSystem/v3-ObservationInterpretation"
                            }
                        ]
                    }
                ],
                "subject": {
                    "reference": "Patient/2745d583-e3d1-3f88-8b21-7b59adb60779"
                }
            },
            "request": {
                "method": "PUT",
                "url": "Observation/4ff18960-08f7-3fd4-8bbf-a891f34d34f2"
            }
        },
        {
            "fullUrl": "urn:uuid:646dabf0-c20d-3c6e-a06a-62b4cd747157",
            "resource": {
                "resourceType": "Observation",
                "meta": {
                    "profile": [
                        "http://hl7.org/fhir/us/core/StructureDefinition/us-core-observationresults"
                    ]
                },
                "id": "646dabf0-c20d-3c6e-a06a-62b4cd747157",
                "identifier": [
                    {
                        "system": "urn:ietf:rfc:3986",
                        "value": "urn:uuid:a0e39c70-9674-4b2a-9837-cdf74200d8d5"
                    }
                ],
                "category": [
                    {
                        "coding": [
                            {
                                "system": "http://terminology.hl7.org/CodeSystem/observation-category",
                                "code": "vital-signs"
                            }
                        ]
                    }
                ],
                "status": "final",
                "code": {
                    "coding": [
                        {
                            "code": "8480-6",
                            "display": "Intravascular Systolic",
                            "system": "http://loinc.org"
                        }
                    ]
                },
                "effectiveDateTime": "2012-09-10",
                "valueQuantity": {
                    "value": 132,
                    "unit": "mm[Hg]"
                },
                "interpretation": [
                    {
                        "coding": [
                            {
                                "code": "N",
                                "system": "http://terminology.hl7.org/CodeSystem/v3-ObservationInterpretation"
                            }
                        ]
                    }
                ],
                "subject": {
                    "reference": "Patient/2745d583-e3d1-3f88-8b21-7b59adb60779"
                }
            },
            "request": {
                "method": "PUT",
                "url": "Observation/646dabf0-c20d-3c6e-a06a-62b4cd747157"
            }
        },
        {
            "fullUrl": "urn:uuid:a58855ab-5b9f-355d-8102-8cba481fee61",
            "resource": {
                "resourceType": "Observation",
                "meta": {
                    "profile": [
                        "http://hl7.org/fhir/us/core/StructureDefinition/us-core-observationresults"
                    ]
                },
                "id": "a58855ab-5b9f-355d-8102-8cba481fee61",
                "identifier": [
                    {
                        "system": "urn:ietf:rfc:3986",
                        "value": "urn:uuid:1c2748b7-e440-41ba-bc01-dde97d84a036"
                    }
                ],
                "category": [
                    {
                        "coding": [
                            {
                                "system": "http://terminology.hl7.org/CodeSystem/observation-category",
                                "code": "vital-signs"
                            }
                        ]
                    }
                ],
                "status": "final",
                "code": {
                    "coding": [
                        {
                            "code": "8462-4",
                            "display": "BP Diastolic",
                            "system": "http://loinc.org"
                        }
                    ]
                },
                "effectiveDateTime": "2012-09-10",
                "valueQuantity": {
                    "value": 88,
                    "unit": "mm[Hg]"
                },
                "interpretation": [
                    {
                        "coding": [
                            {
                                "code": "N",
                                "system": "http://terminology.hl7.org/CodeSystem/v3-ObservationInterpretation"
                            }
                        ]
                    }
                ],
                "subject": {
                    "reference": "Patient/2745d583-e3d1-3f88-8b21-7b59adb60779"
                }
            },
            "request": {
                "method": "PUT",
                "url": "Observation/a58855ab-5b9f-355d-8102-8cba481fee61"
            }
        },
        {
            "fullUrl": "urn:uuid:58871ede-0cd4-308d-8d8d-48a1d0c1c5da",
            "resource": {
                "resourceType": "Observation",
                "meta": {
                    "profile": [
                        "http://hl7.org/fhir/us/core/StructureDefinition/us-core-observationresults"
                    ]
                },
                "id": "58871ede-0cd4-308d-8d8d-48a1d0c1c5da",
                "identifier": [
                    {
                        "system": "urn:ietf:rfc:3986",
                        "value": "urn:uuid:05c047cd-28c3-41cd-be6c-56f8cc0c3f2f"
                    }
                ],
                "category": [
                    {
                        "coding": [
                            {
                                "system": "http://terminology.hl7.org/CodeSystem/observation-category",
                                "code": "vital-signs"
                            }
                        ]
                    }
                ],
                "status": "final",
                "code": {
                    "coding": [
                        {
                            "code": "8302-2",
                            "display": "Height",
                            "system": "http://loinc.org"
                        }
                    ]
                },
                "effectiveDateTime": "2011-09-01",
                "valueQuantity": {
                    "value": 177,
                    "unit": "cm"
                },
                "interpretation": [
                    {
                        "coding": [
                            {
                                "code": "N",
                                "system": "http://terminology.hl7.org/CodeSystem/v3-ObservationInterpretation"
                            }
                        ]
                    }
                ],
                "subject": {
                    "reference": "Patient/2745d583-e3d1-3f88-8b21-7b59adb60779"
                }
            },
            "request": {
                "method": "PUT",
                "url": "Observation/58871ede-0cd4-308d-8d8d-48a1d0c1c5da"
            }
        },
        {
            "fullUrl": "urn:uuid:757185b4-58a4-3d0a-bfc9-5f4143fbd4b6",
            "resource": {
                "resourceType": "Observation",
                "meta": {
                    "profile": [
                        "http://hl7.org/fhir/us/core/StructureDefinition/us-core-observationresults"
                    ]
                },
                "id": "757185b4-58a4-3d0a-bfc9-5f4143fbd4b6",
                "identifier": [
                    {
                        "system": "urn:ietf:rfc:3986",
                        "value": "urn:uuid:21b0f3d5-7d07-4f4f-ad7e-c33dc2ca3835"
                    }
                ],
                "category": [
                    {
                        "coding": [
                            {
                                "system": "http://terminology.hl7.org/CodeSystem/observation-category",
                                "code": "vital-signs"
                            }
                        ]
                    }
                ],
                "status": "final",
                "code": {
                    "coding": [
                        {
                            "code": "3141-9",
                            "display": "Patient Body Weight - Measured",
                            "system": "http://loinc.org"
                        }
                    ]
                },
                "effectiveDateTime": "2011-09-01",
                "valueQuantity": {
                    "value": 88,
                    "unit": "kg"
                },
                "interpretation": [
                    {
                        "coding": [
                            {
                                "code": "N",
                                "system": "http://terminology.hl7.org/CodeSystem/v3-ObservationInterpretation"
                            }
                        ]
                    }
                ],
                "subject": {
                    "reference": "Patient/2745d583-e3d1-3f88-8b21-7b59adb60779"
                }
            },
            "request": {
                "method": "PUT",
                "url": "Observation/757185b4-58a4-3d0a-bfc9-5f4143fbd4b6"
            }
        },
        {
            "fullUrl": "urn:uuid:b8243cd4-e3e7-3f45-9428-0a2ced1ddf76",
            "resource": {
                "resourceType": "Observation",
                "meta": {
                    "profile": [
                        "http://hl7.org/fhir/us/core/StructureDefinition/us-core-observationresults"
                    ]
                },
                "id": "b8243cd4-e3e7-3f45-9428-0a2ced1ddf76",
                "identifier": [
                    {
                        "system": "urn:ietf:rfc:3986",
                        "value": "urn:uuid:b046c35a-59c7-4215-ae09-9a8409a30b21"
                    }
                ],
                "category": [
                    {
                        "coding": [
                            {
                                "system": "http://terminology.hl7.org/CodeSystem/observation-category",
                                "code": "vital-signs"
                            }
                        ]
                    }
                ],
                "status": "final",
                "code": {
                    "coding": [
                        {
                            "code": "8480-6",
                            "display": "BP Systolic",
                            "system": "http://loinc.org"
                        }
                    ]
                },
                "effectiveDateTime": "2011-09-01",
                "valueQuantity": {
                    "value": 128,
                    "unit": "mm[Hg]"
                },
                "interpretation": [
                    {
                        "coding": [
                            {
                                "code": "N",
                                "system": "http://terminology.hl7.org/CodeSystem/v3-ObservationInterpretation"
                            }
                        ]
                    }
                ],
                "subject": {
                    "reference": "Patient/2745d583-e3d1-3f88-8b21-7b59adb60779"
                }
            },
            "request": {
                "method": "PUT",
                "url": "Observation/b8243cd4-e3e7-3f45-9428-0a2ced1ddf76"
            }
        },
        {
            "fullUrl": "urn:uuid:b3cb3937-c865-3a93-b793-e98b68323415",
            "resource": {
                "resourceType": "Observation",
                "meta": {
                    "profile": [
                        "http://hl7.org/fhir/us/core/StructureDefinition/us-core-observationresults"
                    ]
                },
                "id": "b3cb3937-c865-3a93-b793-e98b68323415",
                "identifier": [
                    {
                        "system": "urn:ietf:rfc:3986",
                        "value": "urn:uuid:44f54e66-fb4b-4ee5-9ced-9574ef307a23"
                    }
                ],
                "category": [
                    {
                        "coding": [
                            {
                                "system": "http://terminology.hl7.org/CodeSystem/observation-category",
                                "code": "vital-signs"
                            }
                        ]
                    }
                ],
                "status": "final",
                "code": {
                    "coding": [
                        {
                            "code": "8462-4",
                            "display": "BP Diastolic",
                            "system": "http://loinc.org"
                        }
                    ]
                },
                "effectiveDateTime": "2011-09-01",
                "valueQuantity": {
                    "value": 80,
                    "unit": "mm[Hg]"
                },
                "interpretation": [
                    {
                        "coding": [
                            {
                                "code": "N",
                                "system": "http://terminology.hl7.org/CodeSystem/v3-ObservationInterpretation"
                            }
                        ]
                    }
                ],
                "subject": {
                    "reference": "Patient/2745d583-e3d1-3f88-8b21-7b59adb60779"
                }
            },
            "request": {
                "method": "PUT",
                "url": "Observation/b3cb3937-c865-3a93-b793-e98b68323415"
            }
        },
        {
            "fullUrl": "urn:uuid:341c08e3-66b8-38a4-a3a6-4bc0ef6a66a4",
            "resource": {
                "resourceType": "Procedure",
                "meta": {
                    "profile": [
                        "http://hl7.org/fhir/us/core/StructureDefinition/us-core-procedure"
                    ]
                },
                "id": "341c08e3-66b8-38a4-a3a6-4bc0ef6a66a4",
                "identifier": [
                    {
                        "system": "urn:ietf:rfc:3986",
                        "value": "urn:uuid:d68b7e32-7810-4f5b-9cc2-acd54b0fd85d"
                    }
                ],
                "status": "completed",
                "code": {
                    "coding": [
                        {
                            "code": "274025005",
                            "display": "Colonic polypectomy",
                            "system": "http://snomed.info/sct"
                        }
                    ]
                },
                "performedDateTime": "2011-02-15",
                "subject": {
                    "reference": "Patient/2745d583-e3d1-3f88-8b21-7b59adb60779"
                },
                "performer": [
                    {
                        "actor": {
                            "reference": "Organization/61ad5ea0-085f-3923-8b9d-5e8e0f3206c0"
                        }
                    }
                ]
            },
            "request": {
                "method": "PUT",
                "url": "Procedure/341c08e3-66b8-38a4-a3a6-4bc0ef6a66a4"
            }
        },
        {
            "fullUrl": "urn:uuid:61ad5ea0-085f-3923-8b9d-5e8e0f3206c0",
            "resource": {
                "resourceType": "Organization",
                "id": "61ad5ea0-085f-3923-8b9d-5e8e0f3206c0",
                "identifier": [
                    {
                        "system": "urn:ietf:rfc:3986",
                        "value": "urn:uuid:c2ee9ee9-ae31-4628-a919-fec1cbb58686"
                    }
                ],
                "name": "Good Health Clinic",
                "address": [
                    {
                        "line": [
                            "17 Daws Rd."
                        ],
                        "city": "Blue Bell",
                        "state": "MA",
                        "country": "US",
                        "postalCode": "02368"
                    }
                ]
            },
            "request": {
                "method": "PUT",
                "url": "Organization/61ad5ea0-085f-3923-8b9d-5e8e0f3206c0"
            }
        },
        {
            "fullUrl": "urn:uuid:bbcf9a6e-1031-3ce0-95af-6966348c25e3",
            "resource": {
                "resourceType": "Observation",
                "meta": {
                    "profile": [
                        "http://hl7.org/fhir/us/core/StructureDefinition/us-core-observationresults"
                    ]
                },
                "id": "bbcf9a6e-1031-3ce0-95af-6966348c25e3",
                "identifier": [
                    {
                        "system": "urn:oid:2.16.840.1.113883.19",
                        "value": "123456789"
                    }
                ],
                "category": [
                    {
                        "coding": [
                            {
                                "system": "http://terminology.hl7.org/CodeSystem/observation-category",
                                "code": "procedure"
                            }
                        ]
                    }
                ],
                "status": "unknown",
                "code": {
                    "coding": [
                        {
                            "code": "274025005",
                            "display": "Colonic polypectomy",
                            "system": "http://snomed.info/sct"
                        }
                    ]
                },
                "effectiveDateTime": "2011-02-03",
                "bodySite": {
                    "coding": [
                        {
                            "code": "416949008",
                            "display": "Abdomen and pelvis",
                            "system": "http://snomed.info/sct"
                        }
                    ]
                },
                "subject": {
                    "reference": "Patient/2745d583-e3d1-3f88-8b21-7b59adb60779"
                }
            },
            "request": {
                "method": "PUT",
                "url": "Observation/bbcf9a6e-1031-3ce0-95af-6966348c25e3"
            }
        },
        {
            "fullUrl": "urn:uuid:c662da04-58d0-3b37-8eb4-59e270a77392",
            "resource": {
                "resourceType": "FamilyMemberHistory",
                "id": "c662da04-58d0-3b37-8eb4-59e270a77392",
                "identifier": [
                    {
                        "system": "urn:ietf:rfc:3986",
                        "value": "urn:uuid:d42ebf70-5c89-11db-b0de-0805500c9a66"
                    }
                ],
                "status": "completed",
                "relationship": {
                    "coding": [
                        {
                            "code": "9947008",
                            "display": "Biological father",
                            "system": "http://snomed.info/sct"
                        }
                    ]
                },
                "sex": {
                    "coding": [
                        {
                            "code": "M",
                            "display": "Male",
                            "system": "urn:oid:2.16.840.1.113883.1.11.1"
                        }
                    ]
                },
                "bornString": "1910",
                "condition": [
                    {
                        "code": {
                            "coding": [
                                {
                                    "code": "22298006",
                                    "display": "Myocardial infarction",
                                    "system": "http://snomed.info/sct"
                                }
                            ]
                        },
                        "contributedToDeath": true,
                        "onsetAge": {
                            "value": 57,
                            "system": "http://unitsofmeasure.org",
                            "code": "a"
                        }
                    },
                    {
                        "code": {
                            "coding": [
                                {
                                    "code": "44054006",
                                    "display": "Diabetes mellitus type 2",
                                    "system": "http://snomed.info/sct"
                                }
                            ]
                        },
                        "onsetAge": {
                            "value": 40,
                            "system": "http://unitsofmeasure.org",
                            "code": "a"
                        }
                    }
                ],
                "patient": {
                    "reference": "Patient/2745d583-e3d1-3f88-8b21-7b59adb60779"
                }
            },
            "request": {
                "method": "PUT",
                "url": "FamilyMemberHistory/c662da04-58d0-3b37-8eb4-59e270a77392"
            }
        },
        {
            "fullUrl": "urn:uuid:f6b4365f-783a-3565-9067-56592e242704",
            "resource": {
                "resourceType": "Consent",
                "id": "f6b4365f-783a-3565-9067-56592e242704",
                "identifier": [
                    {
                        "system": "urn:ietf:rfc:3986",
                        "value": "urn:uuid:af6ebdf2-d996-11e2-a5b8-f23c91aec05e"
                    }
                ],
                "status": "active",
                "scope": {
                    "coding": [
                        {
                            "system": "http://terminology.hl7.org/CodeSystem/consentscope",
                            "code": "adr"
                        }
                    ]
                },
                "category": [
                    {
                        "coding": [
                            {
                                "code": "45473-6",
                                "display": "advance directive - living will",
                                "system": "http://loinc.org"
                            }
                        ]
                    }
                ],
                "dateTime": "2011-02-19",
                "provision": {
                    "code": [
                        {
                            "coding": [
                                {
                                    "code": "304253006",
                                    "display": "Do not resuscitate",
                                    "system": "http://snomed.info/sct"
                                }
                            ]
                        }
                    ]
                },
                "patient": {
                    "reference": "Patient/2745d583-e3d1-3f88-8b21-7b59adb60779"
                },
                "sourceReference": {
                    "reference": "DocumentReference/0913b609-6f9b-3d6b-9a1c-8e69fb9414f6"
                },
                "performer": [
                    {
                        "reference": "Practitioner/4533ef76-e935-3802-8cb7-6a076afafc08"
                    }
                ]
            },
            "request": {
                "method": "PUT",
                "url": "Consent/f6b4365f-783a-3565-9067-56592e242704"
            }
        },
        {
            "fullUrl": "urn:uuid:0913b609-6f9b-3d6b-9a1c-8e69fb9414f6",
            "resource": {
                "resourceType": "DocumentReference",
                "id": "0913b609-6f9b-3d6b-9a1c-8e69fb9414f6",
                "status": "current",
                "content": [
                    {
                        "attachment": {
                            "contentType": "application/pdf",
                            "url": "AdvanceDirective.b50b7910.pdf"
                        }
                    }
                ]
            },
            "request": {
                "method": "PUT",
                "url": "DocumentReference/0913b609-6f9b-3d6b-9a1c-8e69fb9414f6"
            }
        },
        {
            "fullUrl": "urn:uuid:4533ef76-e935-3802-8cb7-6a076afafc08",
            "resource": {
                "resourceType": "Practitioner",
                "meta": {
                    "profile": [
                        "http://hl7.org/fhir/us/core/StructureDefinition/us-core-practitioner"
                    ]
                },
                "id": "4533ef76-e935-3802-8cb7-6a076afafc08",
                "identifier": [
                    {
                        "system": "urn:ietf:rfc:3986",
                        "value": "urn:uuid:20cf14fb-b65c-4c8c-a54d-b0cca834c18c"
                    }
                ],
                "name": [
                    {
                        "family": "Nightingale",
                        "given": [
                            "Nurse"
                        ],
                        "suffix": [
                            "RN"
                        ]
                    }
                ],
                "qualification": [
                    {
                        "code": {
                            "coding": [
                                {
                                    "code": "163W00000X",
                                    "display": "Registered nurse",
                                    "system": "urn:oid:2.16.840.1.113883.5.53"
                                }
                            ]
                        }
                    }
                ]
            },
            "request": {
                "method": "PUT",
                "url": "Practitioner/4533ef76-e935-3802-8cb7-6a076afafc08"
            }
        },
        {
            "fullUrl": "urn:uuid:706ccc3d-c0a0-3533-9f7e-b1571c63ede2",
            "resource": {
                "resourceType": "Device",
                "id": "706ccc3d-c0a0-3533-9f7e-b1571c63ede2",
                "identifier": [
                    {
                        "system": "urn:ietf:rfc:3986",
                        "value": "urn:uuid:3e414708-0e61-4d48-8863-484a2d473a02"
                    }
                ],
                "type": {
                    "coding": [
                        {
                            "code": "40388003",
                            "display": "Implant",
                            "system": "http://snomed.info/sct"
                        }
                    ]
                }
            },
            "request": {
                "method": "PUT",
                "url": "Device/706ccc3d-c0a0-3533-9f7e-b1571c63ede2"
            }
        },
        {
            "fullUrl": "urn:uuid:7616e8d0-7adc-3d70-8d91-a8de1cf5c60b",
            "resource": {
                "resourceType": "Device",
                "id": "7616e8d0-7adc-3d70-8d91-a8de1cf5c60b",
                "identifier": [
                    {
                        "system": "urn:ietf:rfc:3986",
                        "value": "urn:uuid:39b5f1b4-a8e1-4ad7-8849-0deab10c97b1"
                    }
                ],
                "type": {
                    "coding": [
                        {
                            "code": "14106009",
                            "display": "cardiac pacemaker, device (physical object)",
                            "system": "http://snomed.info/sct"
                        }
                    ]
                },
                "manufacturer": "Good Health Durable Medical Equipment"
            },
            "request": {
                "method": "PUT",
                "url": "Device/7616e8d0-7adc-3d70-8d91-a8de1cf5c60b"
            }
        },
        {
            "fullUrl": "urn:uuid:16dbbbbb-6d53-376c-ae74-cec0e0c98be9",
            "resource": {
                "resourceType": "Device",
                "id": "16dbbbbb-6d53-376c-ae74-cec0e0c98be9",
                "identifier": [
                    {
                        "system": "urn:ietf:rfc:3986",
                        "value": "urn:uuid:39b5f1b4-a8e1-4ad7-8849-0deab10c97b1"
                    }
                ],
                "type": {
                    "coding": [
                        {
                            "code": "303406003",
                            "display": "upper gastrointestinal prosthesis (physical object)",
                            "system": "http://snomed.info/sct"
                        }
                    ]
                },
                "manufacturer": "Good Health Durable Medical Equipment"
            },
            "request": {
                "method": "PUT",
                "url": "Device/16dbbbbb-6d53-376c-ae74-cec0e0c98be9"
            }
        },
        {
            "fullUrl": "urn:uuid:f5c08613-b1b3-36b3-8e09-1dee059c5678",
            "resource": {
                "resourceType": "Device",
                "id": "f5c08613-b1b3-36b3-8e09-1dee059c5678",
                "identifier": [
                    {
                        "system": "urn:ietf:rfc:3986",
                        "value": "urn:uuid:cf75f5be-1da0-4256-8276-94b7fc73f9f9"
                    }
                ],
                "type": {
                    "coding": [
                        {
                            "code": "87405001",
                            "display": "cane",
                            "system": "http://snomed.info/sct"
                        }
                    ]
                },
                "manufacturer": "Good Health Durable Medical Equipment"
            },
            "request": {
                "method": "PUT",
                "url": "Device/f5c08613-b1b3-36b3-8e09-1dee059c5678"
            }
        },
        {
            "fullUrl": "urn:uuid:93071ead-008e-35d1-bd15-02ce06afff13",
            "resource": {
                "resourceType": "Procedure",
                "meta": {
                    "profile": [
                        "http://hl7.org/fhir/us/core/StructureDefinition/us-core-procedure"
                    ]
                },
                "id": "93071ead-008e-35d1-bd15-02ce06afff13",
                "identifier": [
                    {
                        "system": "urn:ietf:rfc:3986",
                        "value": "urn:uuid:d5b614bd-01ce-410d-8726-e1fd01dcc72a"
                    }
                ],
                "status": "completed",
                "code": {
                    "coding": [
                        {
                            "code": "103716009",
                            "display": "Stent Placement",
                            "system": "http://snomed.info/sct"
                        }
                    ]
                },
                "performedDateTime": "2013-05-12",
                "bodySite": [
                    {
                        "coding": [
                            {
                                "code": "28273000",
                                "display": "bile duct",
                                "system": "http://snomed.info/sct"
                            }
                        ]
                    }
                ],
                "subject": {
                    "reference": "Patient/2745d583-e3d1-3f88-8b21-7b59adb60779"
                },
                "performer": [
                    {
                        "actor": {
                            "reference": "Organization/8d8751fd-3baa-3525-a506-7464ec4687f4"
                        }
                    }
                ]
            },
            "request": {
                "method": "PUT",
                "url": "Procedure/93071ead-008e-35d1-bd15-02ce06afff13"
            }
        },
        {
            "fullUrl": "urn:uuid:8d8751fd-3baa-3525-a506-7464ec4687f4",
            "resource": {
                "resourceType": "Organization",
                "id": "8d8751fd-3baa-3525-a506-7464ec4687f4",
                "identifier": [
                    {
                        "system": "urn:ietf:rfc:3986",
                        "value": "urn:uuid:2.16.840.1.113883.19.5"
                    }
                ],
                "name": "Community Health and Hospitals",
                "address": [
                    {
                        "line": [
                            "1003 Health Care Drive"
                        ],
                        "city": "Ann Arbor",
                        "state": "MI",
                        "country": "US",
                        "postalCode": "02368"
                    }
                ],
                "telecom": [
                    {
                        "system": "phone",
                        "value": "+1(555)-555-5005",
                        "use": "work"
                    }
                ]
            },
            "request": {
                "method": "PUT",
                "url": "Organization/8d8751fd-3baa-3525-a506-7464ec4687f4"
            }
        },
        {
            "fullUrl": "urn:uuid:4c864e86-d427-3991-9e69-9a736479315e",
            "resource": {
                "resourceType": "Observation",
                "meta": {
                    "profile": [
                        "http://hl7.org/fhir/us/core/StructureDefinition/us-core-observationresults"
                    ]
                },
                "id": "4c864e86-d427-3991-9e69-9a736479315e",
                "identifier": [
                    {
                        "system": "urn:ietf:rfc:3986",
                        "value": "urn:uuid:c12ecaaf-53f8-4593-8f79-359aeaa3948b"
                    }
                ],
                "status": "final",
                "code": {
                    "coding": [
                        {
                            "code": "75275-8",
                            "system": "http://loinc.org"
                        }
                    ]
                },
                "effectiveDateTime": "2013-03-11",
                "valueCodeableConcept": {
                    "coding": [
                        {
                            "code": "11163003",
                            "display": "Intact",
                            "system": "http://snomed.info/sct"
                        }
                    ]
                },
                "subject": {
                    "reference": "Patient/2745d583-e3d1-3f88-8b21-7b59adb60779"
                },
                "performer": [
                    {
                        "reference": "Practitioner/d276aed6-83a7-313b-b45b-d59f2aafe9ad"
                    }
                ]
            },
            "request": {
                "method": "PUT",
                "url": "Observation/4c864e86-d427-3991-9e69-9a736479315e"
            }
        },
        {
            "fullUrl": "urn:uuid:d276aed6-83a7-313b-b45b-d59f2aafe9ad",
            "resource": {
                "resourceType": "Practitioner",
                "meta": {
                    "profile": [
                        "http://hl7.org/fhir/us/core/StructureDefinition/us-core-practitioner"
                    ]
                },
                "id": "d276aed6-83a7-313b-b45b-d59f2aafe9ad",
                "identifier": [
                    {
                        "system": "urn:oid:2.16.840.1.113883.19.5",
                        "value": "KP00017"
                    }
                ],
                "name": [
                    {
                        "family": "Amanda",
                        "given": [
                            "Assigned"
                        ]
                    }
                ],
                "address": [
                    {
                        "line": [
                            "1003 Health Care Drive"
                        ],
                        "city": "Ann Arbor",
                        "state": "MI",
                        "country": "US",
                        "postalCode": "02368"
                    }
                ],
                "telecom": [
                    {
                        "system": "phone",
                        "value": "+1(555)555-1003",
                        "use": "work"
                    }
                ]
            },
            "request": {
                "method": "PUT",
                "url": "Practitioner/d276aed6-83a7-313b-b45b-d59f2aafe9ad"
            }
        },
        {
            "fullUrl": "urn:uuid:eea4d885-96e6-3d2e-9c9e-9d5b29754eea",
            "resource": {
                "resourceType": "Observation",
                "meta": {
                    "profile": [
                        "http://hl7.org/fhir/us/core/StructureDefinition/us-core-observationresults"
                    ]
                },
                "id": "eea4d885-96e6-3d2e-9c9e-9d5b29754eea",
                "identifier": [
                    {
                        "system": "urn:ietf:rfc:3986",
                        "value": "urn:uuid:c6b5a04b-2bf4-49d1-8336-636a3813df0a"
                    }
                ],
                "status": "final",
                "code": {
                    "coding": [
                        {
                            "code": "75275-8",
                            "display": "Cognitive function",
                            "system": "http://loinc.org"
                        }
                    ]
                },
                "effectiveDateTime": "2013-03-11",
                "valueCodeableConcept": {
                    "coding": [
                        {
                            "code": "61372001",
                            "display": "Aggressive behavior",
                            "system": "http://snomed.info/sct"
                        }
                    ]
                },
                "subject": {
                    "reference": "Patient/2745d583-e3d1-3f88-8b21-7b59adb60779"
                },
                "performer": [
                    {
                        "reference": "Practitioner/d276aed6-83a7-313b-b45b-d59f2aafe9ad"
                    }
                ]
            },
            "request": {
                "method": "PUT",
                "url": "Observation/eea4d885-96e6-3d2e-9c9e-9d5b29754eea"
            }
        },
        {
            "fullUrl": "urn:uuid:769fec4f-6551-39e5-aa9b-f7bce8f7a83d",
            "resource": {
                "resourceType": "Observation",
                "meta": {
                    "profile": [
                        "http://hl7.org/fhir/us/core/StructureDefinition/us-core-observationresults"
                    ]
                },
                "id": "769fec4f-6551-39e5-aa9b-f7bce8f7a83d",
                "identifier": [
                    {
                        "system": "urn:ietf:rfc:3986",
                        "value": "urn:uuid:c6b5a04b-2bf4-49d1-8336-636a3813df0a"
                    }
                ],
                "status": "final",
                "code": {
                    "coding": [
                        {
                            "code": "75275-8",
                            "display": "Cognitive function",
                            "system": "http://loinc.org"
                        }
                    ]
                },
                "effectiveDateTime": "2013-03-11",
                "valueCodeableConcept": {
                    "coding": [
                        {
                            "code": "286569004",
                            "display": "difficulty understanding own emotions",
                            "system": "http://snomed.info/sct"
                        }
                    ]
                },
                "subject": {
                    "reference": "Patient/2745d583-e3d1-3f88-8b21-7b59adb60779"
                },
                "performer": [
                    {
                        "reference": "Practitioner/d276aed6-83a7-313b-b45b-d59f2aafe9ad"
                    }
                ]
            },
            "request": {
                "method": "PUT",
                "url": "Observation/769fec4f-6551-39e5-aa9b-f7bce8f7a83d"
            }
        },
        {
            "fullUrl": "urn:uuid:0a13e8e0-008f-3d52-b865-490bd50345ae",
            "resource": {
                "resourceType": "Observation",
                "meta": {
                    "profile": [
                        "http://hl7.org/fhir/us/core/StructureDefinition/us-core-observationresults"
                    ]
                },
                "id": "0a13e8e0-008f-3d52-b865-490bd50345ae",
                "identifier": [
                    {
                        "system": "urn:ietf:rfc:3986",
                        "value": "urn:uuid:c6b5a04b-2bf4-49d1-8336-636a3813df0a"
                    }
                ],
                "status": "final",
                "code": {
                    "coding": [
                        {
                            "code": "75275-8",
                            "display": "Cognitive function",
                            "system": "http://loinc.org"
                        }
                    ]
                },
                "effectiveDateTime": "2013-03-11",
                "valueCodeableConcept": {
                    "coding": [
                        {
                            "code": "288760009",
                            "display": "difficulty communicating thoughts",
                            "system": "http://snomed.info/sct"
                        }
                    ]
                },
                "subject": {
                    "reference": "Patient/2745d583-e3d1-3f88-8b21-7b59adb60779"
                },
                "performer": [
                    {
                        "reference": "Practitioner/d276aed6-83a7-313b-b45b-d59f2aafe9ad"
                    }
                ]
            },
            "request": {
                "method": "PUT",
                "url": "Observation/0a13e8e0-008f-3d52-b865-490bd50345ae"
            }
        },
        {
            "fullUrl": "urn:uuid:5cc28af5-b170-33bf-b8e0-81a742edeaf4",
            "resource": {
                "resourceType": "Observation",
                "meta": {
                    "profile": [
                        "http://hl7.org/fhir/us/core/StructureDefinition/us-core-observationresults"
                    ]
                },
                "id": "5cc28af5-b170-33bf-b8e0-81a742edeaf4",
                "identifier": [
                    {
                        "system": "urn:ietf:rfc:3986",
                        "value": "urn:uuid:c12ecaaf-53f8-4593-8f79-359aeaa3948b"
                    }
                ],
                "status": "final",
                "code": {
                    "coding": [
                        {
                            "code": "75305-3",
                            "display": "Nutrition status",
                            "system": "http://loinc.org"
                        }
                    ]
                },
                "effectiveDateTime": "2013-05-12",
                "valueCodeableConcept": {
                    "coding": [
                        {
                            "code": "248324001",
                            "display": "well nourished",
                            "system": "http://snomed.info/sct"
                        }
                    ]
                },
                "subject": {
                    "reference": "Patient/2745d583-e3d1-3f88-8b21-7b59adb60779"
                }
            },
            "request": {
                "method": "PUT",
                "url": "Observation/5cc28af5-b170-33bf-b8e0-81a742edeaf4"
            }
        },
        {
            "fullUrl": "urn:uuid:99d0a52e-2534-36d7-93f3-126d2ec404cd",
            "resource": {
                "resourceType": "Observation",
                "meta": {
                    "profile": [
                        "http://hl7.org/fhir/us/core/StructureDefinition/us-core-observationresults"
                    ]
                },
                "id": "99d0a52e-2534-36d7-93f3-126d2ec404cd",
                "identifier": [
                    {
                        "system": "urn:ietf:rfc:3986",
                        "value": "urn:uuid:ab1791b0-5c71-11db-b0de-0800200c9a66"
                    }
                ],
                "status": "final",
                "code": {
                    "coding": [
                        {
                            "code": "75303-8",
                            "system": "http://loinc.org"
                        }
                    ]
                },
                "effectiveDateTime": "2013-05-12",
                "valueCodeableConcept": {
                    "coding": [
                        {
                            "code": "386619000",
                            "display": "low sodium diet (finding)",
                            "system": "http://snomed.info/sct"
                        }
                    ]
                },
                "subject": {
                    "reference": "Patient/2745d583-e3d1-3f88-8b21-7b59adb60779"
                },
                "performer": [
                    {
                        "reference": "Practitioner/4939e179-a309-30ef-9889-e04751868181"
                    }
                ]
            },
            "request": {
                "method": "PUT",
                "url": "Observation/99d0a52e-2534-36d7-93f3-126d2ec404cd"
            }
        },
        {
            "fullUrl": "urn:uuid:1bcf7340-e7de-3ff7-8b03-0eb1d1d0ee97",
            "resource": {
                "resourceType": "Observation",
                "meta": {
                    "profile": [
                        "http://hl7.org/fhir/us/core/StructureDefinition/us-core-observationresults"
                    ]
                },
                "id": "1bcf7340-e7de-3ff7-8b03-0eb1d1d0ee97",
                "identifier": [
                    {
                        "system": "urn:ietf:rfc:3986",
                        "value": "urn:uuid:ab1791b0-5c71-11db-b0de-0800200c9a66"
                    }
                ],
                "status": "final",
                "code": {
                    "coding": [
                        {
                            "code": "75303-8",
                            "system": "http://loinc.org"
                        }
                    ]
                },
                "effectiveDateTime": "2013-05-12",
                "valueCodeableConcept": {
                    "coding": [
                        {
                            "code": "430186007",
                            "display": "excessive dietary carbohydrate intake(finding)",
                            "system": "http://snomed.info/sct"
                        }
                    ]
                },
                "subject": {
                    "reference": "Patient/2745d583-e3d1-3f88-8b21-7b59adb60779"
                },
                "performer": [
                    {
                        "reference": "Practitioner/4939e179-a309-30ef-9889-e04751868181"
                    }
                ]
            },
            "request": {
                "method": "PUT",
                "url": "Observation/1bcf7340-e7de-3ff7-8b03-0eb1d1d0ee97"
            }
        },
        {
            "fullUrl": "urn:uuid:f24d15c7-a9c2-38e5-9849-09a2463c0b3c",
            "resource": {
                "resourceType": "DocumentReference",
                "id": "f24d15c7-a9c2-38e5-9849-09a2463c0b3c",
                "type": {
                    "coding": [
                        {
                            "code": "57113-1",
                            "display": "Referral Note",
                            "system": "http://loinc.org"
                        }
                    ]
                },
                "date": "2020-09-30T03:00:41.650Z",
                "status": "current",
                "content": [
                    {
                        "attachment": {
                            "contentType": "text/plain",
                            "data": "",
                            "hash": "K/TovlHoEL8ir20/utqoKo+JCag="
                        }
                    }
                ]
            },
            "request": {
                "method": "PUT",
                "url": "DocumentReference/f24d15c7-a9c2-38e5-9849-09a2463c0b3c"
            }
        }
    ]
}