{
    "resourceType": "Bundle",
    "type": "batch",
    "entry": [
        {
            "fullUrl": "urn:uuid:11bca157-03fb-3710-9b5e-19441321eb14",
            "resource": {
                "resourceType": "Composition",
                "id": "11bca157-03fb-3710-9b5e-19441321eb14",
                "identifier": {
                    "use": "official",
                    "value": "TT101"
                },
                "status": "final",
                "type": {
                    "coding": [
                        {
                            "code": "34133-9",
                            "display": "Summarization of Episode Note",
                            "system": "http://loinc.org"
                        }
                    ]
                },
                "date": "2022-10-21T14:51:07.000Z",
                "title": "Data for Alice Newman, starting 10/21/1922, ending 10/21/2022",
                "confidentiality": "N",
                "event": [
                    {
                        "period": {
                            "start": "1922-10-21"
                        }
                    }
                ],
                "section": [
                    {
                        "title": "ALLERGIES AND ADVERSE REACTIONS",
                        "text": {
                            "status": "generated",
                            "div": "<div xmlns=\"http://www.w3.org/1999/xhtml\">ALLERGIES AND ADVERSE REACTIONS</div>"
                        },
                        "code": {
                            "coding": [
                                {
                                    "code": "48765-2",
                                    "display": "Allergies, adverse reactions, alerts",
                                    "system": "http://loinc.org"
                                }
                            ]
                        },
                        "mode": "snapshot",
                        "entry": [
                            {
                                "reference": "AllergyIntolerance/ab75d5f2-6bb9-3669-bc4d-b391ba960dac",
                                "display": "Ampicillin"
                            },
                            {
                                "reference": "AllergyIntolerance/374db3bb-ea72-3715-a246-5e0b157cebf3",
                                "display": "Penicillin G benzathine"
                            },
                            {
                                "reference": "AllergyIntolerance/b6eca7c5-cbd4-3b39-b5c0-c4184a25b0ac",
                                "display": "Penicillins"
                            }
                        ]
                    },
                    {
                        "title": "ASSESSMENTS",
                        "text": {
                            "status": "generated",
                            "div": "<div xmlns=\"http://www.w3.org/1999/xhtml\">ASSESSMENTS</div>"
                        },
                        "code": {
                            "coding": [
                                {
                                    "code": "51848-0",
                                    "display": "Assessments",
                                    "system": "http://loinc.org"
                                }
                            ]
                        },
                        "mode": "snapshot"
                    },
                    {
                        "title": "ENCOUNTERS",
                        "text": {
                            "status": "generated",
                            "div": "<div xmlns=\"http://www.w3.org/1999/xhtml\">ENCOUNTERS</div>"
                        },
                        "code": {
                            "coding": [
                                {
                                    "code": "46240-8",
                                    "display": "Encounters",
                                    "system": "http://loinc.org"
                                }
                            ]
                        },
                        "mode": "snapshot",
                        "entry": [
                            {
                                "reference": "Encounter/d4768082-0f69-339f-b38a-2e2edee9c4b2"
                            }
                        ]
                    },
                    {
                        "title": "Functional Status",
                        "text": {
                            "status": "generated",
                            "div": "<div xmlns=\"http://www.w3.org/1999/xhtml\">Functional Status</div>"
                        },
                        "code": {
                            "coding": [
                                {
                                    "code": "47420-5",
                                    "display": "Functional Status",
                                    "system": "http://loinc.org"
                                }
                            ]
                        },
                        "mode": "snapshot"
                    },
                    {
                        "title": "Goal Section",
                        "text": {
                            "status": "generated",
                            "div": "<div xmlns=\"http://www.w3.org/1999/xhtml\">Goal Section</div>"
                        },
                        "code": {
                            "coding": [
                                {
                                    "code": "61146-7",
                                    "display": "Goals",
                                    "system": "http://loinc.org"
                                }
                            ]
                        },
                        "mode": "snapshot"
                    },
                    {
                        "title": "Health Concerns Section",
                        "text": {
                            "status": "generated",
                            "div": "<div xmlns=\"http://www.w3.org/1999/xhtml\">Health Concerns Section</div>"
                        },
                        "code": {
                            "coding": [
                                {
                                    "code": "75310-3",
                                    "display": "Health Concerns Document",
                                    "system": "http://loinc.org"
                                }
                            ]
                        },
                        "mode": "snapshot"
                    },
                    {
                        "title": "IMMUNIZATIONS",
                        "text": {
                            "status": "generated",
                            "div": "<div xmlns=\"http://www.w3.org/1999/xhtml\">IMMUNIZATIONS</div>"
                        },
                        "code": {
                            "coding": [
                                {
                                    "code": "11369-6",
                                    "display": "Immunizations",
                                    "system": "http://loinc.org"
                                }
                            ]
                        },
                        "mode": "snapshot",
                        "entry": [
                            {
                                "reference": "Immunization/ffcb2107-8a03-320c-90be-8da9981f8503"
                            },
                            {
                                "reference": "Immunization/fd3d484a-922b-3f2c-8ba4-50ea7b1c529b"
                            },
                            {
                                "reference": "Immunization/b5875916-964f-37c0-b0e6-2f95bf21b83e"
                            }
                        ]
                    },
                    {
                        "title": "Implants",
                        "text": {
                            "status": "generated",
                            "div": "<div xmlns=\"http://www.w3.org/1999/xhtml\">Implants</div>"
                        },
                        "code": {
                            "coding": [
                                {
                                    "code": "46264-8",
                                    "display": "Medical Equipment",
                                    "system": "http://loinc.org"
                                }
                            ]
                        },
                        "mode": "snapshot",
                        "entry": [
                            {
                                "reference": "Device/e5ce5c69-43e5-38ee-89bb-ec0e53496856"
                            },
                            {
                                "reference": "Device/f4e986c4-de01-3dc9-9d0e-3b9ba54d9d4a"
                            }
                        ]
                    },
                    {
                        "title": "MEDICATIONS",
                        "text": {
                            "status": "generated",
                            "div": "<div xmlns=\"http://www.w3.org/1999/xhtml\">MEDICATIONS</div>"
                        },
                        "code": {
                            "coding": [
                                {
                                    "code": "10160-0",
                                    "display": "History of medication use",
                                    "system": "http://loinc.org"
                                }
                            ]
                        },
                        "mode": "snapshot",
                        "entry": [
                            {
                                "reference": "MedicationStatement/3c5e10da-ce7c-326b-a7ac-b68853be30e0"
                            },
                            {
                                "reference": "MedicationStatement/e19035ac-e915-3c28-aa64-0bf2ba17c3c1"
                            },
                            {
                                "reference": "MedicationStatement/a5b9dc13-8e23-376c-9db8-591eb77d6932"
                            },
                            {
                                "reference": "MedicationStatement/9ec70ebc-950b-354e-aa6a-836e61bd6a01"
                            }
                        ]
                    },
                    {
                        "title": "MENTAL STATUS",
                        "text": {
                            "status": "generated",
                            "div": "<div xmlns=\"http://www.w3.org/1999/xhtml\">MENTAL STATUS</div>"
                        },
                        "code": {
                            "coding": [
                                {
                                    "code": "10190-7",
                                    "display": "MENTAL STATUS",
                                    "system": "http://loinc.org"
                                }
                            ]
                        },
                        "mode": "snapshot"
                    },
                    {
                        "title": "Plan of Treatment",
                        "text": {
                            "status": "generated",
                            "div": "<div xmlns=\"http://www.w3.org/1999/xhtml\">Plan of Treatment</div>"
                        },
                        "code": {
                            "coding": [
                                {
                                    "code": "18776-5",
                                    "display": "Plan of Care",
                                    "system": "http://loinc.org"
                                }
                            ]
                        },
                        "mode": "snapshot",
                        "entry": [
                            {
                                "reference": "CarePlan/73d96072-5407-38a4-b8ac-6a0667c1b832"
                            }
                        ]
                    },
                    {
                        "title": "Problem List",
                        "text": {
                            "status": "generated",
                            "div": "<div xmlns=\"http://www.w3.org/1999/xhtml\">Problem List</div>"
                        },
                        "code": {
                            "coding": [
                                {
                                    "code": "11450-4",
                                    "display": "Problem List",
                                    "system": "http://loinc.org"
                                }
                            ]
                        },
                        "mode": "snapshot",
                        "entry": [
                            {
                                "reference": "Condition/fb416252-2bfb-328f-8096-0092f6767cc1"
                            },
                            {
                                "reference": "Condition/a2df7c5f-52a8-3c69-82ec-57c7dd354748"
                            },
                            {
                                "reference": "Condition/403882c9-8340-36b4-9ba2-a4a5d5620391"
                            },
                            {
                                "reference": "Condition/aa4a981c-f806-35b8-8038-e9d7329892cd"
                            },
                            {
                                "reference": "Condition/0e1efce5-de7e-3068-81cd-8ed39b25dae0"
                            }
                        ]
                    },
                    {
                        "title": "PROCEDURES",
                        "text": {
                            "status": "generated",
                            "div": "<div xmlns=\"http://www.w3.org/1999/xhtml\">PROCEDURES</div>"
                        },
                        "code": {
                            "coding": [
                                {
                                    "code": "47519-4",
                                    "display": "History of Procedures",
                                    "system": "http://loinc.org"
                                }
                            ]
                        },
                        "mode": "snapshot",
                        "entry": [
                            {
                                "reference": "Procedure/d2e2dde3-6720-31e7-b5b3-e55ea84e9afd"
                            },
                            {
                                "reference": "Procedure/c00837f0-22d5-300c-b93b-0ffc0a4e6d36"
                            }
                        ]
                    },
                    {
                        "title": "Notes section",
                        "text": {
                            "status": "generated",
                            "div": "<div xmlns=\"http://www.w3.org/1999/xhtml\">Notes section</div>"
                        },
                        "code": {
                            "coding": [
                                {
                                    "code": "11506-3",
                                    "display": "Progress Note",
                                    "system": "http://loinc.org"
                                }
                            ]
                        },
                        "mode": "snapshot"
                    },
                    {
                        "title": "Results",
                        "text": {
                            "status": "generated",
                            "div": "<div xmlns=\"http://www.w3.org/1999/xhtml\">Results</div>"
                        },
                        "code": {
                            "coding": [
                                {
                                    "code": "30954-2",
                                    "display": "Relevant diagnostic tests and/or laboratory data",
                                    "system": "http://loinc.org"
                                }
                            ]
                        },
                        "mode": "snapshot",
                        "entry": [
                            {
                                "reference": "DiagnosticReport/254c317d-32f0-3372-ba08-29b232b87b21"
                            },
                            {
                                "reference": "DiagnosticReport/859c3783-cc8f-3a3c-a2cf-0fd43837d314"
                            }
                        ]
                    },
                    {
                        "title": "Social History",
                        "text": {
                            "status": "generated",
                            "div": "<div xmlns=\"http://www.w3.org/1999/xhtml\">Social History</div>"
                        },
                        "code": {
                            "coding": [
                                {
                                    "code": "29762-2",
                                    "display": "Social History",
                                    "system": "http://loinc.org"
                                }
                            ]
                        },
                        "mode": "snapshot",
                        "entry": [
                            {
                                "reference": "Observation/b368718c-55df-36bb-9d28-069e32c83207",
                                "display": "Assertion"
                            },
                            {
                                "reference": "Observation/709c0bb8-8f5b-388b-99ea-a64ab5caec1f"
                            },
                            {
                                "reference": "Observation/57b6b838-470d-34ff-8ef0-679a3e40b47e"
                            }
                        ]
                    },
                    {
                        "title": "Vitals",
                        "text": {
                            "status": "generated",
                            "div": "<div xmlns=\"http://www.w3.org/1999/xhtml\">Vitals</div>"
                        },
                        "code": {
                            "coding": [
                                {
                                    "code": "8716-3",
                                    "display": "Vital Signs",
                                    "system": "http://loinc.org"
                                }
                            ]
                        },
                        "mode": "snapshot",
                        "entry": [
                            {
                                "reference": "Observation/7aafd289-1ca6-358f-96aa-3007cd7ecce1",
                                "display": "Inhaled oxygen concentration"
                            },
                            {
                                "reference": "Observation/46862d3a-90af-3fcf-b06e-0b1fe7ba2788",
                                "display": "Blood pressure panel with all children optional"
                            },
                            {
                                "reference": "Observation/26b487e9-f6b3-3ec8-9429-1f9d68191bba",
                                "display": "Body height"
                            },
                            {
                                "reference": "Observation/ffe82569-72d2-3c25-b389-aca60f7261d3",
                                "display": "Oxygen saturation in Arterial blood by Pulse oximetry"
                            },
                            {
                                "reference": "Observation/eba9ba89-bda8-3f74-b87e-fa818f4c0819",
                                "display": "Body Temperature"
                            },
                            {
                                "reference": "Observation/e22b2219-7c4e-3b7f-a570-035462be9b4d",
                                "display": "Heart Rate"
                            },
                            {
                                "reference": "Observation/ded9347c-a4f5-349c-86ff-1890b01c02c1",
                                "display": "Respiratory Rate"
                            },
                            {
                                "reference": "Observation/001ad12b-d972-3c32-9dde-d8942c463cf6",
                                "display": "Body weight"
                            },
                            {
                                "reference": "Observation/1bedbf2c-cce6-3b42-889d-04c209d20e27",
                                "display": "Blood pressure panel with all children optional"
                            },
                            {
                                "reference": "Observation/649a91b8-ee10-3b88-9a1e-901425c7db1d",
                                "display": "Body height"
                            },
                            {
                                "reference": "Observation/c7bf46b0-67ce-3b10-bd6c-380834b795ee",
                                "display": "Body weight"
                            },
                            {
                                "reference": "Observation/5cb112d1-7494-307b-b398-93d904c1b2d4",
                                "display": "Blood pressure panel with all children optional"
                            },
                            {
                                "reference": "Observation/9f49b516-a018-3021-9016-c96104961905",
                                "display": "Blood pressure panel with all children optional"
                            },
                            {
                                "reference": "Observation/2a3ea8a0-6115-36e9-8d3f-d62a9de10e1c",
                                "display": "Body weight"
                            },
                            {
                                "reference": "Observation/f0147899-d106-3dd1-a426-ab3ce6b15091",
                                "display": "Body height"
                            }
                        ]
                    },
                    {
                        "title": "REASON FOR REFERRAL",
                        "text": {
                            "status": "generated",
                            "div": "<div xmlns=\"http://www.w3.org/1999/xhtml\">REASON FOR REFERRAL</div>"
                        },
                        "code": {
                            "coding": [
                                {
                                    "code": "42349-1",
                                    "display": "Reason for Referral",
                                    "system": "http://loinc.org"
                                }
                            ]
                        },
                        "mode": "snapshot"
                    }
                ],
                "subject": {
                    "reference": "Patient/f40da2df-7505-315a-9acb-55513a02c37b"
                },
                "custodian": {
                    "reference": "Organization/3bfc3db2-cf06-379a-88cb-03444c877632"
                },
                "author": [
                    {
                        "reference": "Practitioner/17763d72-7526-32d1-a535-e60859682208"
                    },
                    {
                        "reference": "Practitioner/ead05b2c-8f43-3a9f-946d-1553f5aaa816"
                    }
                ]
            },
            "request": {
                "method": "PUT",
                "url": "Composition/11bca157-03fb-3710-9b5e-19441321eb14"
            }
        },
        {
            "fullUrl": "urn:uuid:3bfc3db2-cf06-379a-88cb-03444c877632",
            "resource": {
                "resourceType": "Organization",
                "id": "3bfc3db2-cf06-379a-88cb-03444c877632",
                "identifier": [
                    {
                        "system": "http://hl7.org/fhir/sid/us-npi",
                        "value": "99999999"
                    }
                ],
                "active": true,
                "name": "Iora Health",
                "address": [
                    {
                        "line": [
                            "101 Tremont Street, 6th Floor"
                        ],
                        "city": "Boston",
                        "state": "MA",
                        "country": "US",
                        "postalCode": "02108"
                    }
                ],
                "telecom": [
                    {
                        "system": "phone",
                        "value": "617-454-4672",
                        "use": "work"
                    }
                ]
            },
            "request": {
                "method": "PUT",
                "url": "Organization/3bfc3db2-cf06-379a-88cb-03444c877632"
            }
        },
        {
            "fullUrl": "urn:uuid:17763d72-7526-32d1-a535-e60859682208",
            "resource": {
                "resourceType": "Practitioner",
                "meta": {
                    "profile": [
                        "http://hl7.org/fhir/us/core/StructureDefinition/us-core-practitioner"
                    ]
                },
                "id": "17763d72-7526-32d1-a535-e60859682208",
                "identifier": [
                    {
                        "system": "http://hl7.org/fhir/sid/us-npi",
                        "value": "99999999"
                    }
                ],
                "name": [
                    {
                        "family": "Davis",
                        "given": [
                            "Albert"
                        ]
                    }
                ],
                "address": [
                    {
                        "line": [
                            "2472, Rocky  place"
                        ],
                        "city": "Beaverton",
                        "state": "OR",
                        "country": "US",
                        "postalCode": "97006"
                    }
                ],
                "telecom": [
                    {
                        "system": "phone",
                        "value": "555-555-1002",
                        "use": "work"
                    }
                ],
                "qualification": [
                    {
                        "code": {
                            "coding": [
                                {
                                    "code": "200000000X",
                                    "display": "Neighborhood Physicians Practice",
                                    "system": "http://nucc.org/provider-taxonomy"
                                }
                            ]
                        }
                    }
                ]
            },
            "request": {
                "method": "PUT",
                "url": "Practitioner/17763d72-7526-32d1-a535-e60859682208"
            }
        },
        {
            "fullUrl": "urn:uuid:604a79b8-d538-3959-a3ef-5ac66ee03e08",
            "resource": {
                "resourceType": "Location",
                "id": "604a79b8-d538-3959-a3ef-5ac66ee03e08",
                "identifier": [
                    {
                        "system": "http://hl7.org/fhir/sid/us-npi",
                        "value": "99999999"
                    }
                ],
                "address": {
                    "line": [
                        "2472, Rocky  place"
                    ],
                    "city": "Beaverton",
                    "state": "OR",
                    "country": "US",
                    "postalCode": "97006"
                },
                "telecom": [
                    {
                        "system": "phone",
                        "value": "555-555-1002",
                        "use": "work"
                    }
                ],
                "type": [
                    {
                        "coding": [
                            {
                                "code": "200000000X",
                                "display": "Neighborhood Physicians Practice",
                                "system": "http://nucc.org/provider-taxonomy"
                            }
                        ]
                    }
                ]
            },
            "request": {
                "method": "PUT",
                "url": "Location/604a79b8-d538-3959-a3ef-5ac66ee03e08"
            }
        },
        {
            "fullUrl": "urn:uuid:ead05b2c-8f43-3a9f-946d-1553f5aaa816",
            "resource": {
                "resourceType": "Practitioner",
                "meta": {
                    "profile": [
                        "http://hl7.org/fhir/us/core/StructureDefinition/us-core-practitioner"
                    ]
                },
                "id": "ead05b2c-8f43-3a9f-946d-1553f5aaa816",
                "identifier": [
                    {
                        "system": "http://hl7.org/fhir/sid/us-npi",
                        "value": "999999943252"
                    }
                ],
                "name": [
                    {
                        "family": "Davis",
                        "given": [
                            "Tracy"
                        ]
                    }
                ],
                "address": [
                    {
                        "line": [
                            "2472, Rocky  place"
                        ],
                        "city": "Beaverton",
                        "state": "OR",
                        "country": "US",
                        "postalCode": "97006"
                    }
                ],
                "telecom": [
                    {
                        "system": "phone",
                        "value": "555-555-1002",
                        "use": "work"
                    }
                ]
            },
            "request": {
                "method": "PUT",
                "url": "Practitioner/ead05b2c-8f43-3a9f-946d-1553f5aaa816"
            }
        },
        {
            "fullUrl": "urn:uuid:f40da2df-7505-315a-9acb-55513a02c37b",
            "resource": {
                "resourceType": "Patient",
                "meta": {
                    "profile": [
                        "http://hl7.org/fhir/us/core/StructureDefinition/us-core-patient"
                    ]
                },
                "id": "f40da2df-7505-315a-9acb-55513a02c37b",
                "identifier": [
                    {
                        "system": "urn:oid:2.16.840.1.113883.19.5.99999.2",
                        "value": "998991"
                    }
                ],
                "name": [
                    {
                        "family": "Newman",
                        "given": [
                            "Alice",
                            "Jones"
                        ]
                    },
                    {
                        "use": "old",
                        "family": "Newman",
                        "given": [
                            "Alicia",
                            "Jones"
                        ]
                    }
                ],
                "active": true,
                "birthDate": "1970-05-01",
                "gender": "female",
                "extension": [
                    {
                        "url": "http://hl7.org/fhir/us/core/StructureDefinition/us-core-race",
                        "extension": [
                            {
                                "url": "ombCategory",
                                "valueCoding": {
                                    "code": "2106-3",
                                    "display": "White",
                                    "system": "urn:oid:2.16.840.1.113883.6.238"
                                }
                            },
                            {
                                "url": "detailed",
                                "valueCoding": {
                                    "code": "2108-9",
                                    "display": "European",
                                    "system": "urn:oid:2.16.840.1.113883.6.238"
                                }
                            },
                            {
                                "url": "text",
                                "valueString": "Mixed"
                            }
                        ]
                    },
                    {
                        "url": "http://hl7.org/fhir/us/core/StructureDefinition/us-core-ethnicity",
                        "extension": [
                            {
                                "url": "ombCategory",
                                "valueCoding": {
                                    "code": "2186-5",
                                    "display": "Not Hispanic or Latino",
                                    "system": "urn:oid:2.16.840.1.113883.6.238"
                                }
                            },
                            {
                                "url": "text",
                                "valueString": "Not Hispanic or Latino"
                            }
                        ]
                    },
                    {
                        "url": "http://hl7.org/fhir/us/core/StructureDefinition/us-core-birthsex",
                        "valueCode": "F"
                    }
                ],
                "address": [
                    {
                        "line": [
                            "1357, Amber Dr"
                        ],
                        "city": "Beaverton",
                        "state": "OR",
                        "country": "US",
                        "postalCode": "97006",
                        "period": {
                            "start": "1970-05-01"
                        }
                    }
                ],
                "telecom": [
                    {
                        "system": "phone",
                        "value": "+1(555)-723-1544",
                        "use": "home"
                    },
                    {
                        "system": "phone",
                        "value": "+1(555)-777-1234",
                        "use": "mobile"
                    }
                ],
                "communication": [
                    {
                        "language": {
                            "coding": [
                                {
                                    "system": "urn:ietf:bcp:47",
                                    "code": "en",
                                    "display": "English"
                                }
                            ]
                        },
                        "preferred": true
                    }
                ],
                "generalPractitioner": [
                    {
                        "reference": "Practitioner/17763d72-7526-32d1-a535-e60859682208"
                    }
                ],
                "managingOrganization": {
                    "reference": "Organization/3bfc3db2-cf06-379a-88cb-03444c877632"
                }
            },
            "request": {
                "method": "PUT",
                "url": "Patient/f40da2df-7505-315a-9acb-55513a02c37b"
            }
        },
        {
            "resource": {
                "resourceType": "Provenance",
                "id": "ddd6b458-2731-3918-99d2-a0a2ebc8e15e",
                "target": [
                    {
                        "reference": "Patient/f40da2df-7505-315a-9acb-55513a02c37b"
                    },
                    {
                        "reference": "CareTeam/17763d72-7526-32d1-a535-e60859682208"
                    },
                    {
                        "reference": "AllergyIntolerance/e0a1b3b8-023b-31eb-aafd-979cd6b58f21"
                    },
                    {
                        "reference": "AllergyIntolerance/d1b8ebee-0a16-3a9d-8b60-09843a0a9faf"
                    },
                    {
                        "reference": "AllergyIntolerance/b25e009d-0b75-37c9-9218-b91476be6e50"
                    },
                    {
                        "reference": "MedicationRequest/8b967752-2291-3684-b4a3-f6276e20e3d6"
                    },
                    {
                        "reference": "MedicationRequest/7004bbbe-7eaa-3fe5-b267-e64bddeb634a"
                    },
                    {
                        "reference": "MedicationRequest/02ba8ccb-9388-3595-9f2f-db1335800d0a"
                    },
                    {
                        "reference": "MedicationRequest/b94acd39-3bc9-390f-b44a-c36de0a54a66"
                    },
                    {
                        "reference": "Condition/ffb4b66f-cffb-3afe-a9e7-d75534d088f3"
                    },
                    {
                        "reference": "Condition/e85a5f6b-a9b4-3f86-a9d7-7095e485351b"
                    },
                    {
                        "reference": "Condition/081341a3-b007-34b2-ad29-d010dad2ddf6"
                    },
                    {
                        "reference": "Condition/e2717651-459a-32eb-a348-427144ccf9cd"
                    },
                    {
                        "reference": "Condition/767e0192-6340-39d6-9075-7520af641c48"
                    },
                    {
                        "reference": "DiagnosticReport/2591e57a-96fa-387d-8c00-358e1c96a7dc"
                    },
                    {
                        "reference": "Observation/9ab48ccc-66bd-33e2-8284-0a3ee7a4bfff"
                    },
                    {
                        "reference": "Observation/7d9e2b6f-2f4a-34fa-af2a-3fdf63aea044"
                    },
                    {
                        "reference": "Observation/eef9b112-d5ec-3bb4-9bba-f6bb0b24cb5f"
                    },
                    {
                        "reference": "Observation/c4fb2894-5162-35a2-902c-f137ec352fab"
                    },
                    {
                        "reference": "Observation/a35e1b3d-4a9e-32cd-84a8-f8b672723b78"
                    },
                    {
                        "reference": "Observation/ce8e11be-1ebd-3414-82bf-ad1a263c1c0b"
                    },
                    {
                        "reference": "Observation/d21c9acb-08f7-3571-a717-ffb44dc1398f"
                    },
                    {
                        "reference": "DiagnosticReport/e8f6ec63-a2a8-3fbb-971c-b246815590a4"
                    },
                    {
                        "reference": "Observation/56864b97-dc37-307a-992e-899a3f2eef7b"
                    },
                    {
                        "reference": "Observation/e547f21e-9f3b-3368-b546-05393f577394"
                    },
                    {
                        "reference": "Observation/dd5a0dd1-e58c-34b6-8460-b18686169d0c"
                    },
                    {
                        "reference": "Observation/fcc079c2-3b24-374c-98f0-15156bf19553"
                    },
                    {
                        "reference": "Observation/bd02d10a-b656-34db-b3a5-ae0fd97194f9"
                    },
                    {
                        "reference": "Observation/3f0dd7ff-4d71-3098-a4d9-4382bce111e3"
                    },
                    {
                        "reference": "Observation/4893d915-1bce-32c9-a50a-4432570b4404"
                    },
                    {
                        "reference": "Observation/79ed3990-3061-3eb6-9b3b-c4e33487fd7e"
                    },
                    {
                        "reference": "Observation/addb9224-20d0-378e-b678-ffde4affbaf2"
                    },
                    {
                        "reference": "Observation/c9bc6a0e-a670-3b3a-834b-d61f976642fc"
                    },
                    {
                        "reference": "Observation/b8a8e92d-fc94-3cba-8b13-62b635aee332"
                    },
                    {
                        "reference": "Observation/4b2bada9-e138-3497-a020-5547b9e76921"
                    },
                    {
                        "reference": "Observation/7092a29e-fb17-3316-95b8-3a4ea81b9c73"
                    },
                    {
                        "reference": "Observation/4056534e-3535-32e9-ab81-36ea783fdb8e"
                    },
                    {
                        "reference": "Observation/20d2eede-71b8-3973-baba-0384ff82784b"
                    },
                    {
                        "reference": "Observation/e8b78df8-55f5-30e0-b55c-ff9da504fc84"
                    },
                    {
                        "reference": "Observation/d03303d0-c821-3ffe-9b9b-1cab1e58b5b9"
                    },
                    {
                        "reference": "Observation/6afc4921-ac2b-399d-9b07-4a41bfc572d7"
                    },
                    {
                        "reference": "Observation/5b1b7eb1-d105-33ca-bdb7-d857391d7264"
                    },
                    {
                        "reference": "Procedure/efc450f1-bf82-3df2-91ab-52a0ab34168f"
                    },
                    {
                        "reference": "Procedure/dc960e37-29ed-34c8-a651-c832b045ed95"
                    },
                    {
                        "reference": "CareTeam/6bc09b9a-2e8d-3cc5-b9ed-27bc815186c9"
                    },
                    {
                        "reference": "Condition/401520af-bb61-3ed0-9e36-510a3b73aa5d"
                    },
                    {
                        "reference": "Goal/8ce55388-9d68-3702-9064-be0267bb6e3d"
                    },
                    {
                        "reference": "Immunization/ffcb2107-8a03-320c-90be-8da9981f8503"
                    },
                    {
                        "reference": "Immunization/fd3d484a-922b-3f2c-8ba4-50ea7b1c529b"
                    },
                    {
                        "reference": "Immunization/b5875916-964f-37c0-b0e6-2f95bf21b83e"
                    },
                    {
                        "reference": "Device/296600cb-6150-34cf-b1d0-9eacc07cc506"
                    },
                    {
                        "reference": "Device/b094e726-a50f-36b2-9bc7-a6e02151f14a"
                    },
                    {
                        "reference": "DocumentReference/b7703d81-19d1-3c26-a56f-a68992e9b53a"
                    },
                    {
                        "reference": "DocumentReference/8bad6075-9345-3ebd-99f7-b3e367399695"
                    }
                ],
                "recorded": "2015-06-22T16:00:00.000Z",
                "agent": [
                    {
                        "type": {
                            "coding": [
                                {
                                    "system": "http://terminology.hl7.org/CodeSystem/provenance-participant-type",
                                    "code": "author",
                                    "display": "Author"
                                }
                            ],
                            "text": "Author"
                        },
                        "who": {
                            "reference": "Practitioner/17763d72-7526-32d1-a535-e60859682208",
                            "display": "Albert Davis"
                        },
                        "onBehalfOf": {
                            "reference": "Organization/3bfc3db2-cf06-379a-88cb-03444c877632",
                            "display": "Iora Health"
                        }
                    },
                    {
                        "type": {
                            "coding": [
                                {
                                    "system": "http://hl7.org/fhir/us/core/CodeSystem/us-core-provenance-participant-type",
                                    "code": "transmitter",
                                    "display": "Transmitter"
                                }
                            ],
                            "text": "Transmitter"
                        },
                        "who": {
                            "reference": "Practitioner/ead05b2c-8f43-3a9f-946d-1553f5aaa816",
                            "display": "Tracy Davis"
                        },
                        "onBehalfOf": {
                            "reference": "Organization/3bfc3db2-cf06-379a-88cb-03444c877632",
                            "display": "Iora Health"
                        }
                    }
                ]
            },
            "fullUrl": "urn:uuid:ddd6b458-2731-3918-99d2-a0a2ebc8e15e",
            "request": {
                "method": "PUT",
                "url": "Provenance/ddd6b458-2731-3918-99d2-a0a2ebc8e15e"
            }
        },
        {
            "fullUrl": "urn:uuid:17763d72-7526-32d1-a535-e60859682208",
            "resource": {
                "resourceType": "CareTeam",
                "id": "17763d72-7526-32d1-a535-e60859682208",
                "identifier": [
                    {
                        "system": "http://hl7.org/fhir/sid/us-npi",
                        "value": "99999999"
                    }
                ],
                "name": "USCoreCareTeam",
                "status": "active",
                "telecom": [
                    {
                        "system": "phone",
                        "value": "555-555-1002",
                        "use": "work"
                    }
                ],
                "participant": [
                    {
                        "role": [
                            {
                                "coding": [
                                    {
                                        "system": "http://snomed.info/sct",
                                        "code": "116154003",
                                        "display": "Patient"
                                    }
                                ],
                                "text": "Patient"
                            }
                        ],
                        "member": {
                            "reference": "Patient/f40da2df-7505-315a-9acb-55513a02c37b"
                        }
                    },
                    {
                        "role": [
                            {
                                "coding": [
                                    {
                                        "system": "http://snomed.info/sct",
                                        "code": "432100008",
                                        "display": "Health coach"
                                    }
                                ],
                                "text": "Healthcare professional (occupation)"
                            }
                        ],
                        "member": {
                            "reference": "Practitioner/ead05b2c-8f43-3a9f-946d-1553f5aaa816",
                            "display": "Tracy Davis"
                        }
                    },
                    {
                        "role": [
                            {
                                "coding": [
                                    {
                                        "system": "http://snomed.info/sct",
                                        "code": "309343006",
                                        "display": "Physician (occupation)"
                                    }
                                ],
                                "text": "Physician (occupation)"
                            }
                        ],
                        "member": {
                            "reference": "Practitioner/17763d72-7526-32d1-a535-e60859682208",
                            "display": "Albert Davis"
                        }
                    }
                ],
                "subject": {
                    "reference": "Patient/f40da2df-7505-315a-9acb-55513a02c37b"
                }
            },
            "request": {
                "method": "PUT",
                "url": "CareTeam/17763d72-7526-32d1-a535-e60859682208"
            }
        },
        {
            "fullUrl": "urn:uuid:e0a1b3b8-023b-31eb-aafd-979cd6b58f21",
            "resource": {
                "resourceType": "AllergyIntolerance",
                "id": "e0a1b3b8-023b-31eb-aafd-979cd6b58f21",
                "identifier": [
                    {
                        "system": "urn:ietf:rfc:3986",
                        "value": "urn:uuid:ed09711e-0a45-4992-9497-2025f2ed3f64"
                    }
                ],
                "clinicalStatus": {
                    "coding": [
                        {
                            "system": "http://terminology.hl7.org/CodeSystem/allergyintolerance-clinical",
                            "code": "active"
                        }
                    ]
                },
                "verificationStatus": {
                    "coding": [
                        {
                            "system": "http://terminology.hl7.org/CodeSystem/allergyintolerance-verification",
                            "code": "confirmed",
                            "display": "Confirmed"
                        }
                    ]
                },
                "code": {
                    "coding": [
                        {
                            "code": "247472004",
                            "display": "Hives",
                            "system": "http://snomed.info/sct"
                        }
                    ]
                },
                "reaction": [
                    {
                        "substance": {
                            "coding": [
                                {
                                    "code": "733",
                                    "display": "Ampicillin",
                                    "system": "http://www.nlm.nih.gov/research/umls/rxnorm"
                                }
                            ]
                        },
                        "manifestation": [
                            {
                                "coding": [
                                    {
                                        "code": "247472004",
                                        "display": "Hives",
                                        "system": "http://snomed.info/sct"
                                    }
                                ]
                            }
                        ]
                    }
                ],
                "onsetDateTime": "1980-10-05",
                "patient": {
                    "reference": "Patient/f40da2df-7505-315a-9acb-55513a02c37b"
                }
            },
            "request": {
                "method": "PUT",
                "url": "AllergyIntolerance/e0a1b3b8-023b-31eb-aafd-979cd6b58f21"
            }
        },
        {
            "fullUrl": "urn:uuid:d1b8ebee-0a16-3a9d-8b60-09843a0a9faf",
            "resource": {
                "resourceType": "AllergyIntolerance",
                "id": "d1b8ebee-0a16-3a9d-8b60-09843a0a9faf",
                "identifier": [
                    {
                        "system": "urn:ietf:rfc:3986",
                        "value": "urn:uuid:d34a1ce3-10c0-43e2-b6b9-3c05e205985b"
                    }
                ],
                "clinicalStatus": {
                    "coding": [
                        {
                            "system": "http://terminology.hl7.org/CodeSystem/allergyintolerance-clinical",
                            "code": "active"
                        }
                    ]
                },
                "verificationStatus": {
                    "coding": [
                        {
                            "system": "http://terminology.hl7.org/CodeSystem/allergyintolerance-verification",
                            "code": "confirmed",
                            "display": "Confirmed"
                        }
                    ]
                },
                "code": {
                    "coding": [
                        {
                            "code": "247472004",
                            "display": "Hives",
                            "system": "http://snomed.info/sct"
                        }
                    ]
                },
                "reaction": [
                    {
                        "substance": {
                            "coding": [
                                {
                                    "code": "7980",
                                    "display": "Penicillin G benzathine",
                                    "system": "http://www.nlm.nih.gov/research/umls/rxnorm"
                                }
                            ]
                        },
                        "manifestation": [
                            {
                                "coding": [
                                    {
                                        "code": "247472004",
                                        "display": "Hives",
                                        "system": "http://snomed.info/sct"
                                    }
                                ]
                            }
                        ]
                    }
                ],
                "onsetDateTime": "1980-10-05",
                "patient": {
                    "reference": "Patient/f40da2df-7505-315a-9acb-55513a02c37b"
                }
            },
            "request": {
                "method": "PUT",
                "url": "AllergyIntolerance/d1b8ebee-0a16-3a9d-8b60-09843a0a9faf"
            }
        },
        {
            "fullUrl": "urn:uuid:b25e009d-0b75-37c9-9218-b91476be6e50",
            "resource": {
                "resourceType": "AllergyIntolerance",
                "id": "b25e009d-0b75-37c9-9218-b91476be6e50",
                "identifier": [
                    {
                        "system": "urn:ietf:rfc:3986",
                        "value": "urn:uuid:886d8f1a-6370-4cfa-ba76-f35684478c0b"
                    }
                ],
                "clinicalStatus": {
                    "coding": [
                        {
                            "system": "http://terminology.hl7.org/CodeSystem/allergyintolerance-clinical",
                            "code": "active"
                        }
                    ]
                },
                "verificationStatus": {
                    "coding": [
                        {
                            "system": "http://terminology.hl7.org/CodeSystem/allergyintolerance-verification",
                            "code": "confirmed",
                            "display": "Confirmed"
                        }
                    ]
                },
                "code": {
                    "coding": [
                        {
                            "code": "247472004",
                            "display": "Hives",
                            "system": "http://snomed.info/sct"
                        }
                    ]
                },
                "reaction": [
                    {
                        "substance": {
                            "coding": [
                                {
                                    "code": "373270004",
                                    "display": "Penicillins",
                                    "system": "http://snomed.info/sct"
                                }
                            ]
                        },
                        "manifestation": [
                            {
                                "coding": [
                                    {
                                        "code": "247472004",
                                        "display": "Hives",
                                        "system": "http://snomed.info/sct"
                                    }
                                ]
                            }
                        ]
                    }
                ],
                "patient": {
                    "reference": "Patient/f40da2df-7505-315a-9acb-55513a02c37b"
                }
            },
            "request": {
                "method": "PUT",
                "url": "AllergyIntolerance/b25e009d-0b75-37c9-9218-b91476be6e50"
            }
        },
        {
            "fullUrl": "urn:uuid:1e8411b1-384e-3468-b918-c2663a5f7222",
            "resource": {
                "resourceType": "MedicationStatement",
                "id": "1e8411b1-384e-3468-b918-c2663a5f7222",
                "identifier": [
                    {
                        "system": "urn:ietf:rfc:3986",
                        "value": "urn:uuid:5620f697-604b-4a1f-81ab-ad9dde149a16"
                    }
                ],
                "status": "active",
                "effectivePeriod": {
                    "start": "2015-06-22"
                },
                "dosage": [
                    {
                        "text": "Inject 1 syringe intramuscularly once a week",
                        "doseAndRate": [
                            {
                                "doseQuantity": {
                                    "value": 1
                                }
                            }
                        ]
                    }
                ],
                "subject": {
                    "reference": "Patient/f40da2df-7505-315a-9acb-55513a02c37b"
                },
                "medicationReference": {
                    "reference": "Medication/a6491cac-c1ee-3c02-a78e-063c467a9350"
                }
            },
            "request": {
                "method": "PUT",
                "url": "MedicationStatement/1e8411b1-384e-3468-b918-c2663a5f7222"
            }
        },
        {
            "fullUrl": "urn:uuid:a6491cac-c1ee-3c02-a78e-063c467a9350",
            "resource": {
                "resourceType": "Medication",
                "id": "a6491cac-c1ee-3c02-a78e-063c467a9350",
                "code": {
                    "coding": [
                        {
                            "code": "731241",
                            "display": "Aranesp (in polysorbate) 500 mcg/mL syringe",
                            "system": "http://www.nlm.nih.gov/research/umls/rxnorm"
                        }
                    ]
                }
            },
            "request": {
                "method": "PUT",
                "url": "Medication/a6491cac-c1ee-3c02-a78e-063c467a9350"
            }
        },
        {
            "fullUrl": "urn:uuid:8b967752-2291-3684-b4a3-f6276e20e3d6",
            "resource": {
                "resourceType": "MedicationRequest",
                "id": "8b967752-2291-3684-b4a3-f6276e20e3d6",
                "identifier": [
                    {
                        "system": "urn:ietf:rfc:3986",
                        "value": "urn:uuid:5620f697-604b-4a1f-81ab-ad9dde149a16"
                    }
                ],
                "intent": "order",
                "status": "active",
                "reportedBoolean": false,
                "authoredOn": "2015-06-22",
                "dosageInstruction": [
                    {
                        "text": "Inject 1 syringe intramuscularly once a week",
                        "doseAndRate": [
                            {
                                "doseQuantity": {
                                    "value": 1
                                }
                            }
                        ]
                    }
                ],
                "subject": {
                    "reference": "Patient/f40da2df-7505-315a-9acb-55513a02c37b"
                },
                "medicationReference": {
                    "reference": "Medication/a6491cac-c1ee-3c02-a78e-063c467a9350"
                },
                "requester": {
                    "reference": "Practitioner/77feb0a0-c8a6-342a-98da-5b3375442250"
                }
            },
            "request": {
                "method": "PUT",
                "url": "MedicationRequest/8b967752-2291-3684-b4a3-f6276e20e3d6"
            }
        },
        {
            "fullUrl": "urn:uuid:77feb0a0-c8a6-342a-98da-5b3375442250",
            "resource": {
                "resourceType": "Practitioner",
                "meta": {
                    "profile": [
                        "http://hl7.org/fhir/us/core/StructureDefinition/us-core-practitioner"
                    ]
                },
                "id": "77feb0a0-c8a6-342a-98da-5b3375442250",
                "identifier": [
                    {
                        "system": "http://hl7.org/fhir/sid/us-npi",
                        "value": "99999999"
                    }
                ],
                "name": [
                    {
                        "family": "Zelaznik",
                        "given": [
                            "Steve"
                        ]
                    }
                ],
                "telecom": [
                    {
                        "system": "phone",
                        "value": "UNK",
                        "use": "work"
                    }
                ],
                "qualification": [
                    {
                        "code": {
                            "coding": [
                                {
                                    "code": "UNK"
                                }
                            ]
                        }
                    }
                ]
            },
            "request": {
                "method": "PUT",
                "url": "Practitioner/77feb0a0-c8a6-342a-98da-5b3375442250"
            }
        },
        {
            "fullUrl": "urn:uuid:7004bbbe-7eaa-3fe5-b267-e64bddeb634a",
            "resource": {
                "resourceType": "MedicationStatement",
                "id": "7004bbbe-7eaa-3fe5-b267-e64bddeb634a",
                "identifier": [
                    {
                        "system": "urn:ietf:rfc:3986",
                        "value": "urn:uuid:442f3533-0eaa-4007-a69c-b38df432fbec"
                    }
                ],
                "status": "active",
                "effectivePeriod": {
                    "start": "2022-09-28"
                },
                "dosage": [
                    {
                        "text": "Take 1 tablet by mouth once a day",
                        "doseAndRate": [
                            {
                                "doseQuantity": {
                                    "value": 1
                                }
                            }
                        ]
                    }
                ],
                "subject": {
                    "reference": "Patient/f40da2df-7505-315a-9acb-55513a02c37b"
                },
                "medicationReference": {
                    "reference": "Medication/3a5b2405-cbc2-3370-a18d-a4c96b12a816"
                }
            },
            "request": {
                "method": "PUT",
                "url": "MedicationStatement/7004bbbe-7eaa-3fe5-b267-e64bddeb634a"
            }
        },
        {
            "fullUrl": "urn:uuid:3a5b2405-cbc2-3370-a18d-a4c96b12a816",
            "resource": {
                "resourceType": "Medication",
                "id": "3a5b2405-cbc2-3370-a18d-a4c96b12a816",
                "code": {
                    "coding": [
                        {
                            "code": "308460",
                            "display": "azithromycin 250 mg tablet",
                            "system": "http://www.nlm.nih.gov/research/umls/rxnorm"
                        }
                    ]
                }
            },
            "request": {
                "method": "PUT",
                "url": "Medication/3a5b2405-cbc2-3370-a18d-a4c96b12a816"
            }
        },
        {
            "fullUrl": "urn:uuid:7004bbbe-7eaa-3fe5-b267-e64bddeb634a",
            "resource": {
                "resourceType": "MedicationRequest",
                "id": "7004bbbe-7eaa-3fe5-b267-e64bddeb634a",
                "identifier": [
                    {
                        "system": "urn:ietf:rfc:3986",
                        "value": "urn:uuid:442f3533-0eaa-4007-a69c-b38df432fbec"
                    }
                ],
                "intent": "plan",
                "status": "active",
                "reportedBoolean": true,
                "authoredOn": "2022-09-28",
                "dosageInstruction": [
                    {
                        "text": "Take 1 tablet by mouth once a day",
                        "doseAndRate": [
                            {
                                "doseQuantity": {
                                    "value": 1
                                }
                            }
                        ]
                    }
                ],
                "subject": {
                    "reference": "Patient/f40da2df-7505-315a-9acb-55513a02c37b"
                },
                "requester": {
                    "reference": "Patient/f40da2df-7505-315a-9acb-55513a02c37b"
                },
                "medicationReference": {
                    "reference": "Medication/3a5b2405-cbc2-3370-a18d-a4c96b12a816"
                }
            },
            "request": {
                "method": "PUT",
                "url": "MedicationRequest/7004bbbe-7eaa-3fe5-b267-e64bddeb634a"
            }
        },
        {
            "fullUrl": "urn:uuid:dddce50a-d85b-3c5a-afd3-b18ba41681e0",
            "resource": {
                "resourceType": "MedicationStatement",
                "id": "dddce50a-d85b-3c5a-afd3-b18ba41681e0",
                "identifier": [
                    {
                        "system": "urn:ietf:rfc:3986",
                        "value": "urn:uuid:eb4644d6-0181-484c-8daa-a200d5e0c41c"
                    }
                ],
                "status": "active",
                "effectivePeriod": {
                    "start": "2015-06-22"
                },
                "dosage": [
                    {
                        "text": "Inject 1 unit twice a day as directed",
                        "doseAndRate": [
                            {
                                "doseQuantity": {
                                    "value": 1
                                }
                            }
                        ]
                    }
                ],
                "subject": {
                    "reference": "Patient/f40da2df-7505-315a-9acb-55513a02c37b"
                },
                "medicationReference": {
                    "reference": "Medication/0ca58338-80c4-3637-8f7f-2ad7a174d09c"
                }
            },
            "request": {
                "method": "PUT",
                "url": "MedicationStatement/dddce50a-d85b-3c5a-afd3-b18ba41681e0"
            }
        },
        {
            "fullUrl": "urn:uuid:0ca58338-80c4-3637-8f7f-2ad7a174d09c",
            "resource": {
                "resourceType": "Medication",
                "id": "0ca58338-80c4-3637-8f7f-2ad7a174d09c",
                "code": {
                    "coding": [
                        {
                            "code": "309090",
                            "display": "ceftriaxone 10 gram recon soln",
                            "system": "http://www.nlm.nih.gov/research/umls/rxnorm"
                        }
                    ]
                }
            },
            "request": {
                "method": "PUT",
                "url": "Medication/0ca58338-80c4-3637-8f7f-2ad7a174d09c"
            }
        },
        {
            "fullUrl": "urn:uuid:02ba8ccb-9388-3595-9f2f-db1335800d0a",
            "resource": {
                "resourceType": "MedicationRequest",
                "id": "02ba8ccb-9388-3595-9f2f-db1335800d0a",
                "identifier": [
                    {
                        "system": "urn:ietf:rfc:3986",
                        "value": "urn:uuid:eb4644d6-0181-484c-8daa-a200d5e0c41c"
                    }
                ],
                "intent": "order",
                "status": "active",
                "reportedBoolean": false,
                "authoredOn": "2015-06-22",
                "dosageInstruction": [
                    {
                        "text": "Inject 1 unit twice a day as directed",
                        "doseAndRate": [
                            {
                                "doseQuantity": {
                                    "value": 1
                                }
                            }
                        ]
                    }
                ],
                "subject": {
                    "reference": "Patient/f40da2df-7505-315a-9acb-55513a02c37b"
                },
                "medicationReference": {
                    "reference": "Medication/0ca58338-80c4-3637-8f7f-2ad7a174d09c"
                },
                "requester": {
                    "reference": "Practitioner/77feb0a0-c8a6-342a-98da-5b3375442250"
                }
            },
            "request": {
                "method": "PUT",
                "url": "MedicationRequest/02ba8ccb-9388-3595-9f2f-db1335800d0a"
            }
        },
        {
            "fullUrl": "urn:uuid:fc713aae-fc0d-3939-a103-24d87cf2180c",
            "resource": {
                "resourceType": "MedicationStatement",
                "id": "fc713aae-fc0d-3939-a103-24d87cf2180c",
                "identifier": [
                    {
                        "system": "urn:ietf:rfc:3986",
                        "value": "urn:uuid:63a17918-c93d-46b0-837f-41161f378483"
                    }
                ],
                "status": "active",
                "effectivePeriod": {
                    "start": "2015-06-22"
                },
                "dosage": [
                    {
                        "text": "Take 1 tablet by mouth as needed",
                        "doseAndRate": [
                            {
                                "doseQuantity": {
                                    "value": 1
                                }
                            }
                        ]
                    }
                ],
                "subject": {
                    "reference": "Patient/f40da2df-7505-315a-9acb-55513a02c37b"
                },
                "medicationReference": {
                    "reference": "Medication/f1bf406b-00cb-333d-bfe9-1c9e0a070162"
                }
            },
            "request": {
                "method": "PUT",
                "url": "MedicationStatement/fc713aae-fc0d-3939-a103-24d87cf2180c"
            }
        },
        {
            "fullUrl": "urn:uuid:f1bf406b-00cb-333d-bfe9-1c9e0a070162",
            "resource": {
                "resourceType": "Medication",
                "id": "f1bf406b-00cb-333d-bfe9-1c9e0a070162",
                "code": {
                    "coding": [
                        {
                            "code": "209459",
                            "display": "Tylenol Extra Strength 500 mg tablet",
                            "system": "http://www.nlm.nih.gov/research/umls/rxnorm"
                        }
                    ]
                }
            },
            "request": {
                "method": "PUT",
                "url": "Medication/f1bf406b-00cb-333d-bfe9-1c9e0a070162"
            }
        },
        {
            "fullUrl": "urn:uuid:b94acd39-3bc9-390f-b44a-c36de0a54a66",
            "resource": {
                "resourceType": "MedicationRequest",
                "id": "b94acd39-3bc9-390f-b44a-c36de0a54a66",
                "identifier": [
                    {
                        "system": "urn:ietf:rfc:3986",
                        "value": "urn:uuid:63a17918-c93d-46b0-837f-41161f378483"
                    }
                ],
                "intent": "order",
                "status": "active",
                "reportedBoolean": false,
                "authoredOn": "2015-06-22",
                "dosageInstruction": [
                    {
                        "text": "Take 1 tablet by mouth as needed",
                        "doseAndRate": [
                            {
                                "doseQuantity": {
                                    "value": 1
                                }
                            }
                        ]
                    }
                ],
                "subject": {
                    "reference": "Patient/f40da2df-7505-315a-9acb-55513a02c37b"
                },
                "medicationReference": {
                    "reference": "Medication/f1bf406b-00cb-333d-bfe9-1c9e0a070162"
                },
                "requester": {
                    "reference": "Practitioner/77feb0a0-c8a6-342a-98da-5b3375442250"
                }
            },
            "request": {
                "method": "PUT",
                "url": "MedicationRequest/b94acd39-3bc9-390f-b44a-c36de0a54a66"
            }
        },
        {
            "fullUrl": "urn:uuid:ffb4b66f-cffb-3afe-a9e7-d75534d088f3",
            "resource": {
                "resourceType": "Condition",
                "id": "ffb4b66f-cffb-3afe-a9e7-d75534d088f3",
                "identifier": [
                    {
                        "system": "urn:ietf:rfc:3986",
                        "value": "urn:uuid:1.3.6.1.4.1.22812.4.111.0.4.1.32939"
                    }
                ],
                "verificationStatus": {
                    "coding": [
                        {
                            "system": "http://terminology.hl7.org/CodeSystem/condition-ver-status",
                            "code": "confirmed"
                        }
                    ]
                },
                "category": [
                    {
                        "coding": [
                            {
                                "system": "http://snomed.info/sct",
                                "code": "55607006",
                                "display": "Problem"
                            },
                            {
                                "system": "http://terminology.hl7.org/CodeSystem/condition-category",
                                "code": "problem-list-item"
                            }
                        ]
                    }
                ],
                "clinicalStatus": {
                    "coding": [
                        {
                            "system": "http://terminology.hl7.org/CodeSystem/condition-clinical",
                            "code": "inactive"
                        }
                    ]
                },
                "code": {
                    "coding": [
                        {
                            "code": "244.8",
                            "display": "Other specified acquired hypothyroidism",
                            "system": "urn:oid:2.16.840.1.113883.6.103"
                        }
                    ]
                },
                "onsetDateTime": "2006-12-31T05:00:00.000Z",
                "subject": {
                    "reference": "Patient/f40da2df-7505-315a-9acb-55513a02c37b"
                }
            },
            "request": {
                "method": "PUT",
                "url": "Condition/ffb4b66f-cffb-3afe-a9e7-d75534d088f3"
            }
        },
        {
            "fullUrl": "urn:uuid:e85a5f6b-a9b4-3f86-a9d7-7095e485351b",
            "resource": {
                "resourceType": "Condition",
                "id": "e85a5f6b-a9b4-3f86-a9d7-7095e485351b",
                "identifier": [
                    {
                        "system": "urn:ietf:rfc:3986",
                        "value": "urn:uuid:1.3.6.1.4.1.22812.4.111.0.4.1.32940"
                    }
                ],
                "verificationStatus": {
                    "coding": [
                        {
                            "system": "http://terminology.hl7.org/CodeSystem/condition-ver-status",
                            "code": "confirmed"
                        }
                    ]
                },
                "category": [
                    {
                        "coding": [
                            {
                                "system": "http://snomed.info/sct",
                                "code": "55607006",
                                "display": "Problem"
                            },
                            {
                                "system": "http://terminology.hl7.org/CodeSystem/condition-category",
                                "code": "problem-list-item"
                            }
                        ]
                    }
                ],
                "clinicalStatus": {
                    "coding": [
                        {
                            "system": "http://terminology.hl7.org/CodeSystem/condition-clinical",
                            "code": "inactive"
                        }
                    ]
                },
                "code": {
                    "coding": [
                        {
                            "code": "996.81",
                            "display": "Complications of transplanted kidney",
                            "system": "urn:oid:2.16.840.1.113883.6.103"
                        }
                    ]
                },
                "onsetDateTime": "2011-12-31T05:00:00.000Z",
                "subject": {
                    "reference": "Patient/f40da2df-7505-315a-9acb-55513a02c37b"
                }
            },
            "request": {
                "method": "PUT",
                "url": "Condition/e85a5f6b-a9b4-3f86-a9d7-7095e485351b"
            }
        },
        {
            "fullUrl": "urn:uuid:081341a3-b007-34b2-ad29-d010dad2ddf6",
            "resource": {
                "resourceType": "Condition",
                "id": "081341a3-b007-34b2-ad29-d010dad2ddf6",
                "identifier": [
                    {
                        "system": "urn:ietf:rfc:3986",
                        "value": "urn:uuid:1.3.6.1.4.1.22812.4.111.0.4.1.32941"
                    }
                ],
                "verificationStatus": {
                    "coding": [
                        {
                            "system": "http://terminology.hl7.org/CodeSystem/condition-ver-status",
                            "code": "confirmed"
                        }
                    ]
                },
                "category": [
                    {
                        "coding": [
                            {
                                "system": "http://snomed.info/sct",
                                "code": "55607006",
                                "display": "Problem"
                            },
                            {
                                "system": "http://terminology.hl7.org/CodeSystem/condition-category",
                                "code": "problem-list-item"
                            }
                        ]
                    }
                ],
                "clinicalStatus": {
                    "coding": [
                        {
                            "system": "http://terminology.hl7.org/CodeSystem/condition-clinical",
                            "code": "inactive"
                        }
                    ]
                },
                "code": {
                    "coding": [
                        {
                            "code": "780.60",
                            "display": "Fever, unspecified",
                            "system": "urn:oid:2.16.840.1.113883.6.103"
                        }
                    ]
                },
                "onsetDateTime": "2015-06-22T04:00:00.000Z",
                "subject": {
                    "reference": "Patient/f40da2df-7505-315a-9acb-55513a02c37b"
                }
            },
            "request": {
                "method": "PUT",
                "url": "Condition/081341a3-b007-34b2-ad29-d010dad2ddf6"
            }
        },
        {
            "fullUrl": "urn:uuid:e2717651-459a-32eb-a348-427144ccf9cd",
            "resource": {
                "resourceType": "Condition",
                "id": "e2717651-459a-32eb-a348-427144ccf9cd",
                "identifier": [
                    {
                        "system": "urn:ietf:rfc:3986",
                        "value": "urn:uuid:1.3.6.1.4.1.22812.4.111.0.4.1.32938"
                    }
                ],
                "verificationStatus": {
                    "coding": [
                        {
                            "system": "http://terminology.hl7.org/CodeSystem/condition-ver-status",
                            "code": "confirmed"
                        }
                    ]
                },
                "category": [
                    {
                        "coding": [
                            {
                                "system": "http://snomed.info/sct",
                                "code": "55607006",
                                "display": "Problem"
                            },
                            {
                                "system": "http://terminology.hl7.org/CodeSystem/condition-category",
                                "code": "problem-list-item"
                            }
                        ]
                    }
                ],
                "clinicalStatus": {
                    "coding": [
                        {
                            "system": "http://terminology.hl7.org/CodeSystem/condition-clinical",
                            "code": "inactive"
                        }
                    ]
                },
                "code": {
                    "coding": [
                        {
                            "code": "401.9",
                            "display": "Unspecified essential hypertension",
                            "system": "urn:oid:2.16.840.1.113883.6.103"
                        }
                    ]
                },
                "onsetDateTime": "2011-10-05T04:00:00.000Z",
                "subject": {
                    "reference": "Patient/f40da2df-7505-315a-9acb-55513a02c37b"
                }
            },
            "request": {
                "method": "PUT",
                "url": "Condition/e2717651-459a-32eb-a348-427144ccf9cd"
            }
        },
        {
            "fullUrl": "urn:uuid:767e0192-6340-39d6-9075-7520af641c48",
            "resource": {
                "resourceType": "Condition",
                "id": "767e0192-6340-39d6-9075-7520af641c48",
                "identifier": [
                    {
                        "system": "urn:ietf:rfc:3986",
                        "value": "urn:uuid:1.3.6.1.4.1.22812.4.111.0.4.1.32942"
                    }
                ],
                "verificationStatus": {
                    "coding": [
                        {
                            "system": "http://terminology.hl7.org/CodeSystem/condition-ver-status",
                            "code": "confirmed"
                        }
                    ]
                },
                "category": [
                    {
                        "coding": [
                            {
                                "system": "http://snomed.info/sct",
                                "code": "55607006",
                                "display": "Problem"
                            },
                            {
                                "system": "http://terminology.hl7.org/CodeSystem/condition-category",
                                "code": "problem-list-item"
                            }
                        ]
                    }
                ],
                "clinicalStatus": {
                    "coding": [
                        {
                            "system": "http://terminology.hl7.org/CodeSystem/condition-clinical",
                            "code": "inactive"
                        }
                    ]
                },
                "code": {
                    "coding": [
                        {
                            "code": "278.02",
                            "display": "Overweight",
                            "system": "urn:oid:2.16.840.1.113883.6.103"
                        }
                    ]
                },
                "onsetDateTime": "2006-12-31T05:00:00.000Z",
                "subject": {
                    "reference": "Patient/f40da2df-7505-315a-9acb-55513a02c37b"
                }
            },
            "request": {
                "method": "PUT",
                "url": "Condition/767e0192-6340-39d6-9075-7520af641c48"
            }
        },
        {
            "fullUrl": "urn:uuid:2591e57a-96fa-387d-8c00-358e1c96a7dc",
            "resource": {
                "resourceType": "DiagnosticReport",
                "id": "2591e57a-96fa-387d-8c00-358e1c96a7dc",
                "identifier": [
                    {
                        "system": "urn:ietf:rfc:3986",
                        "value": "urn:uuid:ad8da8cb-682d-4843-b5d1-55168bb9afab"
                    }
                ],
                "status": "final",
                "category": [
                    {
                        "coding": [
                            {
                                "system": "http://terminology.hl7.org/CodeSystem/v2-0074",
                                "code": "LAB",
                                "display": "Laboratory"
                            }
                        ]
                    }
                ],
                "code": {
                    "coding": [
                        {
                            "system": "http://terminology.hl7.org/CodeSystem/v2-0074",
                            "code": "LAB",
                            "display": "Urinanalysis macro (dipstick) panel"
                        }
                    ],
                    "text": "Urinanalysis macro (dipstick) panel"
                },
                "effectivePeriod": {
                    "start": "2015-06-22T00:00:00.000Z",
                    "end": "2015-06-22T00:00:00.000Z"
                },
                "issued": "2015-06-22T00:00:00.000Z",
                "subject": {
                    "reference": "Patient/f40da2df-7505-315a-9acb-55513a02c37b"
                },
                "result": [
                    {
                        "reference": "Observation/9ab48ccc-66bd-33e2-8284-0a3ee7a4bfff"
                    },
                    {
                        "reference": "Observation/7d9e2b6f-2f4a-34fa-af2a-3fdf63aea044"
                    },
                    {
                        "reference": "Observation/eef9b112-d5ec-3bb4-9bba-f6bb0b24cb5f"
                    },
                    {
                        "reference": "Observation/c4fb2894-5162-35a2-902c-f137ec352fab"
                    },
                    {
                        "reference": "Observation/a35e1b3d-4a9e-32cd-84a8-f8b672723b78"
                    },
                    {
                        "reference": "Observation/ce8e11be-1ebd-3414-82bf-ad1a263c1c0b"
                    },
                    {
                        "reference": "Observation/d21c9acb-08f7-3571-a717-ffb44dc1398f"
                    }
                ]
            },
            "request": {
                "method": "PUT",
                "url": "DiagnosticReport/2591e57a-96fa-387d-8c00-358e1c96a7dc"
            }
        },
        {
            "fullUrl": "urn:uuid:9ab48ccc-66bd-33e2-8284-0a3ee7a4bfff",
            "resource": {
                "resourceType": "Observation",
                "meta": {
                    "profile": [
                        "http://hl7.org/fhir/us/core/StructureDefinition/us-core-observationresults"
                    ]
                },
                "id": "9ab48ccc-66bd-33e2-8284-0a3ee7a4bfff",
                "identifier": [
                    {
                        "system": "urn:ietf:rfc:3986",
                        "value": "urn:uuid:8248cc5d-f9bd-4d76-95d8-387ea9f22e3d"
                    }
                ],
                "category": [
                    {
                        "coding": [
                            {
                                "system": "http://terminology.hl7.org/CodeSystem/observation-category",
                                "code": "laboratory"
                            }
                        ]
                    }
                ],
                "status": "final",
                "code": {
                    "coding": [
                        {
                            "code": "5778-6",
                            "display": "Color of Urine",
                            "system": "http://loinc.org"
                        }
                    ]
                },
                "effectiveDateTime": "2015-06-22T00:00:00.000Z",
                "issued": "2015-06-22T00:00:00.000Z",
                "valueString": "Yellow",
                "subject": {
                    "reference": "Patient/f40da2df-7505-315a-9acb-55513a02c37b"
                }
            },
            "request": {
                "method": "PUT",
                "url": "Observation/9ab48ccc-66bd-33e2-8284-0a3ee7a4bfff"
            }
        },
        {
            "fullUrl": "urn:uuid:7d9e2b6f-2f4a-34fa-af2a-3fdf63aea044",
            "resource": {
                "resourceType": "Observation",
                "meta": {
                    "profile": [
                        "http://hl7.org/fhir/us/core/StructureDefinition/us-core-observationresults"
                    ]
                },
                "id": "7d9e2b6f-2f4a-34fa-af2a-3fdf63aea044",
                "identifier": [
                    {
                        "system": "urn:ietf:rfc:3986",
                        "value": "urn:uuid:7bc81c82-fa88-4a24-92f4-1bb6fc854df1"
                    }
                ],
                "category": [
                    {
                        "coding": [
                            {
                                "system": "http://terminology.hl7.org/CodeSystem/observation-category",
                                "code": "laboratory"
                            }
                        ]
                    }
                ],
                "status": "final",
                "code": {
                    "coding": [
                        {
                            "code": "5767-9",
                            "display": "Appearance of Urine",
                            "system": "http://loinc.org"
                        }
                    ]
                },
                "effectiveDateTime": "2015-06-22T00:00:00.000Z",
                "issued": "2015-06-22T00:00:00.000Z",
                "valueString": "Clear",
                "subject": {
                    "reference": "Patient/f40da2df-7505-315a-9acb-55513a02c37b"
                }
            },
            "request": {
                "method": "PUT",
                "url": "Observation/7d9e2b6f-2f4a-34fa-af2a-3fdf63aea044"
            }
        },
        {
            "fullUrl": "urn:uuid:eef9b112-d5ec-3bb4-9bba-f6bb0b24cb5f",
            "resource": {
                "resourceType": "Observation",
                "meta": {
                    "profile": [
                        "http://hl7.org/fhir/us/core/StructureDefinition/us-core-observationresults"
                    ]
                },
                "id": "eef9b112-d5ec-3bb4-9bba-f6bb0b24cb5f",
                "identifier": [
                    {
                        "system": "urn:ietf:rfc:3986",
                        "value": "urn:uuid:13e747b9-ab45-4483-bc90-52ca8df98a5a"
                    }
                ],
                "category": [
                    {
                        "coding": [
                            {
                                "system": "http://terminology.hl7.org/CodeSystem/observation-category",
                                "code": "laboratory"
                            }
                        ]
                    }
                ],
                "status": "final",
                "code": {
                    "coding": [
                        {
                            "code": "5811-5",
                            "display": "Specific gravity of Urine by Test strip",
                            "system": "http://loinc.org"
                        }
                    ]
                },
                "effectiveDateTime": "2015-06-22T00:00:00.000Z",
                "issued": "2015-06-22T00:00:00.000Z",
                "valueQuantity": {
                    "value": 1.015,
                    "unit": "1",
                    "system": "http://unitsofmeasure.org",
                    "code": "1"
                },
                "referenceRange": [
                    {
                        "low": {
                            "value": 1.005,
                            "unit": "1"
                        },
                        "high": {
                            "value": 1.03,
                            "unit": "1"
                        }
                    }
                ],
                "subject": {
                    "reference": "Patient/f40da2df-7505-315a-9acb-55513a02c37b"
                }
            },
            "request": {
                "method": "PUT",
                "url": "Observation/eef9b112-d5ec-3bb4-9bba-f6bb0b24cb5f"
            }
        },
        {
            "fullUrl": "urn:uuid:c4fb2894-5162-35a2-902c-f137ec352fab",
            "resource": {
                "resourceType": "Observation",
                "meta": {
                    "profile": [
                        "http://hl7.org/fhir/us/core/StructureDefinition/us-core-observationresults"
                    ]
                },
                "id": "c4fb2894-5162-35a2-902c-f137ec352fab",
                "identifier": [
                    {
                        "system": "urn:ietf:rfc:3986",
                        "value": "urn:uuid:16d2d831-a8cd-47c0-9906-45e9c48dbfc7"
                    }
                ],
                "category": [
                    {
                        "coding": [
                            {
                                "system": "http://terminology.hl7.org/CodeSystem/observation-category",
                                "code": "laboratory"
                            }
                        ]
                    }
                ],
                "status": "final",
                "code": {
                    "coding": [
                        {
                            "code": "5803-2",
                            "display": "pH of Urine by Test strip",
                            "system": "http://loinc.org"
                        }
                    ]
                },
                "effectiveDateTime": "2015-06-22T00:00:00.000Z",
                "issued": "2015-06-22T00:00:00.000Z",
                "valueQuantity": {
                    "value": 5,
                    "unit": "[pH]",
                    "system": "http://unitsofmeasure.org",
                    "code": "[pH]"
                },
                "referenceRange": [
                    {
                        "low": {
                            "value": 5,
                            "unit": "[pH]"
                        },
                        "high": {
                            "value": 8,
                            "unit": "[pH]"
                        }
                    }
                ],
                "subject": {
                    "reference": "Patient/f40da2df-7505-315a-9acb-55513a02c37b"
                }
            },
            "request": {
                "method": "PUT",
                "url": "Observation/c4fb2894-5162-35a2-902c-f137ec352fab"
            }
        },
        {
            "fullUrl": "urn:uuid:a35e1b3d-4a9e-32cd-84a8-f8b672723b78",
            "resource": {
                "resourceType": "Observation",
                "meta": {
                    "profile": [
                        "http://hl7.org/fhir/us/core/StructureDefinition/us-core-observationresults"
                    ]
                },
                "id": "a35e1b3d-4a9e-32cd-84a8-f8b672723b78",
                "identifier": [
                    {
                        "system": "urn:ietf:rfc:3986",
                        "value": "urn:uuid:37b7d6cd-1c35-483a-96c7-a8ba1b9687ae"
                    }
                ],
                "category": [
                    {
                        "coding": [
                            {
                                "system": "http://terminology.hl7.org/CodeSystem/observation-category",
                                "code": "laboratory"
                            }
                        ]
                    }
                ],
                "status": "final",
                "code": {
                    "coding": [
                        {
                            "code": "5792-7",
                            "display": "Glucose[Mass/volume] in urine by test strip",
                            "system": "http://loinc.org"
                        }
                    ]
                },
                "effectiveDateTime": "2015-06-22T00:00:00.000Z",
                "issued": "2015-06-22T00:00:00.000Z",
                "valueQuantity": {
                    "value": 50,
                    "unit": "mg/dL",
                    "system": "http://unitsofmeasure.org",
                    "code": "mg/dL"
                },
                "subject": {
                    "reference": "Patient/f40da2df-7505-315a-9acb-55513a02c37b"
                }
            },
            "request": {
                "method": "PUT",
                "url": "Observation/a35e1b3d-4a9e-32cd-84a8-f8b672723b78"
            }
        },
        {
            "fullUrl": "urn:uuid:ce8e11be-1ebd-3414-82bf-ad1a263c1c0b",
            "resource": {
                "resourceType": "Observation",
                "meta": {
                    "profile": [
                        "http://hl7.org/fhir/us/core/StructureDefinition/us-core-observationresults"
                    ]
                },
                "id": "ce8e11be-1ebd-3414-82bf-ad1a263c1c0b",
                "identifier": [
                    {
                        "system": "urn:ietf:rfc:3986",
                        "value": "urn:uuid:239624b7-bc33-4a46-933a-08d8e93e2ecd"
                    }
                ],
                "category": [
                    {
                        "coding": [
                            {
                                "system": "http://terminology.hl7.org/CodeSystem/observation-category",
                                "code": "laboratory"
                            }
                        ]
                    }
                ],
                "status": "final",
                "code": {
                    "coding": [
                        {
                            "code": "5797-6",
                            "display": "Ketones[Mass/volume] in urine by test strip",
                            "system": "http://loinc.org"
                        }
                    ]
                },
                "effectiveDateTime": "2015-06-22T00:00:00.000Z",
                "issued": "2015-06-22T00:00:00.000Z",
                "valueString": "Negative",
                "subject": {
                    "reference": "Patient/f40da2df-7505-315a-9acb-55513a02c37b"
                }
            },
            "request": {
                "method": "PUT",
                "url": "Observation/ce8e11be-1ebd-3414-82bf-ad1a263c1c0b"
            }
        },
        {
            "fullUrl": "urn:uuid:d21c9acb-08f7-3571-a717-ffb44dc1398f",
            "resource": {
                "resourceType": "Observation",
                "meta": {
                    "profile": [
                        "http://hl7.org/fhir/us/core/StructureDefinition/us-core-observationresults"
                    ]
                },
                "id": "d21c9acb-08f7-3571-a717-ffb44dc1398f",
                "identifier": [
                    {
                        "system": "urn:ietf:rfc:3986",
                        "value": "urn:uuid:777cab28-33c2-4a1b-ae79-9873fba87c4b"
                    }
                ],
                "category": [
                    {
                        "coding": [
                            {
                                "system": "http://terminology.hl7.org/CodeSystem/observation-category",
                                "code": "laboratory"
                            }
                        ]
                    }
                ],
                "status": "final",
                "code": {
                    "coding": [
                        {
                            "code": "5804-0",
                            "display": "Protein[Mass/volume] in urine by test strip",
                            "system": "http://loinc.org"
                        }
                    ]
                },
                "effectiveDateTime": "2015-06-22T00:00:00.000Z",
                "issued": "2015-06-22T00:00:00.000Z",
                "valueQuantity": {
                    "value": 100,
                    "unit": "mg/dL",
                    "system": "http://unitsofmeasure.org",
                    "code": "mg/dL"
                },
                "subject": {
                    "reference": "Patient/f40da2df-7505-315a-9acb-55513a02c37b"
                }
            },
            "request": {
                "method": "PUT",
                "url": "Observation/d21c9acb-08f7-3571-a717-ffb44dc1398f"
            }
        },
        {
            "fullUrl": "urn:uuid:e8f6ec63-a2a8-3fbb-971c-b246815590a4",
            "resource": {
                "resourceType": "DiagnosticReport",
                "id": "e8f6ec63-a2a8-3fbb-971c-b246815590a4",
                "identifier": [
                    {
                        "system": "urn:ietf:rfc:3986",
                        "value": "urn:uuid:b2d72c0a-68bf-4b7e-97a1-fdc8369c0adb"
                    }
                ],
                "status": "final",
                "category": [
                    {
                        "coding": [
                            {
                                "system": "http://terminology.hl7.org/CodeSystem/v2-0074",
                                "code": "LAB",
                                "display": "Laboratory"
                            }
                        ]
                    }
                ],
                "code": {
                    "coding": [
                        {
                            "system": "http://terminology.hl7.org/CodeSystem/v2-0074",
                            "code": "LAB",
                            "display": "Chest X-ray 2 Views"
                        }
                    ],
                    "text": "Chest X-ray 2 Views"
                },
                "effectivePeriod": {
                    "start": "2015-06-22T00:00:00.000Z",
                    "end": "2015-06-22T00:00:00.000Z"
                },
                "issued": "2015-06-22T00:00:00.000Z",
                "subject": {
                    "reference": "Patient/f40da2df-7505-315a-9acb-55513a02c37b"
                },
                "result": [
                    {
                        "reference": "Observation/56864b97-dc37-307a-992e-899a3f2eef7b"
                    }
                ]
            },
            "request": {
                "method": "PUT",
                "url": "DiagnosticReport/e8f6ec63-a2a8-3fbb-971c-b246815590a4"
            }
        },
        {
            "fullUrl": "urn:uuid:56864b97-dc37-307a-992e-899a3f2eef7b",
            "resource": {
                "resourceType": "Observation",
                "meta": {
                    "profile": [
                        "http://hl7.org/fhir/us/core/StructureDefinition/us-core-observationresults"
                    ]
                },
                "id": "56864b97-dc37-307a-992e-899a3f2eef7b",
                "identifier": [
                    {
                        "system": "urn:ietf:rfc:3986",
                        "value": "urn:uuid:3c4f1752-d27e-410c-9573-ddaeb66700c8"
                    }
                ],
                "category": [
                    {
                        "coding": [
                            {
                                "system": "http://terminology.hl7.org/CodeSystem/observation-category",
                                "code": "laboratory"
                            }
                        ]
                    }
                ],
                "status": "final",
                "code": {
                    "coding": [
                        {
                            "code": "36643-5",
                            "display": "Chest X-ray 2 Views",
                            "system": "http://loinc.org"
                        }
                    ]
                },
                "effectiveDateTime": "2015-06-22T00:00:00.000Z",
                "issued": "2015-06-22T00:00:00.000Z",
                "valueString": "Lungs are not clear, cannot rule out Anemia. Other tests are required to determine the presence or absence of Anemia.",
                "subject": {
                    "reference": "Patient/f40da2df-7505-315a-9acb-55513a02c37b"
                }
            },
            "request": {
                "method": "PUT",
                "url": "Observation/56864b97-dc37-307a-992e-899a3f2eef7b"
            }
        },
        {
            "fullUrl": "urn:uuid:e547f21e-9f3b-3368-b546-05393f577394",
            "resource": {
                "resourceType": "Observation",
                "meta": {
                    "profile": [
                        "http://hl7.org/fhir/us/core/StructureDefinition/us-core-observationresults"
                    ]
                },
                "id": "e547f21e-9f3b-3368-b546-05393f577394",
                "category": [
                    {
                        "coding": [
                            {
                                "system": "http://terminology.hl7.org/CodeSystem/observation-category",
                                "code": "social-history"
                            }
                        ]
                    }
                ],
                "status": "final",
                "code": {
                    "coding": [
                        {
                            "code": "ASSERTION",
                            "display": "Assertion",
                            "system": "urn:oid:2.16.840.1.113883.5.4"
                        }
                    ]
                },
                "effectiveDateTime": "2015-06-22T04:00:00.000Z",
                "issued": "2015-06-22T04:00:00.000Z",
                "valueCodeableConcept": {
                    "coding": [
                        {
                            "code": "449868002",
                            "display": "Smokes tobacco daily",
                            "system": "http://snomed.info/sct"
                        }
                    ]
                },
                "subject": {
                    "reference": "Patient/f40da2df-7505-315a-9acb-55513a02c37b"
                }
            },
            "request": {
                "method": "PUT",
                "url": "Observation/e547f21e-9f3b-3368-b546-05393f577394"
            }
        },
        {
            "fullUrl": "urn:uuid:dd5a0dd1-e58c-34b6-8460-b18686169d0c",
            "resource": {
                "resourceType": "Observation",
                "meta": {
                    "profile": [
                        "http://hl7.org/fhir/us/core/StructureDefinition/us-core-observationresults"
                    ]
                },
                "id": "dd5a0dd1-e58c-34b6-8460-b18686169d0c",
                "category": [
                    {
                        "coding": [
                            {
                                "system": "http://terminology.hl7.org/CodeSystem/observation-category",
                                "code": "social-history"
                            }
                        ]
                    }
                ],
                "status": "final",
                "code": {
                    "coding": [
                        {
                            "code": "76689-9",
                            "system": "http://loinc.org"
                        }
                    ]
                },
                "valueCodeableConcept": {
                    "coding": [
                        {
                            "code": "F",
                            "display": "Female",
                            "system": "urn:oid:2.16.840.1.113883.5.1"
                        }
                    ]
                },
                "subject": {
                    "reference": "Patient/f40da2df-7505-315a-9acb-55513a02c37b"
                }
            },
            "request": {
                "method": "PUT",
                "url": "Observation/dd5a0dd1-e58c-34b6-8460-b18686169d0c"
            }
        },
        {
            "fullUrl": "urn:uuid:fcc079c2-3b24-374c-98f0-15156bf19553",
            "resource": {
                "resourceType": "Observation",
                "meta": {
                    "profile": [
                        "http://hl7.org/fhir/us/core/StructureDefinition/us-core-observationresults"
                    ]
                },
                "id": "fcc079c2-3b24-374c-98f0-15156bf19553",
                "category": [
                    {
                        "coding": [
                            {
                                "system": "http://terminology.hl7.org/CodeSystem/observation-category",
                                "code": "social-history"
                            }
                        ]
                    }
                ],
                "status": "final",
                "code": {
                    "coding": [
                        {
                            "code": "72166-2",
                            "system": "http://loinc.org"
                        }
                    ]
                },
                "effectivePeriod": {
                    "start": "2015-06-22T04:00:00.000Z"
                },
                "issued": "2015-06-22T04:00:00.000Z",
                "valueCodeableConcept": {
                    "coding": [
                        {
                            "code": "8517006",
                            "display": "Former Smoker",
                            "system": "http://snomed.info/sct"
                        }
                    ]
                },
                "subject": {
                    "reference": "Patient/f40da2df-7505-315a-9acb-55513a02c37b"
                }
            },
            "request": {
                "method": "PUT",
                "url": "Observation/fcc079c2-3b24-374c-98f0-15156bf19553"
            }
        },
        {
            "fullUrl": "urn:uuid:bd02d10a-b656-34db-b3a5-ae0fd97194f9",
            "resource": {
                "resourceType": "Observation",
                "meta": {
                    "profile": [
                        "http://hl7.org/fhir/us/core/StructureDefinition/us-core-observationresults"
                    ]
                },
                "id": "bd02d10a-b656-34db-b3a5-ae0fd97194f9",
                "identifier": [
                    {
                        "system": "urn:ietf:rfc:3986",
                        "value": "urn:uuid:1.3.6.1.4.1.22812.4.111.0.4.1.0.0"
                    }
                ],
                "category": [
                    {
                        "coding": [
                            {
                                "system": "http://terminology.hl7.org/CodeSystem/observation-category",
                                "code": "vital-signs"
                            }
                        ]
                    }
                ],
                "status": "final",
                "code": {
                    "coding": [
                        {
                            "code": "3150-0",
                            "display": "Inhaled oxygen concentration",
                            "system": "http://loinc.org"
                        }
                    ]
                },
                "effectiveDateTime": "2015-06-02T14:12:00.000Z",
                "issued": "2015-06-02T14:12:00.000Z",
                "valueQuantity": {
                    "value": 36,
                    "unit": "%",
                    "system": "http://unitsofmeasure.org",
                    "code": "%"
                },
                "subject": {
                    "reference": "Patient/f40da2df-7505-315a-9acb-55513a02c37b"
                }
            },
            "request": {
                "method": "PUT",
                "url": "Observation/bd02d10a-b656-34db-b3a5-ae0fd97194f9"
            }
        },
        {
            "fullUrl": "urn:uuid:3f0dd7ff-4d71-3098-a4d9-4382bce111e3",
            "resource": {
                "resourceType": "Observation",
                "meta": {
                    "profile": [
                        "http://hl7.org/fhir/us/core/StructureDefinition/us-core-observationresults"
                    ]
                },
                "id": "3f0dd7ff-4d71-3098-a4d9-4382bce111e3",
                "identifier": [
                    {
                        "system": "urn:ietf:rfc:3986",
                        "value": "urn:uuid:1.3.6.1.4.1.22812.4.111.0.4.1.1"
                    }
                ],
                "category": [
                    {
                        "coding": [
                            {
                                "system": "http://terminology.hl7.org/CodeSystem/observation-category",
                                "code": "vital-signs"
                            }
                        ]
                    }
                ],
                "status": "final",
                "code": {
                    "coding": [
                        {
                            "code": "85354-9",
                            "display": "Blood pressure panel with all children optional",
                            "system": "http://loinc.org"
                        }
                    ]
                },
                "effectiveDateTime": "2015-06-22T23:59:59.000Z",
                "issued": "2015-06-22T23:59:59.000Z",
                "component": [
                    {
                        "code": {
                            "coding": [
                                {
                                    "system": "http://loinc.org",
                                    "code": "8462-4",
                                    "display": "Diastolic blood pressure"
                                }
                            ]
                        },
                        "valueQuantity": {
                            "value": 88,
                            "unit": "mmHg",
                            "system": "http://unitsofmeasure.org",
                            "code": "mm[Hg]"
                        }
                    },
                    {
                        "code": {
                            "coding": [
                                {
                                    "system": "http://loinc.org",
                                    "code": "8480-6",
                                    "display": "Systolic blood pressure"
                                }
                            ]
                        },
                        "valueQuantity": {
                            "value": 145,
                            "unit": "mmHg",
                            "system": "http://unitsofmeasure.org",
                            "code": "mm[Hg]"
                        }
                    }
                ],
                "subject": {
                    "reference": "Patient/f40da2df-7505-315a-9acb-55513a02c37b"
                }
            },
            "request": {
                "method": "PUT",
                "url": "Observation/3f0dd7ff-4d71-3098-a4d9-4382bce111e3"
            }
        },
        {
            "fullUrl": "urn:uuid:4893d915-1bce-32c9-a50a-4432570b4404",
            "resource": {
                "resourceType": "Observation",
                "meta": {
                    "profile": [
                        "http://hl7.org/fhir/us/core/StructureDefinition/us-core-observationresults"
                    ]
                },
                "id": "4893d915-1bce-32c9-a50a-4432570b4404",
                "identifier": [
                    {
                        "system": "urn:ietf:rfc:3986",
                        "value": "urn:uuid:1.3.6.1.4.1.22812.4.111.0.4.1.1.2"
                    }
                ],
                "category": [
                    {
                        "coding": [
                            {
                                "system": "http://terminology.hl7.org/CodeSystem/observation-category",
                                "code": "vital-signs"
                            }
                        ]
                    }
                ],
                "status": "final",
                "code": {
                    "coding": [
                        {
                            "code": "8302-2",
                            "display": "Body height",
                            "system": "http://loinc.org"
                        }
                    ]
                },
                "effectiveDateTime": "2015-06-22T14:05:00.000Z",
                "issued": "2015-06-22T14:05:00.000Z",
                "valueQuantity": {
                    "value": 177,
                    "unit": "cm",
                    "system": "http://unitsofmeasure.org",
                    "code": "cm"
                },
                "subject": {
                    "reference": "Patient/f40da2df-7505-315a-9acb-55513a02c37b"
                }
            },
            "request": {
                "method": "PUT",
                "url": "Observation/4893d915-1bce-32c9-a50a-4432570b4404"
            }
        },
        {
            "fullUrl": "urn:uuid:79ed3990-3061-3eb6-9b3b-c4e33487fd7e",
            "resource": {
                "resourceType": "Observation",
                "meta": {
                    "profile": [
                        "http://hl7.org/fhir/us/core/StructureDefinition/us-core-observationresults"
                    ]
                },
                "id": "79ed3990-3061-3eb6-9b3b-c4e33487fd7e",
                "identifier": [
                    {
                        "system": "urn:ietf:rfc:3986",
                        "value": "urn:uuid:1.3.6.1.4.1.22812.4.111.0.4.1.1.3"
                    }
                ],
                "category": [
                    {
                        "coding": [
                            {
                                "system": "http://terminology.hl7.org/CodeSystem/observation-category",
                                "code": "vital-signs"
                            }
                        ]
                    }
                ],
                "status": "final",
                "code": {
                    "coding": [
                        {
                            "code": "59408-5",
                            "display": "Oxygen saturation in Arterial blood by Pulse oximetry",
                            "system": "http://loinc.org"
                        },
                        {
                            "system": "http://loinc.org",
                            "code": "2708-6",
                            "display": "Oxygen saturation in Arterial blood"
                        }
                    ]
                },
                "effectiveDateTime": "2015-06-22T04:00:00.000Z",
                "issued": "2015-06-22T04:00:00.000Z",
                "valueQuantity": {
                    "value": 95,
                    "unit": "%",
                    "system": "http://unitsofmeasure.org",
                    "code": "%"
                },
                "subject": {
                    "reference": "Patient/f40da2df-7505-315a-9acb-55513a02c37b"
                },
                "component": [
                    {
                        "code": {
                            "coding": [
                                {
                                    "system": "http://loinc.org",
                                    "code": "3151-8",
                                    "display": "Inhaled oxygen flow rate"
                                }
                            ],
                            "text": "Inhaled oxygen flow rate"
                        },
                        "dataAbsentReason": {
                            "coding": [
                                {
                                    "system": "http://terminology.hl7.org/CodeSystem/data-absent-reason",
                                    "code": "unknown",
                                    "display": "Unknown"
                                }
                            ],
                            "text": "Unknown"
                        }
                    },
                    {
                        "code": {
                            "coding": [
                                {
                                    "system": "http://loinc.org",
                                    "code": "3150-0",
                                    "display": "Inhaled oxygen concentration"
                                }
                            ],
                            "text": "Inhaled oxygen concentration"
                        },
                        "dataAbsentReason": {
                            "coding": [
                                {
                                    "system": "http://terminology.hl7.org/CodeSystem/data-absent-reason",
                                    "code": "unknown",
                                    "display": "Unknown"
                                }
                            ],
                            "text": "Unknown"
                        }
                    }
                ]
            },
            "request": {
                "method": "PUT",
                "url": "Observation/79ed3990-3061-3eb6-9b3b-c4e33487fd7e"
            }
        },
        {
            "fullUrl": "urn:uuid:addb9224-20d0-378e-b678-ffde4affbaf2",
            "resource": {
                "resourceType": "Observation",
                "meta": {
                    "profile": [
                        "http://hl7.org/fhir/us/core/StructureDefinition/us-core-observationresults"
                    ]
                },
                "id": "addb9224-20d0-378e-b678-ffde4affbaf2",
                "identifier": [
                    {
                        "system": "urn:ietf:rfc:3986",
                        "value": "urn:uuid:1.3.6.1.4.1.22812.4.111.0.4.1.1.4"
                    }
                ],
                "category": [
                    {
                        "coding": [
                            {
                                "system": "http://terminology.hl7.org/CodeSystem/observation-category",
                                "code": "vital-signs"
                            }
                        ]
                    }
                ],
                "status": "final",
                "code": {
                    "coding": [
                        {
                            "code": "8310-5",
                            "display": "Body Temperature",
                            "system": "http://loinc.org"
                        }
                    ]
                },
                "effectiveDateTime": "2015-06-22T04:00:00.000Z",
                "issued": "2015-06-22T04:00:00.000Z",
                "valueQuantity": {
                    "value": 38,
                    "unit": "Cel",
                    "system": "http://unitsofmeasure.org",
                    "code": "Cel"
                },
                "subject": {
                    "reference": "Patient/f40da2df-7505-315a-9acb-55513a02c37b"
                }
            },
            "request": {
                "method": "PUT",
                "url": "Observation/addb9224-20d0-378e-b678-ffde4affbaf2"
            }
        },
        {
            "fullUrl": "urn:uuid:c9bc6a0e-a670-3b3a-834b-d61f976642fc",
            "resource": {
                "resourceType": "Observation",
                "meta": {
                    "profile": [
                        "http://hl7.org/fhir/us/core/StructureDefinition/us-core-observationresults"
                    ]
                },
                "id": "c9bc6a0e-a670-3b3a-834b-d61f976642fc",
                "identifier": [
                    {
                        "system": "urn:ietf:rfc:3986",
                        "value": "urn:uuid:1.3.6.1.4.1.22812.4.111.0.4.1.1.5"
                    }
                ],
                "category": [
                    {
                        "coding": [
                            {
                                "system": "http://terminology.hl7.org/CodeSystem/observation-category",
                                "code": "vital-signs"
                            }
                        ]
                    }
                ],
                "status": "final",
                "code": {
                    "coding": [
                        {
                            "code": "8867-4",
                            "display": "Heart Rate",
                            "system": "http://loinc.org"
                        }
                    ]
                },
                "effectiveDateTime": "2015-06-22T04:00:00.000Z",
                "issued": "2015-06-22T04:00:00.000Z",
                "valueQuantity": {
                    "value": 80,
                    "unit": "/min",
                    "system": "http://unitsofmeasure.org",
                    "code": "/min"
                },
                "subject": {
                    "reference": "Patient/f40da2df-7505-315a-9acb-55513a02c37b"
                }
            },
            "request": {
                "method": "PUT",
                "url": "Observation/c9bc6a0e-a670-3b3a-834b-d61f976642fc"
            }
        },
        {
            "fullUrl": "urn:uuid:b8a8e92d-fc94-3cba-8b13-62b635aee332",
            "resource": {
                "resourceType": "Observation",
                "meta": {
                    "profile": [
                        "http://hl7.org/fhir/us/core/StructureDefinition/us-core-observationresults"
                    ]
                },
                "id": "b8a8e92d-fc94-3cba-8b13-62b635aee332",
                "identifier": [
                    {
                        "system": "urn:ietf:rfc:3986",
                        "value": "urn:uuid:1.3.6.1.4.1.22812.4.111.0.4.1.1.6"
                    }
                ],
                "category": [
                    {
                        "coding": [
                            {
                                "system": "http://terminology.hl7.org/CodeSystem/observation-category",
                                "code": "vital-signs"
                            }
                        ]
                    }
                ],
                "status": "final",
                "code": {
                    "coding": [
                        {
                            "code": "9279-1",
                            "display": "Respiratory Rate",
                            "system": "http://loinc.org"
                        }
                    ]
                },
                "effectiveDateTime": "2015-06-22T04:00:00.000Z",
                "issued": "2015-06-22T04:00:00.000Z",
                "valueQuantity": {
                    "value": 18,
                    "unit": "/min",
                    "system": "http://unitsofmeasure.org",
                    "code": "/min"
                },
                "subject": {
                    "reference": "Patient/f40da2df-7505-315a-9acb-55513a02c37b"
                }
            },
            "request": {
                "method": "PUT",
                "url": "Observation/b8a8e92d-fc94-3cba-8b13-62b635aee332"
            }
        },
        {
            "fullUrl": "urn:uuid:4b2bada9-e138-3497-a020-5547b9e76921",
            "resource": {
                "resourceType": "Observation",
                "meta": {
                    "profile": [
                        "http://hl7.org/fhir/us/core/StructureDefinition/us-core-observationresults"
                    ]
                },
                "id": "4b2bada9-e138-3497-a020-5547b9e76921",
                "identifier": [
                    {
                        "system": "urn:ietf:rfc:3986",
                        "value": "urn:uuid:1.3.6.1.4.1.22812.4.111.0.4.1.2.0"
                    }
                ],
                "category": [
                    {
                        "coding": [
                            {
                                "system": "http://terminology.hl7.org/CodeSystem/observation-category",
                                "code": "vital-signs"
                            }
                        ]
                    }
                ],
                "status": "final",
                "code": {
                    "coding": [
                        {
                            "code": "29463-7",
                            "display": "Body weight",
                            "system": "http://loinc.org"
                        }
                    ]
                },
                "effectiveDateTime": "2015-06-23T02:05:00.000Z",
                "issued": "2015-06-23T02:05:00.000Z",
                "valueQuantity": {
                    "value": 88,
                    "unit": "kg",
                    "system": "http://unitsofmeasure.org",
                    "code": "kg"
                },
                "subject": {
                    "reference": "Patient/f40da2df-7505-315a-9acb-55513a02c37b"
                }
            },
            "request": {
                "method": "PUT",
                "url": "Observation/4b2bada9-e138-3497-a020-5547b9e76921"
            }
        },
        {
            "fullUrl": "urn:uuid:7092a29e-fb17-3316-95b8-3a4ea81b9c73",
            "resource": {
                "resourceType": "Observation",
                "meta": {
                    "profile": [
                        "http://hl7.org/fhir/us/core/StructureDefinition/us-core-observationresults"
                    ]
                },
                "id": "7092a29e-fb17-3316-95b8-3a4ea81b9c73",
                "identifier": [
                    {
                        "system": "urn:ietf:rfc:3986",
                        "value": "urn:uuid:1.3.6.1.4.1.22812.4.111.0.4.1.3"
                    }
                ],
                "category": [
                    {
                        "coding": [
                            {
                                "system": "http://terminology.hl7.org/CodeSystem/observation-category",
                                "code": "vital-signs"
                            }
                        ]
                    }
                ],
                "status": "final",
                "code": {
                    "coding": [
                        {
                            "code": "85354-9",
                            "display": "Blood pressure panel with all children optional",
                            "system": "http://loinc.org"
                        }
                    ]
                },
                "effectiveDateTime": "2021-01-28T23:59:59.000Z",
                "issued": "2021-01-28T23:59:59.000Z",
                "component": [
                    {
                        "code": {
                            "coding": [
                                {
                                    "system": "http://loinc.org",
                                    "code": "8480-6",
                                    "display": "Systolic blood pressure"
                                }
                            ]
                        },
                        "valueQuantity": {
                            "value": 145,
                            "unit": "mmHg",
                            "system": "http://unitsofmeasure.org",
                            "code": "mm[Hg]"
                        }
                    },
                    {
                        "code": {
                            "coding": [
                                {
                                    "system": "http://loinc.org",
                                    "code": "8462-4",
                                    "display": "Diastolic blood pressure"
                                }
                            ]
                        },
                        "valueQuantity": {
                            "value": 90,
                            "unit": "mmHg",
                            "system": "http://unitsofmeasure.org",
                            "code": "mm[Hg]"
                        }
                    }
                ],
                "subject": {
                    "reference": "Patient/f40da2df-7505-315a-9acb-55513a02c37b"
                }
            },
            "request": {
                "method": "PUT",
                "url": "Observation/7092a29e-fb17-3316-95b8-3a4ea81b9c73"
            }
        },
        {
            "fullUrl": "urn:uuid:4056534e-3535-32e9-ab81-36ea783fdb8e",
            "resource": {
                "resourceType": "Observation",
                "meta": {
                    "profile": [
                        "http://hl7.org/fhir/us/core/StructureDefinition/us-core-observationresults"
                    ]
                },
                "id": "4056534e-3535-32e9-ab81-36ea783fdb8e",
                "identifier": [
                    {
                        "system": "urn:ietf:rfc:3986",
                        "value": "urn:uuid:1.3.6.1.4.1.22812.4.111.0.4.1.3.2"
                    }
                ],
                "category": [
                    {
                        "coding": [
                            {
                                "system": "http://terminology.hl7.org/CodeSystem/observation-category",
                                "code": "vital-signs"
                            }
                        ]
                    }
                ],
                "status": "final",
                "code": {
                    "coding": [
                        {
                            "code": "8302-2",
                            "display": "Body height",
                            "system": "http://loinc.org"
                        }
                    ]
                },
                "effectiveDateTime": "2021-01-28T05:00:00.000Z",
                "issued": "2021-01-28T05:00:00.000Z",
                "valueQuantity": {
                    "value": 177,
                    "unit": "cm",
                    "system": "http://unitsofmeasure.org",
                    "code": "cm"
                },
                "subject": {
                    "reference": "Patient/f40da2df-7505-315a-9acb-55513a02c37b"
                }
            },
            "request": {
                "method": "PUT",
                "url": "Observation/4056534e-3535-32e9-ab81-36ea783fdb8e"
            }
        },
        {
            "fullUrl": "urn:uuid:20d2eede-71b8-3973-baba-0384ff82784b",
            "resource": {
                "resourceType": "Observation",
                "meta": {
                    "profile": [
                        "http://hl7.org/fhir/us/core/StructureDefinition/us-core-observationresults"
                    ]
                },
                "id": "20d2eede-71b8-3973-baba-0384ff82784b",
                "identifier": [
                    {
                        "system": "urn:ietf:rfc:3986",
                        "value": "urn:uuid:1.3.6.1.4.1.22812.4.111.0.4.1.3.3"
                    }
                ],
                "category": [
                    {
                        "coding": [
                            {
                                "system": "http://terminology.hl7.org/CodeSystem/observation-category",
                                "code": "vital-signs"
                            }
                        ]
                    }
                ],
                "status": "final",
                "code": {
                    "coding": [
                        {
                            "code": "29463-7",
                            "display": "Body weight",
                            "system": "http://loinc.org"
                        }
                    ]
                },
                "effectiveDateTime": "2021-01-28T05:00:00.000Z",
                "issued": "2021-01-28T05:00:00.000Z",
                "valueQuantity": {
                    "value": 104,
                    "unit": "kg",
                    "system": "http://unitsofmeasure.org",
                    "code": "kg"
                },
                "subject": {
                    "reference": "Patient/f40da2df-7505-315a-9acb-55513a02c37b"
                }
            },
            "request": {
                "method": "PUT",
                "url": "Observation/20d2eede-71b8-3973-baba-0384ff82784b"
            }
        },
        {
            "fullUrl": "urn:uuid:e8b78df8-55f5-30e0-b55c-ff9da504fc84",
            "resource": {
                "resourceType": "Observation",
                "meta": {
                    "profile": [
                        "http://hl7.org/fhir/us/core/StructureDefinition/us-core-observationresults"
                    ]
                },
                "id": "e8b78df8-55f5-30e0-b55c-ff9da504fc84",
                "identifier": [
                    {
                        "system": "urn:ietf:rfc:3986",
                        "value": "urn:uuid:1.3.6.1.4.1.22812.4.111.0.4.1.4"
                    }
                ],
                "category": [
                    {
                        "coding": [
                            {
                                "system": "http://terminology.hl7.org/CodeSystem/observation-category",
                                "code": "vital-signs"
                            }
                        ]
                    }
                ],
                "status": "final",
                "code": {
                    "coding": [
                        {
                            "code": "85354-9",
                            "display": "Blood pressure panel with all children optional",
                            "system": "http://loinc.org"
                        }
                    ]
                },
                "effectiveDateTime": "2021-05-14T23:59:59.000Z",
                "issued": "2021-05-14T23:59:59.000Z",
                "component": [
                    {
                        "code": {
                            "coding": [
                                {
                                    "system": "http://loinc.org",
                                    "code": "8480-6",
                                    "display": "Systolic blood pressure"
                                }
                            ]
                        },
                        "valueQuantity": {
                            "value": 160,
                            "unit": "mmHg",
                            "system": "http://unitsofmeasure.org",
                            "code": "mm[Hg]"
                        }
                    },
                    {
                        "code": {
                            "coding": [
                                {
                                    "system": "http://loinc.org",
                                    "code": "8462-4",
                                    "display": "Diastolic blood pressure"
                                }
                            ]
                        },
                        "valueQuantity": {
                            "value": 90,
                            "unit": "mmHg",
                            "system": "http://unitsofmeasure.org",
                            "code": "mm[Hg]"
                        }
                    }
                ],
                "subject": {
                    "reference": "Patient/f40da2df-7505-315a-9acb-55513a02c37b"
                }
            },
            "request": {
                "method": "PUT",
                "url": "Observation/e8b78df8-55f5-30e0-b55c-ff9da504fc84"
            }
        },
        {
            "fullUrl": "urn:uuid:d03303d0-c821-3ffe-9b9b-1cab1e58b5b9",
            "resource": {
                "resourceType": "Observation",
                "meta": {
                    "profile": [
                        "http://hl7.org/fhir/us/core/StructureDefinition/us-core-observationresults"
                    ]
                },
                "id": "d03303d0-c821-3ffe-9b9b-1cab1e58b5b9",
                "identifier": [
                    {
                        "system": "urn:ietf:rfc:3986",
                        "value": "urn:uuid:1.3.6.1.4.1.22812.4.111.0.4.1.5"
                    }
                ],
                "category": [
                    {
                        "coding": [
                            {
                                "system": "http://terminology.hl7.org/CodeSystem/observation-category",
                                "code": "vital-signs"
                            }
                        ]
                    }
                ],
                "status": "final",
                "code": {
                    "coding": [
                        {
                            "code": "85354-9",
                            "display": "Blood pressure panel with all children optional",
                            "system": "http://loinc.org"
                        }
                    ]
                },
                "effectiveDateTime": "2022-10-14T23:59:59.000Z",
                "issued": "2022-10-14T23:59:59.000Z",
                "component": [
                    {
                        "code": {
                            "coding": [
                                {
                                    "system": "http://loinc.org",
                                    "code": "8462-4",
                                    "display": "Diastolic blood pressure"
                                }
                            ]
                        },
                        "valueQuantity": {
                            "value": 88,
                            "unit": "mmHg",
                            "system": "http://unitsofmeasure.org",
                            "code": "mm[Hg]"
                        }
                    },
                    {
                        "code": {
                            "coding": [
                                {
                                    "system": "http://loinc.org",
                                    "code": "8480-6",
                                    "display": "Systolic blood pressure"
                                }
                            ]
                        },
                        "valueQuantity": {
                            "value": 145,
                            "unit": "mmHg",
                            "system": "http://unitsofmeasure.org",
                            "code": "mm[Hg]"
                        }
                    }
                ],
                "subject": {
                    "reference": "Patient/f40da2df-7505-315a-9acb-55513a02c37b"
                }
            },
            "request": {
                "method": "PUT",
                "url": "Observation/d03303d0-c821-3ffe-9b9b-1cab1e58b5b9"
            }
        },
        {
            "fullUrl": "urn:uuid:6afc4921-ac2b-399d-9b07-4a41bfc572d7",
            "resource": {
                "resourceType": "Observation",
                "meta": {
                    "profile": [
                        "http://hl7.org/fhir/us/core/StructureDefinition/us-core-observationresults"
                    ]
                },
                "id": "6afc4921-ac2b-399d-9b07-4a41bfc572d7",
                "identifier": [
                    {
                        "system": "urn:ietf:rfc:3986",
                        "value": "urn:uuid:1.3.6.1.4.1.22812.4.111.0.4.1.5.2"
                    }
                ],
                "category": [
                    {
                        "coding": [
                            {
                                "system": "http://terminology.hl7.org/CodeSystem/observation-category",
                                "code": "vital-signs"
                            }
                        ]
                    }
                ],
                "status": "final",
                "code": {
                    "coding": [
                        {
                            "code": "29463-7",
                            "display": "Body weight",
                            "system": "http://loinc.org"
                        }
                    ]
                },
                "effectiveDateTime": "2022-10-14T04:00:00.000Z",
                "issued": "2022-10-14T04:00:00.000Z",
                "valueQuantity": {
                    "value": 88,
                    "unit": "kg",
                    "system": "http://unitsofmeasure.org",
                    "code": "kg"
                },
                "subject": {
                    "reference": "Patient/f40da2df-7505-315a-9acb-55513a02c37b"
                }
            },
            "request": {
                "method": "PUT",
                "url": "Observation/6afc4921-ac2b-399d-9b07-4a41bfc572d7"
            }
        },
        {
            "fullUrl": "urn:uuid:5b1b7eb1-d105-33ca-bdb7-d857391d7264",
            "resource": {
                "resourceType": "Observation",
                "meta": {
                    "profile": [
                        "http://hl7.org/fhir/us/core/StructureDefinition/us-core-observationresults"
                    ]
                },
                "id": "5b1b7eb1-d105-33ca-bdb7-d857391d7264",
                "identifier": [
                    {
                        "system": "urn:ietf:rfc:3986",
                        "value": "urn:uuid:1.3.6.1.4.1.22812.4.111.0.4.1.5.3"
                    }
                ],
                "category": [
                    {
                        "coding": [
                            {
                                "system": "http://terminology.hl7.org/CodeSystem/observation-category",
                                "code": "vital-signs"
                            }
                        ]
                    }
                ],
                "status": "final",
                "code": {
                    "coding": [
                        {
                            "code": "8302-2",
                            "display": "Body height",
                            "system": "http://loinc.org"
                        }
                    ]
                },
                "effectiveDateTime": "2022-10-14T04:00:00.000Z",
                "issued": "2022-10-14T04:00:00.000Z",
                "valueQuantity": {
                    "value": 177,
                    "unit": "cm",
                    "system": "http://unitsofmeasure.org",
                    "code": "cm"
                },
                "subject": {
                    "reference": "Patient/f40da2df-7505-315a-9acb-55513a02c37b"
                }
            },
            "request": {
                "method": "PUT",
                "url": "Observation/5b1b7eb1-d105-33ca-bdb7-d857391d7264"
            }
        },
        {
            "fullUrl": "urn:uuid:efc450f1-bf82-3df2-91ab-52a0ab34168f",
            "resource": {
                "resourceType": "Procedure",
                "meta": {
                    "profile": [
                        "http://hl7.org/fhir/us/core/StructureDefinition/us-core-procedure"
                    ]
                },
                "id": "efc450f1-bf82-3df2-91ab-52a0ab34168f",
                "identifier": [
                    {
                        "system": "urn:ietf:rfc:3986",
                        "value": "urn:uuid:Procedure-4"
                    }
                ],
                "status": "completed",
                "code": {
                    "coding": [
                        {
                            "code": "56251003",
                            "display": "Nebulizer Therapy",
                            "system": "http://snomed.info/sct"
                        }
                    ]
                },
                "performedPeriod": {
                    "start": "2015-06-22T00:00:00.000Z"
                },
                "subject": {
                    "reference": "Patient/f40da2df-7505-315a-9acb-55513a02c37b"
                }
            },
            "request": {
                "method": "PUT",
                "url": "Procedure/efc450f1-bf82-3df2-91ab-52a0ab34168f"
            }
        },
        {
            "fullUrl": "urn:uuid:dc960e37-29ed-34c8-a651-c832b045ed95",
            "resource": {
                "resourceType": "Procedure",
                "meta": {
                    "profile": [
                        "http://hl7.org/fhir/us/core/StructureDefinition/us-core-procedure"
                    ]
                },
                "id": "dc960e37-29ed-34c8-a651-c832b045ed95",
                "identifier": [
                    {
                        "system": "urn:ietf:rfc:3986",
                        "value": "urn:uuid:Procedure-5"
                    }
                ],
                "status": "completed",
                "code": {
                    "coding": [
                        {
                            "code": "175135009",
                            "display": "Introduction of cardiac pacemaker system via vein",
                            "system": "http://snomed.info/sct"
                        }
                    ]
                },
                "performedPeriod": {
                    "start": "2011-10-05T00:00:00.000Z"
                },
                "subject": {
                    "reference": "Patient/f40da2df-7505-315a-9acb-55513a02c37b"
                }
            },
            "request": {
                "method": "PUT",
                "url": "Procedure/dc960e37-29ed-34c8-a651-c832b045ed95"
            }
        },
        {
            "fullUrl": "urn:uuid:6bc09b9a-2e8d-3cc5-b9ed-27bc815186c9",
            "resource": {
                "resourceType": "CarePlan",
                "id": "6bc09b9a-2e8d-3cc5-b9ed-27bc815186c9",
                "text": {
                    "status": "additional",
                    "div": "<div xmlns=\"http://www.w3.org/1999/xhtml\"><list>\n  <item>\n    Urinalysis macro (dipstick) panel | Date: 6/29/15\n    <ID>PlannedObservation2dab4f8583ce44848069b18556d1c183</ID>\n  </item>\n  <item>\n    i. Get an EKG done on 6/23/2015.ii. Get a Chest X-ray done on 6/23/2015 showing the Lower Respiratory TractStructure.iii. Take Clindamycin 300mg three times a day as needed if pain does not subside/iv. Schedule follow on visit with Neighborhood Physicians Practice on7/1/2015.\n    <ID>PlannedObservation7a8da4f2-b8e1-439f-a8dd-40091dd88452</ID>\n  </item>\n</list></div>"
                },
                "title": "Plan of Treatment",
                "category": [
                    {
                        "coding": [
                            {
                                "system": "http://hl7.org/fhir/us/core/CodeSystem/careplan-category",
                                "code": "assess-plan",
                                "display": "Assessment and Plan of Treatment"
                            }
                        ],
                        "text": "Assessment and Plan of Treatment"
                    }
                ],
                "status": "active",
                "intent": "plan",
                "subject": {
                    "reference": "Patient/f40da2df-7505-315a-9acb-55513a02c37b"
                }
            },
            "request": {
                "method": "PUT",
                "url": "CarePlan/6bc09b9a-2e8d-3cc5-b9ed-27bc815186c9"
            }
        },
        {
            "fullUrl": "urn:uuid:d4768082-0f69-339f-b38a-2e2edee9c4b2",
            "resource": {
                "resourceType": "Encounter",
                "id": "d4768082-0f69-339f-b38a-2e2edee9c4b2",
                "status": "finished",
                "class": {
                    "system": "http://terminology.hl7.org/CodeSystem/v3-ActCode",
                    "code": "AMB"
                },
                "type": [
                    {
                        "coding": [
                            {
                                "code": "29308-4",
                                "display": "Diagnosis",
                                "system": "http://loinc.org"
                            }
                        ]
                    }
                ],
                "reasonCode": [
                    {
                        "coding": [
                            {
                                "system": "http://snomed.info/sct",
                                "code": "55607006",
                                "display": "Problem"
                            }
                        ]
                    }
                ],
                "identifier": [
                    {
                        "system": "urn:ietf:rfc:3986",
                        "value": "urn:uuid:51fef801-f139-46ea-85d3-9365de5cdc25"
                    }
                ],
                "period": {
                    "start": "2019-10-16T04:00:00.000Z"
                },
                "location": [
                    {
                        "location": {
                            "reference": "Location/604a79b8-d538-3959-a3ef-5ac66ee03e08",
                            "display": "Iora Health"
                        }
                    }
                ],
                "participant": [
                    {
                        "individual": {
                            "reference": "Practitioner/17763d72-7526-32d1-a535-e60859682208"
                        },
                        "period": {
                            "start": "2019-10-16T04:00:00.000Z"
                        },
                        "type": [
                            {
                                "coding": [
                                    {
                                        "system": "http://terminology.hl7.org/CodeSystem/v3-ParticipationType",
                                        "code": "PPRF",
                                        "display": "primary performer"
                                    }
                                ]
                            }
                        ]
                    }
                ],
                "subject": {
                    "reference": "Patient/f40da2df-7505-315a-9acb-55513a02c37b"
                },
                "diagnosis": [
                    {
                        "condition": {
                            "reference": "Condition/401520af-bb61-3ed0-9e36-510a3b73aa5d"
                        }
                    }
                ]
            },
            "request": {
                "method": "PUT",
                "url": "Encounter/d4768082-0f69-339f-b38a-2e2edee9c4b2"
            }
        },
        {
            "fullUrl": "urn:uuid:401520af-bb61-3ed0-9e36-510a3b73aa5d",
            "resource": {
                "resourceType": "Condition",
                "id": "401520af-bb61-3ed0-9e36-510a3b73aa5d",
                "identifier": [
                    {
                        "system": "urn:ietf:rfc:3986",
                        "value": "urn:uuid:f32e2f9c-9fb1-466d-990b-3ef158237347"
                    }
                ],
                "verificationStatus": {
                    "coding": [
                        {
                            "system": "http://terminology.hl7.org/CodeSystem/condition-ver-status",
                            "code": "confirmed"
                        }
                    ]
                },
                "category": [
                    {
                        "coding": [
                            {
                                "system": "http://snomed.info/sct",
                                "code": "55607006",
                                "display": "Problem"
                            },
                            {
                                "system": "http://terminology.hl7.org/CodeSystem/condition-category",
                                "code": "problem-list-item"
                            }
                        ]
                    }
                ],
                "clinicalStatus": {
                    "coding": [
                        {
                            "system": "http://terminology.hl7.org/CodeSystem/condition-clinical",
                            "code": "inactive"
                        }
                    ]
                },
                "code": {
                    "coding": [
                        {
                            "code": "780.60",
                            "display": "Fever, unspecified",
                            "system": "urn:oid:2.16.840.1.113883.6.103"
                        }
                    ]
                },
                "onsetDateTime": "2015-06-22T04:00:00.000Z",
                "subject": {
                    "reference": "Patient/f40da2df-7505-315a-9acb-55513a02c37b"
                }
            },
            "request": {
                "method": "PUT",
                "url": "Condition/401520af-bb61-3ed0-9e36-510a3b73aa5d"
            }
        },
        {
            "fullUrl": "urn:uuid:8ce55388-9d68-3702-9064-be0267bb6e3d",
            "resource": {
                "resourceType": "Goal",
                "id": "8ce55388-9d68-3702-9064-be0267bb6e3d",
                "description": {
                    "coding": [
                        {
                            "system": "http://loinc.org",
                            "code": "61146-7"
                        }
                    ]
                },
                "lifecycleStatus": "active",
                "target": [
                    {
                        "dueDate": "2020-09-28"
                    }
                ],
                "subject": {
                    "reference": "Patient/f40da2df-7505-315a-9acb-55513a02c37b"
                }
            },
            "request": {
                "method": "PUT",
                "url": "Goal/8ce55388-9d68-3702-9064-be0267bb6e3d"
            }
        },
        {
            "fullUrl": "urn:uuid:ffcb2107-8a03-320c-90be-8da9981f8503",
            "resource": {
                "resourceType": "Immunization",
                "id": "ffcb2107-8a03-320c-90be-8da9981f8503",
                "identifier": [
                    {
                        "system": "urn:ietf:rfc:3986",
                        "value": "urn:uuid:26b32f05-b827-4d8f-90e1-051f29c89e79"
                    }
                ],
                "occurrenceDateTime": "2021-01-28T05:00:00.000Z",
                "vaccineCode": {
                    "coding": [
                        {
                            "code": "207",
                            "display": "SARS-COV-2 (COVID-19) vaccine, mRNA, spike protein, LNP, preservative free, 100 mcg/0.5mL dose",
                            "system": "urn:oid:2.16.840.1.113883.12.292"
                        }
                    ]
                },
                "primarySource": true,
                "status": "completed",
                "statusReason": {
                    "coding": [
                        {
                            "system": "http://terminology.hl7.org/CodeSystem/v3-ActReason",
                            "code": "MEDPREC",
                            "display": "medical precaution"
                        }
                    ]
                },
                "route": {
                    "coding": [
                        {
                            "code": "C28161",
                            "display": "Intramuscular injection",
                            "system": "urn:oid:2.16.840.1.113883.3.26.1.1"
                        }
                    ]
                },
                "patient": {
                    "reference": "Patient/f40da2df-7505-315a-9acb-55513a02c37b"
                }
            },
            "request": {
                "method": "PUT",
                "url": "Immunization/ffcb2107-8a03-320c-90be-8da9981f8503"
            }
        },
        {
            "fullUrl": "urn:uuid:fd3d484a-922b-3f2c-8ba4-50ea7b1c529b",
            "resource": {
                "resourceType": "Immunization",
                "id": "fd3d484a-922b-3f2c-8ba4-50ea7b1c529b",
                "identifier": [
                    {
                        "system": "urn:ietf:rfc:3986",
                        "value": "urn:uuid:8502a7f3-f3c9-4250-a0a2-8720c4cc42dc"
                    }
                ],
                "occurrenceDateTime": "2015-06-22T04:00:00.000Z",
                "vaccineCode": {
                    "coding": [
                        {
                            "code": "166",
                            "system": "urn:oid:2.16.840.1.113883.12.292"
                        }
                    ]
                },
                "primarySource": true,
                "status": "not-done",
                "statusReason": {
                    "coding": [
                        {
                            "system": "http://terminology.hl7.org/CodeSystem/v3-ActReason",
                            "code": "MEDPREC",
                            "display": "medical precaution"
                        }
                    ]
                },
                "patient": {
                    "reference": "Patient/f40da2df-7505-315a-9acb-55513a02c37b"
                }
            },
            "request": {
                "method": "PUT",
                "url": "Immunization/fd3d484a-922b-3f2c-8ba4-50ea7b1c529b"
            }
        },
        {
            "fullUrl": "urn:uuid:b5875916-964f-37c0-b0e6-2f95bf21b83e",
            "resource": {
                "resourceType": "Immunization",
                "id": "b5875916-964f-37c0-b0e6-2f95bf21b83e",
                "identifier": [
                    {
                        "system": "urn:ietf:rfc:3986",
                        "value": "urn:uuid:638f571d-78d9-4c68-ac33-f363abfc9d77"
                    }
                ],
                "occurrenceDateTime": "2012-01-04T06:00:00.000Z",
                "vaccineCode": {
                    "coding": [
                        {
                            "code": "106",
                            "display": "diphtheria, tetanus toxoids and acellular pertussis vaccine, 5 pertussis antigens",
                            "system": "urn:oid:2.16.840.1.113883.12.292"
                        }
                    ]
                },
                "primarySource": true,
                "status": "completed",
                "statusReason": {
                    "coding": [
                        {
                            "system": "http://terminology.hl7.org/CodeSystem/v3-ActReason",
                            "code": "MEDPREC",
                            "display": "medical precaution"
                        }
                    ]
                },
                "route": {
                    "coding": [
                        {
                            "code": "C28161",
                            "display": "Intramuscular injection",
                            "system": "urn:oid:2.16.840.1.113883.3.26.1.1"
                        }
                    ]
                },
                "patient": {
                    "reference": "Patient/f40da2df-7505-315a-9acb-55513a02c37b"
                }
            },
            "request": {
                "method": "PUT",
                "url": "Immunization/b5875916-964f-37c0-b0e6-2f95bf21b83e"
            }
        },
        {
            "fullUrl": "urn:uuid:296600cb-6150-34cf-b1d0-9eacc07cc506",
            "resource": {
                "resourceType": "Device",
                "id": "296600cb-6150-34cf-b1d0-9eacc07cc506",
                "identifier": [
                    {
                        "system": "urn:oid:1.2.840.114350.1.13.5552.1.7.2.737780",
                        "value": "2744"
                    }
                ],
                "udiCarrier": [
                    {
                        "deviceIdentifier": "00643169007222",
                        "carrierHRF": "(01)00643169007222(17)160128(21)BLC200461H"
                    }
                ],
                "distinctIdentifier": "00643169007222",
                "expirationDate": "160128",
                "serialNumber": "BLC200461H",
                "type": {
                    "coding": [
                        {
                            "code": "704708004",
                            "display": "Cardiac resynchronization therapy implantable pacemaker",
                            "system": "http://snomed.info/sct"
                        }
                    ]
                },
                "patient": {
                    "reference": "Patient/f40da2df-7505-315a-9acb-55513a02c37b"
                }
            },
            "request": {
                "method": "PUT",
                "url": "Device/296600cb-6150-34cf-b1d0-9eacc07cc506"
            }
        },
        {
            "fullUrl": "urn:uuid:b094e726-a50f-36b2-9bc7-a6e02151f14a",
            "resource": {
                "resourceType": "Device",
                "id": "b094e726-a50f-36b2-9bc7-a6e02151f14a",
                "identifier": [
                    {
                        "system": "urn:oid:1.2.840.114350.1.13.5552.1.7.2.737780",
                        "value": "2744"
                    }
                ],
                "udiCarrier": [
                    {
                        "deviceIdentifier": "08717648200274",
                        "carrierHRF": "(01)08717648200274(11)20130201(10)000000000000XYZ123(21)000025(17)20140201"
                    }
                ],
                "distinctIdentifier": "08717648200274",
                "manufactureDate": "2013-02-01",
                "expirationDate": "2014-02-01",
                "lotNumber": "000000000000XYZ123",
                "serialNumber": "000025",
                "type": {
                    "coding": [
                        {
                            "display": "XIENCE Alpine Everolimus Eluting",
                            "system": "http://snomed.info/sct"
                        }
                    ]
                },
                "patient": {
                    "reference": "Patient/f40da2df-7505-315a-9acb-55513a02c37b"
                }
            },
            "request": {
                "method": "PUT",
                "url": "Device/b094e726-a50f-36b2-9bc7-a6e02151f14a"
            }
        },
        {
            "fullUrl": "urn:uuid:b7703d81-19d1-3c26-a56f-a68992e9b53a",
            "resource": {
                "resourceType": "DocumentReference",
                "id": "b7703d81-19d1-3c26-a56f-a68992e9b53a",
                "type": {
                    "coding": [
                        {
                            "system": "http://loinc.org",
                            "code": "11506-3",
                            "display": "Progress Note"
                        }
                    ],
                    "text": "Progress Note"
                },
                "status": "superseded",
                "category": [
                    {
                        "coding": [
                            {
                                "system": "http://hl7.org/fhir/us/core/CodeSystem/us-core-documentreference-category",
                                "code": "clinical-note",
                                "display": "Clinical Note"
                            }
                        ]
                    }
                ],
                "date": "2019-10-16T04:00:00.000Z",
                "content": [
                    {
                        "attachment": {
                            "contentType": "text/plain",
                            "data": "H4sIAAAAAAAAEx3MQQ6AMAgF0av8E3gT165RUEhaaFqi8fY2bicvs0risVSkChqliScymF6QM8asSgzCKbf0BZuVgtZlHN12wYgqqebXr2u4ZXTwtCVana+xfIGJ5MliAAAA"
                        },
                        "format": {
                            "system": "http://ihe.net/fhir/ValueSet/IHE.FormatCode.codesystem",
                            "code": "urn:ihe:iti:xds:2017:mimeTypeSufficient",
                            "display": "mimeType Sufficient"
                        }
                    }
                ],
                "subject": {
                    "reference": "Patient/f40da2df-7505-315a-9acb-55513a02c37b"
                },
                "author": [
                    {
                        "reference": "Practitioner/2045d238-1aa4-3350-86e8-2788fd30efe6"
                    }
                ]
            },
            "request": {
                "method": "PUT",
                "url": "DocumentReference/b7703d81-19d1-3c26-a56f-a68992e9b53a"
            }
        },
        {
            "fullUrl": "urn:uuid:2045d238-1aa4-3350-86e8-2788fd30efe6",
            "resource": {
                "resourceType": "Practitioner",
                "meta": {
                    "profile": [
                        "http://hl7.org/fhir/us/core/StructureDefinition/us-core-practitioner"
                    ]
                },
                "id": "2045d238-1aa4-3350-86e8-2788fd30efe6",
                "identifier": [
                    {
                        "system": "http://hl7.org/fhir/sid/us-npi",
                        "value": "99999999"
                    }
                ],
                "name": [
                    {
                        "family": "Speroni",
                        "given": [
                            "Daniel"
                        ]
                    }
                ],
                "address": [
                    {
                        "line": [
                            "2472, Rocky  place"
                        ],
                        "city": "Beaverton",
                        "state": "OR",
                        "country": "US",
                        "postalCode": "97006"
                    }
                ],
                "telecom": [
                    {
                        "system": "phone",
                        "value": "555-555-1002",
                        "use": "work"
                    }
                ],
                "qualification": [
                    {
                        "code": {
                            "coding": [
                                {
                                    "code": "200000000X",
                                    "display": "Neighborhood Physicians Practice",
                                    "system": "http://nucc.org/provider-taxonomy"
                                }
                            ]
                        }
                    }
                ]
            },
            "request": {
                "method": "PUT",
                "url": "Practitioner/2045d238-1aa4-3350-86e8-2788fd30efe6"
            }
        },
        {
            "fullUrl": "urn:uuid:8bad6075-9345-3ebd-99f7-b3e367399695",
            "resource": {
                "resourceType": "DocumentReference",
                "id": "8bad6075-9345-3ebd-99f7-b3e367399695",
                "type": {
                    "coding": [
                        {
                            "code": "34133-9",
                            "display": "Summarization of Episode Note",
                            "system": "http://loinc.org"
                        }
                    ]
                },
                "date": "2022-10-21T18:48:06.198Z",
                "status": "current",
                "content": [
                    {
                        "attachment": {
                            "contentType": "text/plain",
                            "data": "",
                            "hash": "kJBYe/r084KT72t5RSeowSPshpw="
                        }
                    }
                ]
            },
            "request": {
                "method": "PUT",
                "url": "DocumentReference/8bad6075-9345-3ebd-99f7-b3e367399695"
            }
        }
    ]
}