{
    "resourceType": "Bundle",
    "type": "batch",
    "entry": [
        {
            "fullUrl": "urn:uuid:f2c8f08f-f2fb-3719-8b76-89dad123f2a1",
            "resource": {
                "resourceType": "Composition",
                "id": "f2c8f08f-f2fb-3719-8b76-89dad123f2a1",
                "identifier": {
                    "use": "official",
                    "value": "db734647-fc99-424c-a864-7e3cda82e703"
                },
                "status": "final",
                "type": {
                    "coding": [
                        {
                            "code": "52521-2",
                            "display": "Overall Plan of Care/Advance Care Directives",
                            "system": "http://loinc.org"
                        }
                    ]
                },
                "date": "2013-08-20T19:20:00.000Z",
                "title": "Good Health Hospital Care Plan",
                "confidentiality": "N",
                "attester": [
                    {
                        "mode": "legal",
                        "time": "2013-07-30",
                        "party": {
                            "reference": "Practitioner/4533ef76-e935-3802-8cb7-6a076afafc08"
                        }
                    }
                ],
                "event": [
                    {
                        "period": {
                            "start": "2013-07-20"
                        }
                    }
                ],
                "section": [
                    {
                        "title": "Health Concerns Section",
                        "text": {
                            "status": "generated",
                            "div": "<div xmlns=\"http://www.w3.org/1999/xhtml\">Health Concerns Section</div>"
                        },
                        "code": {
                            "coding": [
                                {
                                    "code": "75310-3",
                                    "display": "Health Concerns Document",
                                    "system": "http://loinc.org"
                                }
                            ]
                        },
                        "mode": "snapshot"
                    },
                    {
                        "title": "Goals Section",
                        "text": {
                            "status": "generated",
                            "div": "<div xmlns=\"http://www.w3.org/1999/xhtml\">Goals Section</div>"
                        },
                        "code": {
                            "coding": [
                                {
                                    "code": "61146-7",
                                    "display": "Goals",
                                    "system": "http://loinc.org"
                                }
                            ]
                        },
                        "mode": "snapshot"
                    },
                    {
                        "title": "Interventions Section",
                        "text": {
                            "status": "generated",
                            "div": "<div xmlns=\"http://www.w3.org/1999/xhtml\">Interventions Section</div>"
                        },
                        "code": {
                            "coding": [
                                {
                                    "code": "62387-6",
                                    "display": "Interventions Provided",
                                    "system": "http://loinc.org"
                                }
                            ]
                        },
                        "mode": "snapshot"
                    },
                    {
                        "title": "Health Status Evaluations/Outcomes Section",
                        "text": {
                            "status": "generated",
                            "div": "<div xmlns=\"http://www.w3.org/1999/xhtml\">Health Status Evaluations/Outcomes Section</div>"
                        },
                        "code": {
                            "coding": [
                                {
                                    "code": "11383-7",
                                    "display": "Patient Problem Outcome",
                                    "system": "http://loinc.org"
                                }
                            ]
                        },
                        "mode": "snapshot"
                    }
                ],
                "subject": {
                    "reference": "Patient/2745d583-e3d1-3f88-8b21-7b59adb60779"
                },
                "encounter": {
                    "reference": "Encounter/b4b96f98-4b01-3f51-a8d3-68ff93681c5f"
                },
                "custodian": {
                    "reference": "Organization/b592a2a0-74bc-37af-896b-ff0fbf6aefb6"
                },
                "author": [
                    {
                        "reference": "Practitioner/4533ef76-e935-3802-8cb7-6a076afafc08"
                    }
                ]
            },
            "request": {
                "method": "PUT",
                "url": "Composition/f2c8f08f-f2fb-3719-8b76-89dad123f2a1"
            }
        },
        {
            "fullUrl": "urn:uuid:4533ef76-e935-3802-8cb7-6a076afafc08",
            "resource": {
                "resourceType": "Practitioner",
                "meta": {
                    "profile": [
                        "http://hl7.org/fhir/us/core/StructureDefinition/us-core-practitioner"
                    ]
                },
                "id": "4533ef76-e935-3802-8cb7-6a076afafc08",
                "identifier": [
                    {
                        "system": "urn:ietf:rfc:3986",
                        "value": "urn:uuid:20cf14fb-b65c-4c8c-a54d-b0cca834c18c"
                    }
                ],
                "name": [
                    {
                        "family": "Nightingale",
                        "given": [
                            "Nurse"
                        ],
                        "suffix": [
                            "RN"
                        ]
                    }
                ],
                "address": [
                    {
                        "line": [
                            "1004 Healthcare Drive"
                        ],
                        "city": "Portland",
                        "state": "OR",
                        "country": "US",
                        "postalCode": "99123"
                    }
                ],
                "telecom": [
                    {
                        "system": "phone",
                        "value": "+1(555)555-1004",
                        "use": "work"
                    }
                ],
                "qualification": [
                    {
                        "code": {
                            "coding": [
                                {
                                    "code": "163W00000X",
                                    "display": "Registered nurse",
                                    "system": "http://nucc.org/provider-taxonomy"
                                }
                            ]
                        }
                    }
                ]
            },
            "request": {
                "method": "PUT",
                "url": "Practitioner/4533ef76-e935-3802-8cb7-6a076afafc08"
            }
        },
        {
            "fullUrl": "urn:uuid:b4b96f98-4b01-3f51-a8d3-68ff93681c5f",
            "resource": {
                "resourceType": "Encounter",
                "id": "b4b96f98-4b01-3f51-a8d3-68ff93681c5f",
                "status": "unknown",
                "class": {
                    "code": "IMP",
                    "display": "Inpatient",
                    "system": "urn:oid:2.16.840.1.113883.5.4"
                },
                "type": [
                    {
                        "coding": [
                            {
                                "code": "IMP",
                                "display": "Inpatient",
                                "system": "urn:oid:2.16.840.1.113883.5.4"
                            }
                        ]
                    }
                ],
                "identifier": [
                    {
                        "system": "urn:oid:2.16.840.1.113883.19",
                        "value": "9937012"
                    }
                ],
                "period": {
                    "start": "2013-06-15"
                }
            },
            "request": {
                "method": "PUT",
                "url": "Encounter/b4b96f98-4b01-3f51-a8d3-68ff93681c5f"
            }
        },
        {
            "fullUrl": "urn:uuid:b592a2a0-74bc-37af-896b-ff0fbf6aefb6",
            "resource": {
                "resourceType": "Organization",
                "id": "b592a2a0-74bc-37af-896b-ff0fbf6aefb6",
                "identifier": [
                    {
                        "system": "http://hl7.org/fhir/sid/us-npi",
                        "value": "321CX"
                    }
                ],
                "name": "Good Health HIE",
                "address": [
                    {
                        "use": "work",
                        "line": [
                            "1009 Healthcare Drive"
                        ],
                        "city": "Portland",
                        "state": "OR",
                        "country": "US",
                        "postalCode": "99123"
                    }
                ],
                "telecom": [
                    {
                        "system": "phone",
                        "value": "+1(555)555-1009",
                        "use": "work"
                    }
                ]
            },
            "request": {
                "method": "PUT",
                "url": "Organization/b592a2a0-74bc-37af-896b-ff0fbf6aefb6"
            }
        },
        {
            "fullUrl": "urn:uuid:2745d583-e3d1-3f88-8b21-7b59adb60779",
            "resource": {
                "resourceType": "Patient",
                "meta": {
                    "profile": [
                        "http://hl7.org/fhir/us/core/StructureDefinition/us-core-patient"
                    ]
                },
                "id": "2745d583-e3d1-3f88-8b21-7b59adb60779",
                "identifier": [
                    {
                        "system": "http://hl7.org/fhir/sid/us-ssn",
                        "value": "444222222"
                    }
                ],
                "name": [
                    {
                        "use": "usual",
                        "family": "Betterhalf",
                        "given": [
                            "Eve"
                        ]
                    },
                    {
                        "family": "Everywoman",
                        "given": [
                            "Eve"
                        ]
                    }
                ],
                "birthDate": "1975-05-01",
                "gender": "female",
                "extension": [
                    {
                        "url": "http://hl7.org/fhir/us/core/StructureDefinition/us-core-race",
                        "extension": [
                            {
                                "url": "ombCategory",
                                "valueCoding": {
                                    "code": "2106-3",
                                    "display": "White",
                                    "system": "urn:oid:2.16.840.1.113883.6.238"
                                }
                            },
                            {
                                "url": "ombCategory",
                                "valueCoding": {
                                    "code": "2076-8",
                                    "display": "Hawaiian or Other Pacific Islander",
                                    "system": "urn:oid:2.16.840.1.113883.6.238"
                                }
                            },
                            {
                                "url": "text",
                                "valueString": "Mixed"
                            }
                        ]
                    },
                    {
                        "url": "http://hl7.org/fhir/us/core/StructureDefinition/us-core-ethnicity",
                        "extension": [
                            {
                                "url": "ombCategory",
                                "valueCoding": {
                                    "code": "2186-5",
                                    "display": "Not Hispanic or Latino",
                                    "system": "urn:oid:2.16.840.1.113883.6.238"
                                }
                            },
                            {
                                "url": "text",
                                "valueString": "Not Hispanic or Latino"
                            }
                        ]
                    }
                ],
                "address": [
                    {
                        "use": "home",
                        "line": [
                            "2222 Home Street"
                        ],
                        "city": "Beaverton",
                        "state": "OR",
                        "country": "US",
                        "postalCode": "97867"
                    }
                ],
                "telecom": [
                    {
                        "system": "phone",
                        "value": "+1(555)555-2003",
                        "use": "home"
                    }
                ],
                "communication": [
                    {
                        "language": {
                            "coding": [
                                {
                                    "system": "urn:ietf:bcp:47",
                                    "code": "eng"
                                }
                            ]
                        },
                        "preferred": true
                    }
                ]
            },
            "request": {
                "method": "PUT",
                "url": "Patient/2745d583-e3d1-3f88-8b21-7b59adb60779"
            }
        },
        {
            "fullUrl": "urn:uuid:5fab84f6-27ae-3100-a4be-3785d3a7a76b",
            "resource": {
                "resourceType": "RelatedPerson",
                "id": "5fab84f6-27ae-3100-a4be-3785d3a7a76b",
                "relationship": [
                    {
                        "coding": [
                            {
                                "code": "POWATT",
                                "display": "Power of Attorney",
                                "system": "urn:oid:2.16.840.1.113883.1.11.19830"
                            }
                        ]
                    }
                ],
                "name": [
                    {
                        "family": "Betterhalf",
                        "given": [
                            "Boris",
                            "Bo"
                        ]
                    }
                ],
                "telecom": [
                    {
                        "system": "phone",
                        "value": "+1(555)555-2008",
                        "use": "mobile"
                    }
                ],
                "address": [
                    {
                        "use": "home",
                        "line": [
                            "2222 Home Street"
                        ],
                        "city": "Beaverton",
                        "state": "OR",
                        "country": "US",
                        "postalCode": "97867"
                    }
                ],
                "patient": {
                    "reference": "Patient/2745d583-e3d1-3f88-8b21-7b59adb60779"
                }
            },
            "request": {
                "method": "PUT",
                "url": "RelatedPerson/5fab84f6-27ae-3100-a4be-3785d3a7a76b"
            }
        },
        {
            "fullUrl": "urn:uuid:7d3cd6aa-5992-35c1-8e17-98157d10b344",
            "resource": {
                "resourceType": "DocumentReference",
                "id": "7d3cd6aa-5992-35c1-8e17-98157d10b344",
                "type": {
                    "coding": [
                        {
                            "code": "52521-2",
                            "display": "Overall Plan of Care/Advance Care Directives",
                            "system": "http://loinc.org"
                        }
                    ]
                },
                "date": "2020-09-30T03:00:40.955Z",
                "status": "current",
                "content": [
                    {
                        "attachment": {
                            "contentType": "text/plain",
                            "data": "",
                            "hash": "oK7XluPI3jbk5U6pO/R3vp3Ur+A="
                        }
                    }
                ]
            },
            "request": {
                "method": "PUT",
                "url": "DocumentReference/7d3cd6aa-5992-35c1-8e17-98157d10b344"
            }
        }
    ]
}