{
    "resourceType": "Bundle",
    "type": "batch",
    "entry": [
        {
            "fullUrl": "urn:uuid:2b0da960-28b5-3c42-93e8-a4783087c1ff",
            "resource": {
                "resourceType": "Composition",
                "id": "2b0da960-28b5-3c42-93e8-a4783087c1ff",
                "identifier": {
                    "use": "official",
                    "value": "2.16.840.1.113883.19.5.99999.1"
                },
                "status": "final",
                "type": {
                    "coding": [
                        {
                            "code": "11490-0",
                            "display": "Discharge summarization note",
                            "system": "http://loinc.org"
                        }
                    ]
                },
                "date": "2012-09-16T23:18:00.000Z",
                "title": "Community Health and Hospitals: Discharge Summary (UD)",
                "confidentiality": "N",
                "attester": [
                    {
                        "mode": "legal",
                        "time": "2009-02-27T18:00:00.000Z",
                        "party": {
                            "reference": "Practitioner/6a84aefd-6f50-3666-8ccb-bdad442a4c6a"
                        }
                    }
                ],
                "subject": {
                    "reference": "Patient/3f9761a0-8f2f-3445-b151-53c64cb7b991"
                },
                "custodian": {
                    "reference": "Organization/ce67676d-faa6-3ac3-8d71-f0a778b99cd0"
                },
                "author": [
                    {
                        "reference": "Practitioner/5942c17c-61a6-351b-a314-39fb9fc72561"
                    }
                ]
            },
            "request": {
                "method": "PUT",
                "url": "Composition/2b0da960-28b5-3c42-93e8-a4783087c1ff"
            }
        },
        {
            "fullUrl": "urn:uuid:6a84aefd-6f50-3666-8ccb-bdad442a4c6a",
            "resource": {
                "resourceType": "Practitioner",
                "meta": {
                    "profile": [
                        "http://hl7.org/fhir/us/core/StructureDefinition/us-core-practitioner"
                    ]
                },
                "id": "6a84aefd-6f50-3666-8ccb-bdad442a4c6a"
            },
            "request": {
                "method": "PUT",
                "url": "Practitioner/6a84aefd-6f50-3666-8ccb-bdad442a4c6a"
            }
        },
        {
            "fullUrl": "urn:uuid:ce67676d-faa6-3ac3-8d71-f0a778b99cd0",
            "resource": {
                "resourceType": "Organization",
                "id": "ce67676d-faa6-3ac3-8d71-f0a778b99cd0",
                "identifier": [
                    {
                        "system": "http://hl7.org/fhir/sid/us-npi",
                        "value": "99999999"
                    }
                ],
                "name": "Community Health and Hospitals",
                "address": [
                    {
                        "use": "work",
                        "line": [
                            "1002 Healthcare Drive"
                        ],
                        "city": "Portland",
                        "state": "OR",
                        "country": "US",
                        "postalCode": "99123"
                    }
                ],
                "telecom": [
                    {
                        "system": "phone",
                        "value": "555-555-1002",
                        "use": "work"
                    }
                ]
            },
            "request": {
                "method": "PUT",
                "url": "Organization/ce67676d-faa6-3ac3-8d71-f0a778b99cd0"
            }
        },
        {
            "fullUrl": "urn:uuid:5942c17c-61a6-351b-a314-39fb9fc72561",
            "resource": {
                "resourceType": "Practitioner",
                "meta": {
                    "profile": [
                        "http://hl7.org/fhir/us/core/StructureDefinition/us-core-practitioner"
                    ]
                },
                "id": "5942c17c-61a6-351b-a314-39fb9fc72561",
                "identifier": [
                    {
                        "system": "http://hl7.org/fhir/sid/us-npi",
                        "value": "99999999"
                    }
                ],
                "name": [
                    {
                        "family": "Seven",
                        "given": [
                            "Henry"
                        ]
                    }
                ],
                "address": [
                    {
                        "line": [
                            "1002 Healthcare Drive"
                        ],
                        "city": "Portland",
                        "state": "OR",
                        "country": "US",
                        "postalCode": "99123"
                    }
                ],
                "telecom": [
                    {
                        "system": "phone",
                        "value": "555-555-1002",
                        "use": "work"
                    }
                ],
                "qualification": [
                    {
                        "code": {
                            "coding": [
                                {
                                    "code": "200000000X",
                                    "display": "Allopathic &amp; Osteopathic Physicians",
                                    "system": "http://nucc.org/provider-taxonomy"
                                }
                            ]
                        }
                    }
                ]
            },
            "request": {
                "method": "PUT",
                "url": "Practitioner/5942c17c-61a6-351b-a314-39fb9fc72561"
            }
        },
        {
            "fullUrl": "urn:uuid:3f9761a0-8f2f-3445-b151-53c64cb7b991",
            "resource": {
                "resourceType": "Patient",
                "meta": {
                    "profile": [
                        "http://hl7.org/fhir/us/core/StructureDefinition/us-core-patient"
                    ]
                },
                "id": "3f9761a0-8f2f-3445-b151-53c64cb7b991",
                "identifier": [
                    {
                        "system": "http://hl7.org/fhir/sid/us-ssn",
                        "value": "111-00-2330"
                    }
                ],
                "name": [
                    {
                        "use": "usual",
                        "family": "Levin",
                        "given": [
                            "Henry",
                            "L"
                        ]
                    }
                ],
                "birthDate": "1953-03-02",
                "gender": "male",
                "extension": [
                    {
                        "url": "http://hl7.org/fhir/us/core/StructureDefinition/us-core-race",
                        "extension": [
                            {
                                "url": "detailed",
                                "valueCoding": {
                                    "code": "1966-1",
                                    "display": "Aleut",
                                    "system": "urn:oid:2.16.840.1.113883.6.238"
                                }
                            },
                            {
                                "url": "text",
                                "valueString": "Aleut"
                            }
                        ]
                    },
                    {
                        "url": "http://hl7.org/fhir/us/core/StructureDefinition/us-core-ethnicity",
                        "extension": [
                            {
                                "url": "ombCategory",
                                "valueCoding": {
                                    "code": "2186-5",
                                    "display": "Not Hispanic or Latino",
                                    "system": "urn:oid:2.16.840.1.113883.6.238"
                                }
                            },
                            {
                                "url": "text",
                                "valueString": "Not Hispanic or Latino"
                            }
                        ]
                    }
                ],
                "address": [
                    {
                        "use": "home",
                        "line": [
                            "1357 Amber Drive"
                        ],
                        "city": "Beaverton",
                        "state": "OR",
                        "country": "US",
                        "postalCode": "97867"
                    }
                ],
                "telecom": [
                    {
                        "system": "phone",
                        "value": "(816)276-6909",
                        "use": "home"
                    }
                ],
                "communication": [
                    {
                        "language": {
                            "coding": [
                                {
                                    "system": "urn:ietf:bcp:47",
                                    "code": "en",
                                    "display": "English"
                                }
                            ]
                        },
                        "preferred": true
                    }
                ]
            },
            "request": {
                "method": "PUT",
                "url": "Patient/3f9761a0-8f2f-3445-b151-53c64cb7b991"
            }
        },
        {
            "fullUrl": "urn:uuid:404aabde-037c-3ea6-85cb-d4ceefa1d2c8",
            "resource": {
                "resourceType": "RelatedPerson",
                "id": "404aabde-037c-3ea6-85cb-d4ceefa1d2c8",
                "relationship": [
                    {
                        "coding": [
                            {
                                "code": "GRPRN",
                                "display": "Grandparent",
                                "system": "urn:oid:2.16.840.1.113883.5.111"
                            }
                        ]
                    }
                ],
                "name": [
                    {
                        "family": "Jones",
                        "given": [
                            "Ralph"
                        ]
                    }
                ],
                "telecom": [
                    {
                        "system": "phone",
                        "value": "(816)276-6909",
                        "use": "home"
                    }
                ],
                "address": [
                    {
                        "use": "home",
                        "line": [
                            "1357 Amber Drive"
                        ],
                        "city": "Beaverton",
                        "state": "OR",
                        "country": "US",
                        "postalCode": "97867"
                    }
                ],
                "patient": {
                    "reference": "Patient/3f9761a0-8f2f-3445-b151-53c64cb7b991"
                }
            },
            "request": {
                "method": "PUT",
                "url": "RelatedPerson/404aabde-037c-3ea6-85cb-d4ceefa1d2c8"
            }
        },
        {
            "fullUrl": "urn:uuid:51fa590f-89e1-3d60-b64a-c4a03c5ebaf9",
            "resource": {
                "resourceType": "DocumentReference",
                "id": "51fa590f-89e1-3d60-b64a-c4a03c5ebaf9",
                "type": {
                    "coding": [
                        {
                            "code": "11490-0",
                            "display": "Discharge summarization note",
                            "system": "http://loinc.org"
                        }
                    ]
                },
                "date": "2020-09-30T03:00:41.805Z",
                "status": "current",
                "content": [
                    {
                        "attachment": {
                            "contentType": "text/plain",
                            "data": "",
                            "hash": "7rHw2/3Xi+s56YwyZ3inBdIWu5c="
                        }
                    }
                ]
            },
            "request": {
                "method": "PUT",
                "url": "DocumentReference/51fa590f-89e1-3d60-b64a-c4a03c5ebaf9"
            }
        }
    ]
}