{
    "resourceType": "Bundle",
    "type": "batch",
    "entry": [
        {
            "fullUrl": "urn:uuid:7e841634-010c-3ffe-a19d-cced1984043e",
            "resource": {
                "resourceType": "Composition",
                "id": "7e841634-010c-3ffe-a19d-cced1984043e",
                "identifier": {
                    "use": "official",
                    "value": "2.16.840.1.113883.19.5.99999.1"
                },
                "status": "final",
                "type": {
                    "coding": [
                        {
                            "code": "34133-9",
                            "display": "Summarization of Episode Note",
                            "system": "http://loinc.org"
                        }
                    ]
                },
                "date": "2013-08-15T18:30:00.000Z",
                "title": "Patient Chart Summary",
                "confidentiality": "N",
                "attester": [
                    {
                        "mode": "legal",
                        "time": "2013-08-16T06:36:15.000Z",
                        "party": {
                            "reference": "Practitioner/4939e179-a309-30ef-9889-e04751868181"
                        }
                    }
                ],
                "event": [
                    {
                        "period": {
                            "start": "1975-05-01"
                        }
                    }
                ],
                "section": [
                    {
                        "title": "ADVANCE DIRECTIVES",
                        "text": {
                            "status": "generated",
                            "div": "<div xmlns=\"http://www.w3.org/1999/xhtml\">ADVANCE DIRECTIVES</div>"
                        },
                        "code": {
                            "coding": [
                                {
                                    "code": "42348-3",
                                    "system": "http://loinc.org"
                                }
                            ]
                        },
                        "mode": "snapshot",
                        "entry": [
                            {
                                "reference": "Consent/af653425-e615-31c4-a914-9c8c432a4efe"
                            }
                        ]
                    },
                    {
                        "title": "ALLERGIES AND ADVERSE REACTIONS",
                        "text": {
                            "status": "generated",
                            "div": "<div xmlns=\"http://www.w3.org/1999/xhtml\">ALLERGIES AND ADVERSE REACTIONS</div>"
                        },
                        "code": {
                            "coding": [
                                {
                                    "code": "48765-2",
                                    "system": "http://loinc.org"
                                }
                            ]
                        },
                        "mode": "snapshot",
                        "entry": [
                            {
                                "reference": "AllergyIntolerance/e52c39c1-d456-3630-ba14-b0da66b25bf0",
                                "display": "Penicillin"
                            },
                            {
                                "reference": "AllergyIntolerance/d2400ede-533d-3265-901b-dd0ff306939c",
                                "display": "Codeine"
                            }
                        ]
                    },
                    {
                        "title": "ENCOUNTERS",
                        "text": {
                            "status": "generated",
                            "div": "<div xmlns=\"http://www.w3.org/1999/xhtml\">ENCOUNTERS</div>"
                        },
                        "code": {
                            "coding": [
                                {
                                    "code": "46240-8",
                                    "display": "History of encounters",
                                    "system": "http://loinc.org"
                                }
                            ]
                        },
                        "mode": "snapshot",
                        "entry": [
                            {
                                "reference": "Encounter/aa44c032-eb27-31aa-9d37-936d2522ad81"
                            }
                        ]
                    },
                    {
                        "title": "FAMILY HISTORY",
                        "text": {
                            "status": "generated",
                            "div": "<div xmlns=\"http://www.w3.org/1999/xhtml\">FAMILY HISTORY</div>"
                        },
                        "code": {
                            "coding": [
                                {
                                    "code": "10157-6",
                                    "system": "http://loinc.org"
                                }
                            ]
                        },
                        "mode": "snapshot",
                        "entry": [
                            {
                                "reference": "FamilyMemberHistory/bac122fb-a2e4-3699-a75c-b1cf942e2bb3"
                            }
                        ]
                    },
                    {
                        "title": "FUNCTIONAL STATUS",
                        "text": {
                            "status": "generated",
                            "div": "<div xmlns=\"http://www.w3.org/1999/xhtml\">FUNCTIONAL STATUS</div>"
                        },
                        "code": {
                            "coding": [
                                {
                                    "code": "47420-5",
                                    "display": "Functional Status",
                                    "system": "http://loinc.org"
                                }
                            ]
                        },
                        "mode": "snapshot",
                        "entry": [
                            {
                                "reference": "Condition/47df9d2d-6e4b-3adc-846d-4fa5abeabcb4"
                            }
                        ]
                    },
                    {
                        "title": "IMMUNIZATIONS",
                        "text": {
                            "status": "generated",
                            "div": "<div xmlns=\"http://www.w3.org/1999/xhtml\">IMMUNIZATIONS</div>"
                        },
                        "code": {
                            "coding": [
                                {
                                    "code": "11369-6",
                                    "display": "History of immunizations",
                                    "system": "http://loinc.org"
                                }
                            ]
                        },
                        "mode": "snapshot",
                        "entry": [
                            {
                                "reference": "Immunization/bf65af75-2683-3eb3-a8bb-a78815950ffc"
                            },
                            {
                                "reference": "Immunization/d1555aac-86f2-3ee4-86dd-e01d46575ea2"
                            },
                            {
                                "reference": "Immunization/9ebc7932-fa90-375b-b789-1d6948854b72"
                            },
                            {
                                "reference": "Immunization/9b06a2ae-c7e6-3275-bb2c-a2c6156eaa22"
                            },
                            {
                                "reference": "Immunization/6eaace01-46d4-375e-9f0c-719e742944ed"
                            }
                        ]
                    },
                    {
                        "title": "MEDICAL EQUIPMENT",
                        "text": {
                            "status": "generated",
                            "div": "<div xmlns=\"http://www.w3.org/1999/xhtml\">MEDICAL EQUIPMENT</div>"
                        },
                        "code": {
                            "coding": [
                                {
                                    "code": "46264-8",
                                    "system": "http://loinc.org"
                                }
                            ]
                        },
                        "mode": "snapshot",
                        "entry": [
                            {
                                "reference": "Device/aa9f4554-0ac1-3483-84c5-95e0269d9c5c"
                            },
                            {
                                "reference": "Device/6b48aca3-dc8d-3a6b-a7e0-c52fcdbaf2f4"
                            },
                            {
                                "reference": "Device/4ca8c82c-0e18-3337-a96a-cc359a918cfc"
                            }
                        ]
                    },
                    {
                        "title": "MEDICATIONS",
                        "text": {
                            "status": "generated",
                            "div": "<div xmlns=\"http://www.w3.org/1999/xhtml\">MEDICATIONS</div>"
                        },
                        "code": {
                            "coding": [
                                {
                                    "code": "10160-0",
                                    "display": "HISTORY OF MEDICATION USE",
                                    "system": "http://loinc.org"
                                }
                            ]
                        },
                        "mode": "snapshot",
                        "entry": [
                            {
                                "reference": "MedicationStatement/4659be1d-f98f-3a03-8dab-ac18f10d0f7d"
                            },
                            {
                                "reference": "MedicationStatement/879092b8-42be-3912-9762-3e407cdab988"
                            }
                        ]
                    },
                    {
                        "title": "INSURANCE PROVIDERS",
                        "text": {
                            "status": "generated",
                            "div": "<div xmlns=\"http://www.w3.org/1999/xhtml\">INSURANCE PROVIDERS</div>"
                        },
                        "code": {
                            "coding": [
                                {
                                    "code": "48768-6",
                                    "display": "Payer",
                                    "system": "http://loinc.org"
                                }
                            ]
                        },
                        "mode": "snapshot",
                        "entry": [
                            {
                                "reference": "Coverage/210f9933-0288-374b-81ed-ed90aa7e3f43"
                            }
                        ]
                    },
                    {
                        "title": "TREATMENT PLAN",
                        "text": {
                            "status": "generated",
                            "div": "<div xmlns=\"http://www.w3.org/1999/xhtml\">TREATMENT PLAN</div>"
                        },
                        "code": {
                            "coding": [
                                {
                                    "code": "18776-5",
                                    "display": "Treatment plan",
                                    "system": "http://loinc.org"
                                }
                            ]
                        },
                        "mode": "snapshot",
                        "entry": [
                            {
                                "reference": "CarePlan/46741900-3cd7-3f76-a81d-8fa39ef5256b"
                            }
                        ]
                    },
                    {
                        "title": "PROBLEMS",
                        "text": {
                            "status": "generated",
                            "div": "<div xmlns=\"http://www.w3.org/1999/xhtml\">PROBLEMS</div>"
                        },
                        "code": {
                            "coding": [
                                {
                                    "code": "11450-4",
                                    "display": "PROBLEM LIST",
                                    "system": "http://loinc.org"
                                }
                            ]
                        },
                        "mode": "snapshot",
                        "entry": [
                            {
                                "reference": "Condition/84129372-e6c4-397b-bedf-819c0709f314"
                            },
                            {
                                "reference": "Condition/b8e1b370-7b09-3e08-aa8d-583eb586859f"
                            },
                            {
                                "reference": "Condition/8e5960d5-b40c-3a7b-964b-a8c1f4502b80"
                            }
                        ]
                    },
                    {
                        "title": "PROCEDURES",
                        "text": {
                            "status": "generated",
                            "div": "<div xmlns=\"http://www.w3.org/1999/xhtml\">PROCEDURES</div>"
                        },
                        "code": {
                            "coding": [
                                {
                                    "code": "47519-4",
                                    "display": "HISTORY OF PROCEDURES",
                                    "system": "http://loinc.org"
                                }
                            ]
                        },
                        "mode": "snapshot",
                        "entry": [
                            {
                                "reference": "Procedure/8a25de45-237d-357b-9360-5ae4838523c9"
                            },
                            {
                                "reference": "Procedure/89201103-35a3-3d38-8891-02641b1f9dd2"
                            },
                            {
                                "reference": "Procedure/0c22d4f1-ba72-3769-9604-f157df4f1728"
                            }
                        ]
                    },
                    {
                        "title": "RESULTS",
                        "text": {
                            "status": "generated",
                            "div": "<div xmlns=\"http://www.w3.org/1999/xhtml\">RESULTS</div>"
                        },
                        "code": {
                            "coding": [
                                {
                                    "code": "30954-2",
                                    "display": "RESULTS",
                                    "system": "http://loinc.org"
                                }
                            ]
                        },
                        "mode": "snapshot",
                        "entry": [
                            {
                                "reference": "DiagnosticReport/e40c0ae2-6558-365d-8502-7a1847b4439f"
                            },
                            {
                                "reference": "DiagnosticReport/b99c0b4c-590e-3629-b244-724411a19542"
                            }
                        ]
                    },
                    {
                        "title": "SOCIAL HISTORY",
                        "text": {
                            "status": "generated",
                            "div": "<div xmlns=\"http://www.w3.org/1999/xhtml\">SOCIAL HISTORY</div>"
                        },
                        "code": {
                            "coding": [
                                {
                                    "code": "29762-2",
                                    "display": "Social History",
                                    "system": "http://loinc.org"
                                }
                            ]
                        },
                        "mode": "snapshot",
                        "entry": [
                            {
                                "reference": "Observation/51816882-7331-33a4-b6d6-5523e1415428",
                                "display": "Tobacco smoking status NHIS"
                            },
                            {
                                "reference": "Observation/f07dae58-ec5d-3dc5-a134-a42d3658c237",
                                "display": "History of tobacco use"
                            },
                            {
                                "reference": "Observation/1e03e151-3ab2-367b-9ab5-43335c9c2728",
                                "display": "Alcoholic drinks per day"
                            }
                        ]
                    },
                    {
                        "title": "VITAL SIGNS",
                        "text": {
                            "status": "generated",
                            "div": "<div xmlns=\"http://www.w3.org/1999/xhtml\">VITAL SIGNS</div>"
                        },
                        "code": {
                            "coding": [
                                {
                                    "code": "8716-3",
                                    "display": "VITAL SIGNS",
                                    "system": "http://loinc.org"
                                }
                            ]
                        },
                        "mode": "snapshot",
                        "entry": [
                            {
                                "reference": "Observation/7f66507a-d216-3681-9e44-8db3fe4d1e7b",
                                "display": "Height"
                            },
                            {
                                "reference": "Observation/b1432de0-6934-3395-acdf-3140c8c22c24",
                                "display": "Patient Body Weight - Measured"
                            },
                            {
                                "reference": "Observation/606af55a-52f2-3d5d-a70c-7ceb94fcd55b",
                                "display": "Intravascular Systolic"
                            },
                            {
                                "reference": "Observation/6d3a8a8b-bb4d-389b-a48d-1ab4a9b095be",
                                "display": "BP Diastolic"
                            },
                            {
                                "reference": "Observation/52f82a03-029a-3a8a-9ed6-5825c029b1f7",
                                "display": "Height"
                            },
                            {
                                "reference": "Observation/c5025785-32f2-3b26-b263-27426e93c11a",
                                "display": "Patient Body Weight - Measured"
                            },
                            {
                                "reference": "Observation/ae1f9227-485b-305e-8a0b-8480a69989b7",
                                "display": "BP Systolic"
                            },
                            {
                                "reference": "Observation/1ffc0668-43ef-327b-b0e9-3c3950d1a62f",
                                "display": "BP Diastolic"
                            }
                        ]
                    }
                ],
                "subject": {
                    "reference": "Patient/2745d583-e3d1-3f88-8b21-7b59adb60779"
                },
                "custodian": {
                    "reference": "Organization/b592a2a0-74bc-37af-896b-ff0fbf6aefb6"
                },
                "author": [
                    {
                        "reference": "Practitioner/4939e179-a309-30ef-9889-e04751868181"
                    }
                ]
            },
            "request": {
                "method": "PUT",
                "url": "Composition/7e841634-010c-3ffe-a19d-cced1984043e"
            }
        },
        {
            "fullUrl": "urn:uuid:4939e179-a309-30ef-9889-e04751868181",
            "resource": {
                "resourceType": "Practitioner",
                "meta": {
                    "profile": [
                        "http://hl7.org/fhir/us/core/StructureDefinition/us-core-practitioner"
                    ]
                },
                "id": "4939e179-a309-30ef-9889-e04751868181",
                "identifier": [
                    {
                        "system": "http://hl7.org/fhir/sid/us-npi",
                        "value": "5555555555"
                    }
                ],
                "name": [
                    {
                        "family": "Primary",
                        "given": [
                            "Patricia",
                            "Patty"
                        ],
                        "suffix": [
                            "M.D."
                        ]
                    }
                ],
                "address": [
                    {
                        "line": [
                            "1004 Healthcare Drive"
                        ],
                        "city": "Portland",
                        "state": "OR",
                        "country": "US",
                        "postalCode": "99123"
                    }
                ],
                "telecom": [
                    {
                        "system": "phone",
                        "value": "+1(555)555-1004",
                        "use": "work"
                    }
                ],
                "qualification": [
                    {
                        "code": {
                            "coding": [
                                {
                                    "code": "207QA0505X",
                                    "display": "Adult Medicine",
                                    "system": "http://nucc.org/provider-taxonomy"
                                }
                            ]
                        }
                    }
                ]
            },
            "request": {
                "method": "PUT",
                "url": "Practitioner/4939e179-a309-30ef-9889-e04751868181"
            }
        },
        {
            "fullUrl": "urn:uuid:b592a2a0-74bc-37af-896b-ff0fbf6aefb6",
            "resource": {
                "resourceType": "Organization",
                "id": "b592a2a0-74bc-37af-896b-ff0fbf6aefb6",
                "identifier": [
                    {
                        "system": "http://hl7.org/fhir/sid/us-npi",
                        "value": "321CX"
                    }
                ],
                "name": "Good Health HIE",
                "address": [
                    {
                        "use": "work",
                        "line": [
                            "1009 Healthcare Drive"
                        ],
                        "city": "Portland",
                        "state": "OR",
                        "country": "US",
                        "postalCode": "99123"
                    }
                ],
                "telecom": [
                    {
                        "system": "phone",
                        "value": "+1(555)555-1009",
                        "use": "work"
                    }
                ]
            },
            "request": {
                "method": "PUT",
                "url": "Organization/b592a2a0-74bc-37af-896b-ff0fbf6aefb6"
            }
        },
        {
            "fullUrl": "urn:uuid:2745d583-e3d1-3f88-8b21-7b59adb60779",
            "resource": {
                "resourceType": "Patient",
                "meta": {
                    "profile": [
                        "http://hl7.org/fhir/us/core/StructureDefinition/us-core-patient"
                    ]
                },
                "id": "2745d583-e3d1-3f88-8b21-7b59adb60779",
                "identifier": [
                    {
                        "system": "http://hl7.org/fhir/sid/us-ssn",
                        "value": "444222222"
                    }
                ],
                "name": [
                    {
                        "use": "usual",
                        "family": "Betterhalf",
                        "given": [
                            "Eve"
                        ]
                    }
                ],
                "birthDate": "1975-05-01",
                "gender": "female",
                "extension": [
                    {
                        "url": "http://hl7.org/fhir/us/core/StructureDefinition/us-core-race",
                        "extension": [
                            {
                                "url": "ombCategory",
                                "valueCoding": {
                                    "code": "2106-3",
                                    "display": "White",
                                    "system": "urn:oid:2.16.840.1.113883.6.238"
                                }
                            },
                            {
                                "url": "ombCategory",
                                "valueCoding": {
                                    "code": "2076-8",
                                    "display": "Hawaiian or Other Pacific Islander",
                                    "system": "urn:oid:2.16.840.1.113883.6.238"
                                }
                            },
                            {
                                "url": "text",
                                "valueString": "Mixed"
                            }
                        ]
                    },
                    {
                        "url": "http://hl7.org/fhir/us/core/StructureDefinition/us-core-ethnicity",
                        "extension": [
                            {
                                "url": "ombCategory",
                                "valueCoding": {
                                    "code": "2186-5",
                                    "display": "Not Hispanic or Latino",
                                    "system": "urn:oid:2.16.840.1.113883.6.238"
                                }
                            },
                            {
                                "url": "text",
                                "valueString": "Not Hispanic or Latino"
                            }
                        ]
                    }
                ],
                "address": [
                    {
                        "use": "home",
                        "line": [
                            "2222 Home Street"
                        ],
                        "city": "Beaverton",
                        "state": "OR",
                        "country": "US",
                        "postalCode": "97867"
                    }
                ],
                "telecom": [
                    {
                        "system": "phone",
                        "value": "+1(555)555-2003",
                        "use": "home"
                    }
                ],
                "communication": [
                    {
                        "language": {
                            "coding": [
                                {
                                    "system": "urn:ietf:bcp:47",
                                    "code": "en",
                                    "display": "English"
                                }
                            ]
                        },
                        "preferred": true
                    }
                ]
            },
            "request": {
                "method": "PUT",
                "url": "Patient/2745d583-e3d1-3f88-8b21-7b59adb60779"
            }
        },
        {
            "fullUrl": "urn:uuid:5fab84f6-27ae-3100-a4be-3785d3a7a76b",
            "resource": {
                "resourceType": "RelatedPerson",
                "id": "5fab84f6-27ae-3100-a4be-3785d3a7a76b",
                "relationship": [
                    {
                        "coding": [
                            {
                                "code": "POWATT",
                                "display": "Power of Attorney",
                                "system": "urn:oid:2.16.840.1.113883.1.11.19830"
                            }
                        ]
                    }
                ],
                "name": [
                    {
                        "family": "Betterhalf",
                        "given": [
                            "Boris",
                            "Bo"
                        ]
                    }
                ],
                "telecom": [
                    {
                        "system": "phone",
                        "value": "+1(555)555-2008",
                        "use": "mobile"
                    }
                ],
                "address": [
                    {
                        "use": "home",
                        "line": [
                            "2222 Home Street"
                        ],
                        "city": "Beaverton",
                        "state": "OR",
                        "country": "US",
                        "postalCode": "97867"
                    }
                ],
                "patient": {
                    "reference": "Patient/2745d583-e3d1-3f88-8b21-7b59adb60779"
                }
            },
            "request": {
                "method": "PUT",
                "url": "RelatedPerson/5fab84f6-27ae-3100-a4be-3785d3a7a76b"
            }
        },
        {
            "fullUrl": "urn:uuid:7b360ea8-30e6-37bc-bf00-e98f7ecfa3a8",
            "resource": {
                "resourceType": "AllergyIntolerance",
                "id": "7b360ea8-30e6-37bc-bf00-e98f7ecfa3a8",
                "identifier": [
                    {
                        "system": "urn:ietf:rfc:3986",
                        "value": "urn:uuid:4adc1020-7b14-11db-9fe1-0800200c9a66"
                    }
                ],
                "clinicalStatus": {
                    "coding": [
                        {
                            "system": "http://terminology.hl7.org/CodeSystem/allergyintolerance-clinical",
                            "code": "active"
                        }
                    ]
                },
                "reaction": [
                    {
                        "substance": {
                            "coding": [
                                {
                                    "code": "70618",
                                    "display": "Penicillin",
                                    "system": "http://www.nlm.nih.gov/research/umls/rxnorm"
                                }
                            ]
                        },
                        "severity": "severe",
                        "manifestation": [
                            {
                                "coding": [
                                    {
                                        "code": "422587007",
                                        "display": "Nausea",
                                        "system": "http://snomed.info/sct"
                                    }
                                ]
                            }
                        ],
                        "onset": "2008-02-26T16:05:00.000Z"
                    }
                ],
                "onsetDateTime": "1998-05-01",
                "patient": {
                    "reference": "Patient/2745d583-e3d1-3f88-8b21-7b59adb60779"
                }
            },
            "request": {
                "method": "PUT",
                "url": "AllergyIntolerance/7b360ea8-30e6-37bc-bf00-e98f7ecfa3a8"
            }
        },
        {
            "fullUrl": "urn:uuid:2cc6a3e0-fb95-3b17-bb79-118b63951dd6",
            "resource": {
                "resourceType": "AllergyIntolerance",
                "id": "2cc6a3e0-fb95-3b17-bb79-118b63951dd6",
                "identifier": [
                    {
                        "system": "urn:ietf:rfc:3986",
                        "value": "urn:uuid:901db0f8-9355-4794-81cd-fd951ef07917"
                    }
                ],
                "clinicalStatus": {
                    "coding": [
                        {
                            "system": "http://terminology.hl7.org/CodeSystem/allergyintolerance-clinical",
                            "code": "active"
                        }
                    ]
                },
                "reaction": [
                    {
                        "substance": {
                            "coding": [
                                {
                                    "code": "2670",
                                    "display": "Codeine",
                                    "system": "http://www.nlm.nih.gov/research/umls/rxnorm"
                                }
                            ]
                        },
                        "manifestation": [
                            {
                                "coding": [
                                    {
                                        "code": "56018004",
                                        "display": "Wheezing",
                                        "system": "http://snomed.info/sct"
                                    }
                                ]
                            }
                        ],
                        "severity": "mild"
                    }
                ],
                "patient": {
                    "reference": "Patient/2745d583-e3d1-3f88-8b21-7b59adb60779"
                }
            },
            "request": {
                "method": "PUT",
                "url": "AllergyIntolerance/2cc6a3e0-fb95-3b17-bb79-118b63951dd6"
            }
        },
        {
            "fullUrl": "urn:uuid:5aec5cdb-7d7e-37ea-bf97-6317758fcaa1",
            "resource": {
                "resourceType": "MedicationStatement",
                "id": "5aec5cdb-7d7e-37ea-bf97-6317758fcaa1",
                "identifier": [
                    {
                        "system": "urn:ietf:rfc:3986",
                        "value": "urn:uuid:cdbd33f0-6cde-11db-9fe1-0800200c9a66"
                    }
                ],
                "status": "active",
                "dosage": [
                    {
                        "doseAndRate": [
                            {
                                "doseQuantity": {
                                    "value": 2
                                }
                            }
                        ]
                    }
                ],
                "subject": {
                    "reference": "Patient/2745d583-e3d1-3f88-8b21-7b59adb60779"
                },
                "medicationReference": {
                    "reference": "Medication/d2316eef-7247-341b-9750-c704831e96fa"
                }
            },
            "request": {
                "method": "PUT",
                "url": "MedicationStatement/5aec5cdb-7d7e-37ea-bf97-6317758fcaa1"
            }
        },
        {
            "fullUrl": "urn:uuid:d2316eef-7247-341b-9750-c704831e96fa",
            "resource": {
                "resourceType": "Medication",
                "id": "d2316eef-7247-341b-9750-c704831e96fa",
                "code": {
                    "coding": [
                        {
                            "code": "573621",
                            "display": "Proventil 0.09 MG/ACTUAT inhalant solution",
                            "system": "http://www.nlm.nih.gov/research/umls/rxnorm"
                        }
                    ]
                }
            },
            "request": {
                "method": "PUT",
                "url": "Medication/d2316eef-7247-341b-9750-c704831e96fa"
            }
        },
        {
            "fullUrl": "urn:uuid:6104c696-5c62-3e61-b24e-5f4513cd0614",
            "resource": {
                "resourceType": "MedicationRequest",
                "id": "6104c696-5c62-3e61-b24e-5f4513cd0614",
                "intent": "order",
                "status": "completed",
                "subject": {
                    "reference": "Patient/2745d583-e3d1-3f88-8b21-7b59adb60779"
                },
                "medicationReference": {
                    "reference": "Medication/d2316eef-7247-341b-9750-c704831e96fa"
                },
                "requester": {
                    "reference": "Practitioner/4939e179-a309-30ef-9889-e04751868181"
                }
            },
            "request": {
                "method": "PUT",
                "url": "MedicationRequest/6104c696-5c62-3e61-b24e-5f4513cd0614"
            }
        },
        {
            "fullUrl": "urn:uuid:25b6af4a-a69f-39d6-8edf-5d31f1671072",
            "resource": {
                "resourceType": "MedicationRequest",
                "id": "25b6af4a-a69f-39d6-8edf-5d31f1671072",
                "identifier": [
                    {
                        "system": "urn:oid:1.2.3.4.56789.1",
                        "value": "cb734647-fc99-424c-a864-7e3cda82e704"
                    }
                ],
                "intent": "order",
                "status": "completed",
                "subject": {
                    "reference": "Patient/2745d583-e3d1-3f88-8b21-7b59adb60779"
                },
                "medicationReference": {
                    "reference": "Medication/d2316eef-7247-341b-9750-c704831e96fa"
                }
            },
            "request": {
                "method": "PUT",
                "url": "MedicationRequest/25b6af4a-a69f-39d6-8edf-5d31f1671072"
            }
        },
        {
            "fullUrl": "urn:uuid:f12d8b9e-05c5-3132-9ae2-52e4cfea6821",
            "resource": {
                "resourceType": "MedicationStatement",
                "id": "f12d8b9e-05c5-3132-9ae2-52e4cfea6821",
                "identifier": [
                    {
                        "system": "urn:ietf:rfc:3986",
                        "value": "urn:uuid:6c844c75-aa34-411c-b7bd-5e4a9f206e29"
                    }
                ],
                "status": "active",
                "dosage": [
                    {
                        "doseAndRate": [
                            {
                                "doseQuantity": {
                                    "value": 1
                                }
                            }
                        ]
                    }
                ],
                "subject": {
                    "reference": "Patient/2745d583-e3d1-3f88-8b21-7b59adb60779"
                },
                "medicationReference": {
                    "reference": "Medication/387ea73a-7ef0-3adc-9184-d8a520c3ff69"
                }
            },
            "request": {
                "method": "PUT",
                "url": "MedicationStatement/f12d8b9e-05c5-3132-9ae2-52e4cfea6821"
            }
        },
        {
            "fullUrl": "urn:uuid:387ea73a-7ef0-3adc-9184-d8a520c3ff69",
            "resource": {
                "resourceType": "Medication",
                "id": "387ea73a-7ef0-3adc-9184-d8a520c3ff69",
                "code": {
                    "coding": [
                        {
                            "code": "197380",
                            "display": "Atenolol 25 MG Oral Tablet",
                            "system": "http://www.nlm.nih.gov/research/umls/rxnorm"
                        }
                    ]
                }
            },
            "request": {
                "method": "PUT",
                "url": "Medication/387ea73a-7ef0-3adc-9184-d8a520c3ff69"
            }
        },
        {
            "fullUrl": "urn:uuid:dd74841b-3518-3a78-a750-897fe19ef9ee",
            "resource": {
                "resourceType": "Condition",
                "id": "dd74841b-3518-3a78-a750-897fe19ef9ee",
                "identifier": [
                    {
                        "system": "urn:ietf:rfc:3986",
                        "value": "urn:uuid:ab1791b0-5c71-11db-b0de-0800200c9a66"
                    }
                ],
                "code": {
                    "coding": [
                        {
                            "code": "233604007",
                            "display": "Pneumonia",
                            "system": "http://snomed.info/sct"
                        }
                    ]
                },
                "onsetDateTime": "2013-07-03",
                "subject": {
                    "reference": "Patient/2745d583-e3d1-3f88-8b21-7b59adb60779"
                }
            },
            "request": {
                "method": "PUT",
                "url": "Condition/dd74841b-3518-3a78-a750-897fe19ef9ee"
            }
        },
        {
            "fullUrl": "urn:uuid:5ca7bf4c-34e9-39a7-a76a-56d752766a25",
            "resource": {
                "resourceType": "Condition",
                "id": "5ca7bf4c-34e9-39a7-a76a-56d752766a25",
                "identifier": [
                    {
                        "system": "urn:ietf:rfc:3986",
                        "value": "urn:uuid:11d088a8-b957-401c-8ee0-3bd20a772fc0"
                    }
                ],
                "code": {
                    "coding": [
                        {
                            "code": "29857009",
                            "display": "Chest pain",
                            "system": "http://snomed.info/sct"
                        }
                    ]
                },
                "onsetDateTime": "2007-04-14",
                "subject": {
                    "reference": "Patient/2745d583-e3d1-3f88-8b21-7b59adb60779"
                }
            },
            "request": {
                "method": "PUT",
                "url": "Condition/5ca7bf4c-34e9-39a7-a76a-56d752766a25"
            }
        },
        {
            "fullUrl": "urn:uuid:74b6abb8-3743-3ec2-bc9f-37a8e930b1e3",
            "resource": {
                "resourceType": "Condition",
                "id": "74b6abb8-3743-3ec2-bc9f-37a8e930b1e3",
                "identifier": [
                    {
                        "system": "urn:ietf:rfc:3986",
                        "value": "urn:uuid:4991db40-4c4f-41e8-9146-50c12d716424"
                    }
                ],
                "code": {
                    "coding": [
                        {
                            "code": "194828000",
                            "display": "Angina",
                            "system": "http://snomed.info/sct"
                        }
                    ]
                },
                "onsetDateTime": "2007-04-17",
                "subject": {
                    "reference": "Patient/2745d583-e3d1-3f88-8b21-7b59adb60779"
                }
            },
            "request": {
                "method": "PUT",
                "url": "Condition/74b6abb8-3743-3ec2-bc9f-37a8e930b1e3"
            }
        },
        {
            "fullUrl": "urn:uuid:177dd163-8a33-3854-9915-b51d7acd847f",
            "resource": {
                "resourceType": "Condition",
                "id": "177dd163-8a33-3854-9915-b51d7acd847f",
                "identifier": [
                    {
                        "system": "urn:ietf:rfc:3986",
                        "value": "urn:uuid:10506b4d-c30a-4220-8bec-97bff9568fd1"
                    }
                ],
                "code": {
                    "coding": [
                        {
                            "code": "233604007",
                            "display": "Pneumonia",
                            "system": "http://snomed.info/sct"
                        }
                    ]
                },
                "onsetDateTime": "1998-03-10",
                "subject": {
                    "reference": "Patient/2745d583-e3d1-3f88-8b21-7b59adb60779"
                }
            },
            "request": {
                "method": "PUT",
                "url": "Condition/177dd163-8a33-3854-9915-b51d7acd847f"
            }
        },
        {
            "fullUrl": "urn:uuid:1874fcbc-94a4-375a-8937-6c2a725e4335",
            "resource": {
                "resourceType": "DiagnosticReport",
                "id": "1874fcbc-94a4-375a-8937-6c2a725e4335",
                "identifier": [
                    {
                        "system": "urn:ietf:rfc:3986",
                        "value": "urn:uuid:7d5a02b0-67a4-11db-bd13-0800200c9a66"
                    }
                ],
                "status": "final",
                "code": {
                    "coding": [
                        {
                            "code": "57021-8",
                            "display": "CBC W Auto Differential panel in Blood",
                            "system": "http://loinc.org"
                        }
                    ]
                },
                "effectivePeriod": {
                    "start": "2008-03-19T16:30:00.000Z",
                    "end": "2008-03-19T16:30:00.000Z"
                },
                "subject": {
                    "reference": "Patient/2745d583-e3d1-3f88-8b21-7b59adb60779"
                },
                "result": [
                    {
                        "reference": "Observation/ae2f1fd0-fbb0-30bc-8143-1ed158e0fa3d"
                    },
                    {
                        "reference": "Observation/bce676fc-76bc-3992-aa63-fc21106be0dd"
                    },
                    {
                        "reference": "Observation/1ca3ea0f-d594-3cf1-b3b9-202ef4b9d322"
                    },
                    {
                        "reference": "Observation/a47e0340-15f9-39c3-a16d-f08a8dda3595"
                    },
                    {
                        "reference": "Observation/784944a8-8561-3089-9d6f-f5a05647b1ad"
                    }
                ]
            },
            "request": {
                "method": "PUT",
                "url": "DiagnosticReport/1874fcbc-94a4-375a-8937-6c2a725e4335"
            }
        },
        {
            "fullUrl": "urn:uuid:ae2f1fd0-fbb0-30bc-8143-1ed158e0fa3d",
            "resource": {
                "resourceType": "Observation",
                "meta": {
                    "profile": [
                        "http://hl7.org/fhir/us/core/StructureDefinition/us-core-observationresults"
                    ]
                },
                "id": "ae2f1fd0-fbb0-30bc-8143-1ed158e0fa3d",
                "identifier": [
                    {
                        "system": "urn:ietf:rfc:3986",
                        "value": "urn:uuid:107c2dc0-67a5-11db-bd13-0800200c9a66"
                    }
                ],
                "category": [
                    {
                        "coding": [
                            {
                                "system": "http://terminology.hl7.org/CodeSystem/observation-category",
                                "code": "laboratory"
                            }
                        ]
                    }
                ],
                "status": "final",
                "code": {
                    "coding": [
                        {
                            "code": "718-7",
                            "display": "Hemoglobin",
                            "system": "http://loinc.org"
                        }
                    ]
                },
                "effectiveDateTime": "2008-03-19T16:30:00.000Z",
                "valueQuantity": {
                    "value": 13.2,
                    "unit": "g/dL"
                },
                "referenceRange": [
                    {
                        "low": {
                            "value": 12,
                            "unit": "g/dL"
                        },
                        "high": {
                            "value": 15.5,
                            "unit": "g/dL"
                        }
                    }
                ],
                "interpretation": [
                    {
                        "coding": [
                            {
                                "code": "N",
                                "system": "http://terminology.hl7.org/CodeSystem/v3-ObservationInterpretation"
                            }
                        ]
                    }
                ],
                "subject": {
                    "reference": "Patient/2745d583-e3d1-3f88-8b21-7b59adb60779"
                },
                "performer": [
                    {
                        "reference": "Practitioner/7b28babc-fd6e-3540-b98f-2b6a0901138d"
                    }
                ]
            },
            "request": {
                "method": "PUT",
                "url": "Observation/ae2f1fd0-fbb0-30bc-8143-1ed158e0fa3d"
            }
        },
        {
            "fullUrl": "urn:uuid:bce676fc-76bc-3992-aa63-fc21106be0dd",
            "resource": {
                "resourceType": "Observation",
                "meta": {
                    "profile": [
                        "http://hl7.org/fhir/us/core/StructureDefinition/us-core-observationresults"
                    ]
                },
                "id": "bce676fc-76bc-3992-aa63-fc21106be0dd",
                "identifier": [
                    {
                        "system": "urn:ietf:rfc:3986",
                        "value": "urn:uuid:a69b3d60-2ffd-4440-958b-72b3335ff35f"
                    }
                ],
                "category": [
                    {
                        "coding": [
                            {
                                "system": "http://terminology.hl7.org/CodeSystem/observation-category",
                                "code": "laboratory"
                            }
                        ]
                    }
                ],
                "status": "final",
                "code": {
                    "coding": [
                        {
                            "code": "6690-2",
                            "display": "Leukocytes",
                            "system": "http://loinc.org"
                        }
                    ]
                },
                "effectiveDateTime": "2008-03-19T16:30:00.000Z",
                "valueQuantity": {
                    "value": 6.7,
                    "unit": "10*9/L"
                },
                "referenceRange": [
                    {
                        "low": {
                            "value": 4.3,
                            "unit": "10*9/L"
                        },
                        "high": {
                            "value": 10.8,
                            "unit": "10*9/L"
                        }
                    }
                ],
                "interpretation": [
                    {
                        "coding": [
                            {
                                "code": "N",
                                "system": "http://terminology.hl7.org/CodeSystem/v3-ObservationInterpretation"
                            }
                        ]
                    }
                ],
                "subject": {
                    "reference": "Patient/2745d583-e3d1-3f88-8b21-7b59adb60779"
                },
                "performer": [
                    {
                        "reference": "Practitioner/7b28babc-fd6e-3540-b98f-2b6a0901138d"
                    }
                ]
            },
            "request": {
                "method": "PUT",
                "url": "Observation/bce676fc-76bc-3992-aa63-fc21106be0dd"
            }
        },
        {
            "fullUrl": "urn:uuid:1ca3ea0f-d594-3cf1-b3b9-202ef4b9d322",
            "resource": {
                "resourceType": "Observation",
                "meta": {
                    "profile": [
                        "http://hl7.org/fhir/us/core/StructureDefinition/us-core-observationresults"
                    ]
                },
                "id": "1ca3ea0f-d594-3cf1-b3b9-202ef4b9d322",
                "identifier": [
                    {
                        "system": "urn:ietf:rfc:3986",
                        "value": "urn:uuid:ef5c1c58-4665-4556-a8e8-6e720d82f572"
                    }
                ],
                "category": [
                    {
                        "coding": [
                            {
                                "system": "http://terminology.hl7.org/CodeSystem/observation-category",
                                "code": "laboratory"
                            }
                        ]
                    }
                ],
                "status": "final",
                "code": {
                    "coding": [
                        {
                            "code": "777-3",
                            "display": "Platelets",
                            "system": "http://loinc.org"
                        }
                    ]
                },
                "effectiveDateTime": "2008-03-19T16:30:00.000Z",
                "valueQuantity": {
                    "value": 123,
                    "unit": "10*9/L"
                },
                "referenceRange": [
                    {
                        "low": {
                            "value": 150,
                            "unit": "10*9/L"
                        },
                        "high": {
                            "value": 350,
                            "unit": "10*9/L"
                        }
                    }
                ],
                "interpretation": [
                    {
                        "coding": [
                            {
                                "code": "LX",
                                "system": "http://terminology.hl7.org/CodeSystem/v3-ObservationInterpretation"
                            }
                        ]
                    }
                ],
                "subject": {
                    "reference": "Patient/2745d583-e3d1-3f88-8b21-7b59adb60779"
                },
                "performer": [
                    {
                        "reference": "Practitioner/7b28babc-fd6e-3540-b98f-2b6a0901138d"
                    }
                ]
            },
            "request": {
                "method": "PUT",
                "url": "Observation/1ca3ea0f-d594-3cf1-b3b9-202ef4b9d322"
            }
        },
        {
            "fullUrl": "urn:uuid:a47e0340-15f9-39c3-a16d-f08a8dda3595",
            "resource": {
                "resourceType": "Observation",
                "meta": {
                    "profile": [
                        "http://hl7.org/fhir/us/core/StructureDefinition/us-core-observationresults"
                    ]
                },
                "id": "a47e0340-15f9-39c3-a16d-f08a8dda3595",
                "identifier": [
                    {
                        "system": "urn:ietf:rfc:3986",
                        "value": "urn:uuid:7c0704bb-9c40-41b5-9c7d-26b2d59e234f"
                    }
                ],
                "category": [
                    {
                        "coding": [
                            {
                                "system": "http://terminology.hl7.org/CodeSystem/observation-category",
                                "code": "laboratory"
                            }
                        ]
                    }
                ],
                "status": "final",
                "code": {
                    "coding": [
                        {
                            "code": "4544-3",
                            "display": "Hematocrit",
                            "system": "http://loinc.org"
                        }
                    ]
                },
                "effectiveDateTime": "2008-03-19T16:30:00.000Z",
                "valueQuantity": {
                    "value": 35.3,
                    "unit": "%"
                },
                "referenceRange": [
                    {
                        "low": {
                            "value": 34.9,
                            "unit": "%"
                        },
                        "high": {
                            "value": 44.5,
                            "unit": "%"
                        }
                    }
                ],
                "interpretation": [
                    {
                        "coding": [
                            {
                                "code": "LX",
                                "system": "http://terminology.hl7.org/CodeSystem/v3-ObservationInterpretation"
                            }
                        ]
                    }
                ],
                "subject": {
                    "reference": "Patient/2745d583-e3d1-3f88-8b21-7b59adb60779"
                },
                "performer": [
                    {
                        "reference": "Practitioner/7b28babc-fd6e-3540-b98f-2b6a0901138d"
                    }
                ]
            },
            "request": {
                "method": "PUT",
                "url": "Observation/a47e0340-15f9-39c3-a16d-f08a8dda3595"
            }
        },
        {
            "fullUrl": "urn:uuid:784944a8-8561-3089-9d6f-f5a05647b1ad",
            "resource": {
                "resourceType": "Observation",
                "meta": {
                    "profile": [
                        "http://hl7.org/fhir/us/core/StructureDefinition/us-core-observationresults"
                    ]
                },
                "id": "784944a8-8561-3089-9d6f-f5a05647b1ad",
                "identifier": [
                    {
                        "system": "urn:ietf:rfc:3986",
                        "value": "urn:uuid:bccd6fc9-0c7f-455e-8616-923ed0d04d09"
                    }
                ],
                "category": [
                    {
                        "coding": [
                            {
                                "system": "http://terminology.hl7.org/CodeSystem/observation-category",
                                "code": "laboratory"
                            }
                        ]
                    }
                ],
                "status": "final",
                "code": {
                    "coding": [
                        {
                            "code": "789-8",
                            "display": "Erythrocytes",
                            "system": "http://loinc.org"
                        }
                    ]
                },
                "effectiveDateTime": "2008-03-19T16:30:00.000Z",
                "valueQuantity": {
                    "value": 4.21,
                    "unit": "10*12/L"
                },
                "referenceRange": [
                    {
                        "low": {
                            "value": 3.9,
                            "unit": "10*12/L"
                        },
                        "high": {
                            "value": 5.03,
                            "unit": "10*12/L"
                        }
                    }
                ],
                "interpretation": [
                    {
                        "coding": [
                            {
                                "code": "N",
                                "system": "http://terminology.hl7.org/CodeSystem/v3-ObservationInterpretation"
                            }
                        ]
                    }
                ],
                "subject": {
                    "reference": "Patient/2745d583-e3d1-3f88-8b21-7b59adb60779"
                },
                "performer": [
                    {
                        "reference": "Practitioner/7b28babc-fd6e-3540-b98f-2b6a0901138d"
                    }
                ]
            },
            "request": {
                "method": "PUT",
                "url": "Observation/784944a8-8561-3089-9d6f-f5a05647b1ad"
            }
        },
        {
            "fullUrl": "urn:uuid:f66672a7-8389-3179-801e-90802097ac72",
            "resource": {
                "resourceType": "DiagnosticReport",
                "id": "f66672a7-8389-3179-801e-90802097ac72",
                "identifier": [
                    {
                        "system": "urn:ietf:rfc:3986",
                        "value": "urn:uuid:122ed3ae-6d9e-43d0-bfa2-434ea34b1426"
                    }
                ],
                "status": "unknown",
                "code": {
                    "coding": [
                        {
                            "code": "166312007",
                            "display": "Blood chemistry test",
                            "system": "http://snomed.info/sct"
                        }
                    ]
                },
                "effectivePeriod": {
                    "start": "2008-03-20T17:30:00.000Z",
                    "end": "2008-03-20T17:30:00.000Z"
                },
                "subject": {
                    "reference": "Patient/2745d583-e3d1-3f88-8b21-7b59adb60779"
                },
                "result": [
                    {
                        "reference": "Observation/62801ddf-2b7a-3f26-bca4-997e28d56845"
                    }
                ]
            },
            "request": {
                "method": "PUT",
                "url": "DiagnosticReport/f66672a7-8389-3179-801e-90802097ac72"
            }
        },
        {
            "fullUrl": "urn:uuid:62801ddf-2b7a-3f26-bca4-997e28d56845",
            "resource": {
                "resourceType": "Observation",
                "meta": {
                    "profile": [
                        "http://hl7.org/fhir/us/core/StructureDefinition/us-core-observationresults"
                    ]
                },
                "id": "62801ddf-2b7a-3f26-bca4-997e28d56845",
                "identifier": [
                    {
                        "system": "urn:ietf:rfc:3986",
                        "value": "urn:uuid:aed821af-3330-4138-97f0-e84dfe5f3c35"
                    }
                ],
                "category": [
                    {
                        "coding": [
                            {
                                "system": "http://terminology.hl7.org/CodeSystem/observation-category",
                                "code": "laboratory"
                            }
                        ]
                    }
                ],
                "status": "unknown",
                "code": {
                    "coding": [
                        {
                            "code": "3094-0",
                            "display": "Urea nitrogen, Serum",
                            "system": "http://loinc.org"
                        }
                    ]
                },
                "effectiveDateTime": "2008-03-20T17:30:00.000Z",
                "subject": {
                    "reference": "Patient/2745d583-e3d1-3f88-8b21-7b59adb60779"
                }
            },
            "request": {
                "method": "PUT",
                "url": "Observation/62801ddf-2b7a-3f26-bca4-997e28d56845"
            }
        },
        {
            "fullUrl": "urn:uuid:1edceb95-1ae4-3915-b68c-ee65a2a980b8",
            "resource": {
                "resourceType": "Observation",
                "meta": {
                    "profile": [
                        "http://hl7.org/fhir/us/core/StructureDefinition/us-core-observationresults"
                    ]
                },
                "id": "1edceb95-1ae4-3915-b68c-ee65a2a980b8",
                "identifier": [
                    {
                        "system": "urn:oid:2.16.840.1.113883.19",
                        "value": "123456789"
                    }
                ],
                "category": [
                    {
                        "coding": [
                            {
                                "system": "http://terminology.hl7.org/CodeSystem/observation-category",
                                "code": "social-history"
                            }
                        ]
                    }
                ],
                "status": "final",
                "code": {
                    "coding": [
                        {
                            "code": "72166-2",
                            "display": "Tobacco smoking status NHIS",
                            "system": "http://loinc.org"
                        }
                    ]
                },
                "effectiveDateTime": "2012-09-10",
                "valueCodeableConcept": {
                    "coding": [
                        {
                            "code": "8517006",
                            "display": "Former smoker",
                            "system": "http://snomed.info/sct"
                        }
                    ]
                },
                "subject": {
                    "reference": "Patient/2745d583-e3d1-3f88-8b21-7b59adb60779"
                }
            },
            "request": {
                "method": "PUT",
                "url": "Observation/1edceb95-1ae4-3915-b68c-ee65a2a980b8"
            }
        },
        {
            "fullUrl": "urn:uuid:9f3883dc-1210-3082-9d5d-1d3e28d62121",
            "resource": {
                "resourceType": "Observation",
                "meta": {
                    "profile": [
                        "http://hl7.org/fhir/us/core/StructureDefinition/us-core-observationresults"
                    ]
                },
                "id": "9f3883dc-1210-3082-9d5d-1d3e28d62121",
                "identifier": [
                    {
                        "system": "urn:ietf:rfc:3986",
                        "value": "urn:uuid:45efb604-7049-4a2e-ad33-d38556c9636c"
                    }
                ],
                "category": [
                    {
                        "coding": [
                            {
                                "system": "http://terminology.hl7.org/CodeSystem/observation-category",
                                "code": "social-history"
                            }
                        ]
                    }
                ],
                "status": "final",
                "code": {
                    "coding": [
                        {
                            "code": "11367-0",
                            "display": "History of tobacco use",
                            "system": "http://loinc.org"
                        }
                    ]
                },
                "effectivePeriod": {
                    "start": "2009-02-14",
                    "end": "2011-02-15"
                },
                "valueCodeableConcept": {
                    "coding": [
                        {
                            "code": "160604004",
                            "display": "Moderate cigarette smoker, 10-19/day",
                            "system": "http://snomed.info/sct"
                        }
                    ]
                },
                "subject": {
                    "reference": "Patient/2745d583-e3d1-3f88-8b21-7b59adb60779"
                }
            },
            "request": {
                "method": "PUT",
                "url": "Observation/9f3883dc-1210-3082-9d5d-1d3e28d62121"
            }
        },
        {
            "fullUrl": "urn:uuid:639af618-653a-3654-bd7a-cf425fe42063",
            "resource": {
                "resourceType": "Observation",
                "meta": {
                    "profile": [
                        "http://hl7.org/fhir/us/core/StructureDefinition/us-core-observationresults"
                    ]
                },
                "id": "639af618-653a-3654-bd7a-cf425fe42063",
                "identifier": [
                    {
                        "system": "urn:ietf:rfc:3986",
                        "value": "urn:uuid:37f76c51-6411-4e1d-8a37-957fd49d2cef"
                    }
                ],
                "category": [
                    {
                        "coding": [
                            {
                                "system": "http://terminology.hl7.org/CodeSystem/observation-category",
                                "code": "social-history"
                            }
                        ]
                    }
                ],
                "status": "final",
                "code": {
                    "coding": [
                        {
                            "code": "74013-4",
                            "display": "Alcoholic drinks per day",
                            "system": "http://loinc.org"
                        }
                    ]
                },
                "effectivePeriod": {
                    "start": "2012-02-15"
                },
                "valueQuantity": {
                    "value": 12
                },
                "subject": {
                    "reference": "Patient/2745d583-e3d1-3f88-8b21-7b59adb60779"
                }
            },
            "request": {
                "method": "PUT",
                "url": "Observation/639af618-653a-3654-bd7a-cf425fe42063"
            }
        },
        {
            "fullUrl": "urn:uuid:cc35ca22-fa13-3d11-89e9-0d36adeffb17",
            "resource": {
                "resourceType": "Observation",
                "meta": {
                    "profile": [
                        "http://hl7.org/fhir/us/core/StructureDefinition/us-core-observationresults"
                    ]
                },
                "id": "cc35ca22-fa13-3d11-89e9-0d36adeffb17",
                "identifier": [
                    {
                        "system": "urn:ietf:rfc:3986",
                        "value": "urn:uuid:ed9589fd-fda0-41f7-a3d0-dc537554f5c2"
                    }
                ],
                "category": [
                    {
                        "coding": [
                            {
                                "system": "http://terminology.hl7.org/CodeSystem/observation-category",
                                "code": "vital-signs"
                            }
                        ]
                    }
                ],
                "status": "final",
                "code": {
                    "coding": [
                        {
                            "code": "8302-2",
                            "display": "Height",
                            "system": "http://loinc.org"
                        }
                    ]
                },
                "effectiveDateTime": "2012-09-10",
                "valueQuantity": {
                    "value": 177,
                    "unit": "cm"
                },
                "interpretation": [
                    {
                        "coding": [
                            {
                                "code": "N",
                                "system": "http://terminology.hl7.org/CodeSystem/v3-ObservationInterpretation"
                            }
                        ]
                    }
                ],
                "subject": {
                    "reference": "Patient/2745d583-e3d1-3f88-8b21-7b59adb60779"
                }
            },
            "request": {
                "method": "PUT",
                "url": "Observation/cc35ca22-fa13-3d11-89e9-0d36adeffb17"
            }
        },
        {
            "fullUrl": "urn:uuid:ceff38ce-f2f7-3d39-ac8c-39757fbfcc19",
            "resource": {
                "resourceType": "Observation",
                "meta": {
                    "profile": [
                        "http://hl7.org/fhir/us/core/StructureDefinition/us-core-observationresults"
                    ]
                },
                "id": "ceff38ce-f2f7-3d39-ac8c-39757fbfcc19",
                "identifier": [
                    {
                        "system": "urn:ietf:rfc:3986",
                        "value": "urn:uuid:f4e729e2-a97f-4a7e-8e23-c92f9b6b55cf"
                    }
                ],
                "category": [
                    {
                        "coding": [
                            {
                                "system": "http://terminology.hl7.org/CodeSystem/observation-category",
                                "code": "vital-signs"
                            }
                        ]
                    }
                ],
                "status": "final",
                "code": {
                    "coding": [
                        {
                            "code": "3141-9",
                            "display": "Patient Body Weight - Measured",
                            "system": "http://loinc.org"
                        }
                    ]
                },
                "effectiveDateTime": "2012-09-10",
                "valueQuantity": {
                    "value": 86,
                    "unit": "kg"
                },
                "interpretation": [
                    {
                        "coding": [
                            {
                                "code": "N",
                                "system": "http://terminology.hl7.org/CodeSystem/v3-ObservationInterpretation"
                            }
                        ]
                    }
                ],
                "subject": {
                    "reference": "Patient/2745d583-e3d1-3f88-8b21-7b59adb60779"
                }
            },
            "request": {
                "method": "PUT",
                "url": "Observation/ceff38ce-f2f7-3d39-ac8c-39757fbfcc19"
            }
        },
        {
            "fullUrl": "urn:uuid:d68395e5-f852-3ecc-9e9c-299e8c2ca510",
            "resource": {
                "resourceType": "Observation",
                "meta": {
                    "profile": [
                        "http://hl7.org/fhir/us/core/StructureDefinition/us-core-observationresults"
                    ]
                },
                "id": "d68395e5-f852-3ecc-9e9c-299e8c2ca510",
                "identifier": [
                    {
                        "system": "urn:ietf:rfc:3986",
                        "value": "urn:uuid:a0e39c70-9674-4b2a-9837-cdf74200d8d5"
                    }
                ],
                "category": [
                    {
                        "coding": [
                            {
                                "system": "http://terminology.hl7.org/CodeSystem/observation-category",
                                "code": "vital-signs"
                            }
                        ]
                    }
                ],
                "status": "final",
                "code": {
                    "coding": [
                        {
                            "code": "8480-6",
                            "display": "Intravascular Systolic",
                            "system": "http://loinc.org"
                        }
                    ]
                },
                "effectiveDateTime": "2012-09-10",
                "valueQuantity": {
                    "value": 132,
                    "unit": "mm[Hg]"
                },
                "interpretation": [
                    {
                        "coding": [
                            {
                                "code": "N",
                                "system": "http://terminology.hl7.org/CodeSystem/v3-ObservationInterpretation"
                            }
                        ]
                    }
                ],
                "subject": {
                    "reference": "Patient/2745d583-e3d1-3f88-8b21-7b59adb60779"
                }
            },
            "request": {
                "method": "PUT",
                "url": "Observation/d68395e5-f852-3ecc-9e9c-299e8c2ca510"
            }
        },
        {
            "fullUrl": "urn:uuid:a260d1f3-a697-38f2-86b1-fcd794265a41",
            "resource": {
                "resourceType": "Observation",
                "meta": {
                    "profile": [
                        "http://hl7.org/fhir/us/core/StructureDefinition/us-core-observationresults"
                    ]
                },
                "id": "a260d1f3-a697-38f2-86b1-fcd794265a41",
                "identifier": [
                    {
                        "system": "urn:ietf:rfc:3986",
                        "value": "urn:uuid:1c2748b7-e440-41ba-bc01-dde97d84a036"
                    }
                ],
                "category": [
                    {
                        "coding": [
                            {
                                "system": "http://terminology.hl7.org/CodeSystem/observation-category",
                                "code": "vital-signs"
                            }
                        ]
                    }
                ],
                "status": "final",
                "code": {
                    "coding": [
                        {
                            "code": "8462-4",
                            "display": "BP Diastolic",
                            "system": "http://loinc.org"
                        }
                    ]
                },
                "effectiveDateTime": "2012-09-10",
                "valueQuantity": {
                    "value": 88,
                    "unit": "mm[Hg]"
                },
                "interpretation": [
                    {
                        "coding": [
                            {
                                "code": "N",
                                "system": "http://terminology.hl7.org/CodeSystem/v3-ObservationInterpretation"
                            }
                        ]
                    }
                ],
                "subject": {
                    "reference": "Patient/2745d583-e3d1-3f88-8b21-7b59adb60779"
                }
            },
            "request": {
                "method": "PUT",
                "url": "Observation/a260d1f3-a697-38f2-86b1-fcd794265a41"
            }
        },
        {
            "fullUrl": "urn:uuid:a64e412d-a7c6-3019-86a7-4a16496ca051",
            "resource": {
                "resourceType": "Observation",
                "meta": {
                    "profile": [
                        "http://hl7.org/fhir/us/core/StructureDefinition/us-core-observationresults"
                    ]
                },
                "id": "a64e412d-a7c6-3019-86a7-4a16496ca051",
                "identifier": [
                    {
                        "system": "urn:ietf:rfc:3986",
                        "value": "urn:uuid:05c047cd-28c3-41cd-be6c-56f8cc0c3f2f"
                    }
                ],
                "category": [
                    {
                        "coding": [
                            {
                                "system": "http://terminology.hl7.org/CodeSystem/observation-category",
                                "code": "vital-signs"
                            }
                        ]
                    }
                ],
                "status": "final",
                "code": {
                    "coding": [
                        {
                            "code": "8302-2",
                            "display": "Height",
                            "system": "http://loinc.org"
                        }
                    ]
                },
                "effectiveDateTime": "2011-09-01",
                "valueQuantity": {
                    "value": 177,
                    "unit": "cm"
                },
                "interpretation": [
                    {
                        "coding": [
                            {
                                "code": "N",
                                "system": "http://terminology.hl7.org/CodeSystem/v3-ObservationInterpretation"
                            }
                        ]
                    }
                ],
                "subject": {
                    "reference": "Patient/2745d583-e3d1-3f88-8b21-7b59adb60779"
                }
            },
            "request": {
                "method": "PUT",
                "url": "Observation/a64e412d-a7c6-3019-86a7-4a16496ca051"
            }
        },
        {
            "fullUrl": "urn:uuid:05aaf584-da26-3205-b018-f8775b50cae6",
            "resource": {
                "resourceType": "Observation",
                "meta": {
                    "profile": [
                        "http://hl7.org/fhir/us/core/StructureDefinition/us-core-observationresults"
                    ]
                },
                "id": "05aaf584-da26-3205-b018-f8775b50cae6",
                "identifier": [
                    {
                        "system": "urn:ietf:rfc:3986",
                        "value": "urn:uuid:21b0f3d5-7d07-4f4f-ad7e-c33dc2ca3835"
                    }
                ],
                "category": [
                    {
                        "coding": [
                            {
                                "system": "http://terminology.hl7.org/CodeSystem/observation-category",
                                "code": "vital-signs"
                            }
                        ]
                    }
                ],
                "status": "final",
                "code": {
                    "coding": [
                        {
                            "code": "3141-9",
                            "display": "Patient Body Weight - Measured",
                            "system": "http://loinc.org"
                        }
                    ]
                },
                "effectiveDateTime": "2011-09-01",
                "valueQuantity": {
                    "value": 88,
                    "unit": "kg"
                },
                "interpretation": [
                    {
                        "coding": [
                            {
                                "code": "N",
                                "system": "http://terminology.hl7.org/CodeSystem/v3-ObservationInterpretation"
                            }
                        ]
                    }
                ],
                "subject": {
                    "reference": "Patient/2745d583-e3d1-3f88-8b21-7b59adb60779"
                }
            },
            "request": {
                "method": "PUT",
                "url": "Observation/05aaf584-da26-3205-b018-f8775b50cae6"
            }
        },
        {
            "fullUrl": "urn:uuid:5f17d478-3014-307b-89c8-4da99c0d3790",
            "resource": {
                "resourceType": "Observation",
                "meta": {
                    "profile": [
                        "http://hl7.org/fhir/us/core/StructureDefinition/us-core-observationresults"
                    ]
                },
                "id": "5f17d478-3014-307b-89c8-4da99c0d3790",
                "identifier": [
                    {
                        "system": "urn:ietf:rfc:3986",
                        "value": "urn:uuid:b046c35a-59c7-4215-ae09-9a8409a30b21"
                    }
                ],
                "category": [
                    {
                        "coding": [
                            {
                                "system": "http://terminology.hl7.org/CodeSystem/observation-category",
                                "code": "vital-signs"
                            }
                        ]
                    }
                ],
                "status": "final",
                "code": {
                    "coding": [
                        {
                            "code": "8480-6",
                            "display": "BP Systolic",
                            "system": "http://loinc.org"
                        }
                    ]
                },
                "effectiveDateTime": "2011-09-01",
                "valueQuantity": {
                    "value": 128,
                    "unit": "mm[Hg]"
                },
                "interpretation": [
                    {
                        "coding": [
                            {
                                "code": "N",
                                "system": "http://terminology.hl7.org/CodeSystem/v3-ObservationInterpretation"
                            }
                        ]
                    }
                ],
                "subject": {
                    "reference": "Patient/2745d583-e3d1-3f88-8b21-7b59adb60779"
                }
            },
            "request": {
                "method": "PUT",
                "url": "Observation/5f17d478-3014-307b-89c8-4da99c0d3790"
            }
        },
        {
            "fullUrl": "urn:uuid:8804da78-eb03-3bd5-97ca-dc71bd4cb790",
            "resource": {
                "resourceType": "Observation",
                "meta": {
                    "profile": [
                        "http://hl7.org/fhir/us/core/StructureDefinition/us-core-observationresults"
                    ]
                },
                "id": "8804da78-eb03-3bd5-97ca-dc71bd4cb790",
                "identifier": [
                    {
                        "system": "urn:ietf:rfc:3986",
                        "value": "urn:uuid:44f54e66-fb4b-4ee5-9ced-9574ef307a23"
                    }
                ],
                "category": [
                    {
                        "coding": [
                            {
                                "system": "http://terminology.hl7.org/CodeSystem/observation-category",
                                "code": "vital-signs"
                            }
                        ]
                    }
                ],
                "status": "final",
                "code": {
                    "coding": [
                        {
                            "code": "8462-4",
                            "display": "BP Diastolic",
                            "system": "http://loinc.org"
                        }
                    ]
                },
                "effectiveDateTime": "2011-09-01",
                "valueQuantity": {
                    "value": 80,
                    "unit": "mm[Hg]"
                },
                "interpretation": [
                    {
                        "coding": [
                            {
                                "code": "N",
                                "system": "http://terminology.hl7.org/CodeSystem/v3-ObservationInterpretation"
                            }
                        ]
                    }
                ],
                "subject": {
                    "reference": "Patient/2745d583-e3d1-3f88-8b21-7b59adb60779"
                }
            },
            "request": {
                "method": "PUT",
                "url": "Observation/8804da78-eb03-3bd5-97ca-dc71bd4cb790"
            }
        },
        {
            "fullUrl": "urn:uuid:82101c50-4e36-308a-988b-2514d323a251",
            "resource": {
                "resourceType": "Procedure",
                "meta": {
                    "profile": [
                        "http://hl7.org/fhir/us/core/StructureDefinition/us-core-procedure"
                    ]
                },
                "id": "82101c50-4e36-308a-988b-2514d323a251",
                "identifier": [
                    {
                        "system": "urn:ietf:rfc:3986",
                        "value": "urn:uuid:d68b7e32-7810-4f5b-9cc2-acd54b0fd85d"
                    }
                ],
                "status": "completed",
                "code": {
                    "coding": [
                        {
                            "code": "73761001",
                            "display": "Colonoscopy",
                            "system": "http://snomed.info/sct"
                        }
                    ]
                },
                "performedDateTime": "2012-05-12",
                "bodySite": [
                    {
                        "coding": [
                            {
                                "code": "appropriate_code",
                                "display": "colon",
                                "system": "http://snomed.info/sct"
                            }
                        ]
                    }
                ],
                "subject": {
                    "reference": "Patient/2745d583-e3d1-3f88-8b21-7b59adb60779"
                },
                "performer": [
                    {
                        "actor": {
                            "reference": "Organization/fa8b3d78-b7a3-35b3-96bd-d59bc554a96d"
                        }
                    }
                ]
            },
            "request": {
                "method": "PUT",
                "url": "Procedure/82101c50-4e36-308a-988b-2514d323a251"
            }
        },
        {
            "fullUrl": "urn:uuid:fa8b3d78-b7a3-35b3-96bd-d59bc554a96d",
            "resource": {
                "resourceType": "Organization",
                "id": "fa8b3d78-b7a3-35b3-96bd-d59bc554a96d",
                "identifier": [
                    {
                        "system": "urn:ietf:rfc:3986",
                        "value": "urn:uuid:2.16.840.1.113883.19.5.9999.1393"
                    }
                ],
                "name": "Community Health and Hospitals",
                "address": [
                    {
                        "line": [
                            "1001 Village Avenue"
                        ],
                        "city": "Portland",
                        "state": "OR",
                        "country": "US",
                        "postalCode": "99123"
                    }
                ]
            },
            "request": {
                "method": "PUT",
                "url": "Organization/fa8b3d78-b7a3-35b3-96bd-d59bc554a96d"
            }
        },
        {
            "fullUrl": "urn:uuid:9ff17752-b0ec-3cd6-83cc-064b75e1b153",
            "resource": {
                "resourceType": "Observation",
                "meta": {
                    "profile": [
                        "http://hl7.org/fhir/us/core/StructureDefinition/us-core-observationresults"
                    ]
                },
                "id": "9ff17752-b0ec-3cd6-83cc-064b75e1b153",
                "identifier": [
                    {
                        "system": "urn:oid:2.16.840.1.113883.19",
                        "value": "123456789"
                    }
                ],
                "category": [
                    {
                        "coding": [
                            {
                                "system": "http://terminology.hl7.org/CodeSystem/observation-category",
                                "code": "procedure"
                            }
                        ]
                    }
                ],
                "status": "unknown",
                "code": {
                    "coding": [
                        {
                            "code": "274025005",
                            "display": "Colonic polypectomy",
                            "system": "http://snomed.info/sct"
                        }
                    ]
                },
                "effectiveDateTime": "2011-02-03",
                "bodySite": {
                    "coding": [
                        {
                            "code": "416949008",
                            "display": "Abdomen and pelvis",
                            "system": "http://snomed.info/sct"
                        }
                    ]
                },
                "subject": {
                    "reference": "Patient/2745d583-e3d1-3f88-8b21-7b59adb60779"
                }
            },
            "request": {
                "method": "PUT",
                "url": "Observation/9ff17752-b0ec-3cd6-83cc-064b75e1b153"
            }
        },
        {
            "fullUrl": "urn:uuid:aa44c032-eb27-31aa-9d37-936d2522ad81",
            "resource": {
                "resourceType": "Encounter",
                "id": "aa44c032-eb27-31aa-9d37-936d2522ad81",
                "status": "unknown",
                "class": {
                    "code": "99213",
                    "display": "Office outpatient visit 15 minutes",
                    "system": "urn:oid:2.16.840.1.113883.6.12"
                },
                "type": [
                    {
                        "coding": [
                            {
                                "code": "99213",
                                "display": "Office outpatient visit 15 minutes",
                                "system": "urn:oid:2.16.840.1.113883.6.12"
                            }
                        ]
                    }
                ],
                "identifier": [
                    {
                        "system": "urn:ietf:rfc:3986",
                        "value": "urn:uuid:2a620155-9d11-439e-92b3-5d9815ff4de8"
                    }
                ],
                "subject": {
                    "reference": "Patient/2745d583-e3d1-3f88-8b21-7b59adb60779"
                },
                "participant": [
                    {
                        "individual": {
                            "reference": "Practitioner/0e9f2de7-8312-3017-9c6d-0a27c4fe93b4"
                        }
                    }
                ],
                "location": [
                    {
                        "location": {
                            "reference": "Location/adc44b9c-3083-396f-877f-463120f6b26a"
                        }
                    }
                ]
            },
            "request": {
                "method": "PUT",
                "url": "Encounter/aa44c032-eb27-31aa-9d37-936d2522ad81"
            }
        },
        {
            "fullUrl": "urn:uuid:0e9f2de7-8312-3017-9c6d-0a27c4fe93b4",
            "resource": {
                "resourceType": "Practitioner",
                "meta": {
                    "profile": [
                        "http://hl7.org/fhir/us/core/StructureDefinition/us-core-practitioner"
                    ]
                },
                "id": "0e9f2de7-8312-3017-9c6d-0a27c4fe93b4",
                "identifier": [
                    {
                        "system": "http://hl7.org/fhir/sid/us-npi",
                        "value": "333444555"
                    }
                ],
                "qualification": [
                    {
                        "code": {
                            "coding": [
                                {
                                    "code": "59058001",
                                    "display": "General Physician",
                                    "system": "http://snomed.info/sct"
                                }
                            ]
                        }
                    }
                ]
            },
            "request": {
                "method": "PUT",
                "url": "Practitioner/0e9f2de7-8312-3017-9c6d-0a27c4fe93b4"
            }
        },
        {
            "fullUrl": "urn:uuid:adc44b9c-3083-396f-877f-463120f6b26a",
            "resource": {
                "resourceType": "Location",
                "id": "adc44b9c-3083-396f-877f-463120f6b26a",
                "name": "Good Health Urgent Care",
                "address": {
                    "line": [
                        "1007 Health Drive"
                    ],
                    "city": "Portland",
                    "state": "OR",
                    "country": "US",
                    "postalCode": "99123"
                },
                "telecom": [
                    {
                        "system": "phone",
                        "value": "+1(555)555-1030",
                        "use": "work"
                    }
                ],
                "type": [
                    {
                        "coding": [
                            {
                                "code": "1160-1",
                                "display": "Urgent Care Center",
                                "system": "urn:oid:2.16.840.1.113883.6.259"
                            }
                        ]
                    }
                ]
            },
            "request": {
                "method": "PUT",
                "url": "Location/adc44b9c-3083-396f-877f-463120f6b26a"
            }
        },
        {
            "fullUrl": "urn:uuid:bf65af75-2683-3eb3-a8bb-a78815950ffc",
            "resource": {
                "resourceType": "Immunization",
                "id": "bf65af75-2683-3eb3-a8bb-a78815950ffc",
                "identifier": [
                    {
                        "system": "urn:ietf:rfc:3986",
                        "value": "urn:uuid:e6f1ba43-c0ed-4b9b-9f12-f435d8ad8f92"
                    }
                ],
                "occurrenceDateTime": "1999-11",
                "vaccineCode": {
                    "coding": [
                        {
                            "code": "88",
                            "display": "Influenza virus vaccine",
                            "system": "http://hl7.org/fhir/sid/cvx"
                        }
                    ]
                },
                "status": "completed",
                "route": {
                    "coding": [
                        {
                            "code": "C28161",
                            "display": "Intramuscular injection",
                            "system": "urn:oid:2.16.840.1.113883.3.26.1.1"
                        }
                    ]
                },
                "patient": {
                    "reference": "Patient/2745d583-e3d1-3f88-8b21-7b59adb60779"
                }
            },
            "request": {
                "method": "PUT",
                "url": "Immunization/bf65af75-2683-3eb3-a8bb-a78815950ffc"
            }
        },
        {
            "fullUrl": "urn:uuid:d1555aac-86f2-3ee4-86dd-e01d46575ea2",
            "resource": {
                "resourceType": "Immunization",
                "id": "d1555aac-86f2-3ee4-86dd-e01d46575ea2",
                "identifier": [
                    {
                        "system": "urn:ietf:rfc:3986",
                        "value": "urn:uuid:e6f1ba43-c0ed-4b9b-9f12-f435d8ad8f92"
                    }
                ],
                "occurrenceDateTime": "1998-12-15",
                "vaccineCode": {
                    "coding": [
                        {
                            "code": "88",
                            "display": "Influenza virus vaccine",
                            "system": "http://hl7.org/fhir/sid/cvx"
                        }
                    ]
                },
                "status": "completed",
                "route": {
                    "coding": [
                        {
                            "code": "C28161",
                            "display": "Intramuscular injection",
                            "system": "urn:oid:2.16.840.1.113883.3.26.1.1"
                        }
                    ]
                },
                "patient": {
                    "reference": "Patient/2745d583-e3d1-3f88-8b21-7b59adb60779"
                }
            },
            "request": {
                "method": "PUT",
                "url": "Immunization/d1555aac-86f2-3ee4-86dd-e01d46575ea2"
            }
        },
        {
            "fullUrl": "urn:uuid:9ebc7932-fa90-375b-b789-1d6948854b72",
            "resource": {
                "resourceType": "Immunization",
                "id": "9ebc7932-fa90-375b-b789-1d6948854b72",
                "identifier": [
                    {
                        "system": "urn:ietf:rfc:3986",
                        "value": "urn:uuid:e6f1ba43-c0ed-4b9b-9f12-f435d8ad8f92"
                    }
                ],
                "occurrenceDateTime": "1998-12-15",
                "vaccineCode": {
                    "coding": [
                        {
                            "code": "33",
                            "display": "Pneumococcal polysaccharide vaccine",
                            "system": "http://hl7.org/fhir/sid/cvx"
                        }
                    ]
                },
                "status": "completed",
                "route": {
                    "coding": [
                        {
                            "code": "C28161",
                            "display": "Intramuscular injection",
                            "system": "urn:oid:2.16.840.1.113883.3.26.1.1"
                        }
                    ]
                },
                "patient": {
                    "reference": "Patient/2745d583-e3d1-3f88-8b21-7b59adb60779"
                }
            },
            "request": {
                "method": "PUT",
                "url": "Immunization/9ebc7932-fa90-375b-b789-1d6948854b72"
            }
        },
        {
            "fullUrl": "urn:uuid:9b06a2ae-c7e6-3275-bb2c-a2c6156eaa22",
            "resource": {
                "resourceType": "Immunization",
                "id": "9b06a2ae-c7e6-3275-bb2c-a2c6156eaa22",
                "identifier": [
                    {
                        "system": "urn:ietf:rfc:3986",
                        "value": "urn:uuid:e6f1ba43-c0ed-4b9b-9f12-f435d8ad8f92"
                    }
                ],
                "statusReason": {
                    "coding": [
                        {
                            "code": "PATOBJ",
                            "display": "Patient Objection",
                            "system": "urn:oid:2.16.840.1.113883.5.8"
                        }
                    ]
                },
                "occurrenceDateTime": "1998-12-15",
                "vaccineCode": {
                    "coding": [
                        {
                            "code": "103",
                            "display": "Tetanus and diphtheria toxoids - preservative free",
                            "system": "http://hl7.org/fhir/sid/cvx"
                        }
                    ]
                },
                "status": "completed",
                "route": {
                    "coding": [
                        {
                            "code": "C28161",
                            "display": "Intramuscular injection",
                            "system": "urn:oid:2.16.840.1.113883.3.26.1.1"
                        }
                    ]
                },
                "patient": {
                    "reference": "Patient/2745d583-e3d1-3f88-8b21-7b59adb60779"
                }
            },
            "request": {
                "method": "PUT",
                "url": "Immunization/9b06a2ae-c7e6-3275-bb2c-a2c6156eaa22"
            }
        },
        {
            "fullUrl": "urn:uuid:6eaace01-46d4-375e-9f0c-719e742944ed",
            "resource": {
                "resourceType": "Immunization",
                "id": "6eaace01-46d4-375e-9f0c-719e742944ed",
                "identifier": [
                    {
                        "system": "urn:ietf:rfc:3986",
                        "value": "urn:uuid:de10790f-1496-4719-8fe6-f1b87b6219f7"
                    }
                ],
                "occurrenceDateTime": "2013-08-01",
                "vaccineCode": {
                    "coding": [
                        {
                            "code": "45",
                            "display": "Hepatitis B vaccine",
                            "system": "http://hl7.org/fhir/sid/cvx"
                        }
                    ]
                },
                "status": "completed",
                "route": {
                    "coding": [
                        {
                            "code": "C28161",
                            "display": "Intramuscular injection",
                            "system": "urn:oid:2.16.840.1.113883.3.26.1.1"
                        }
                    ]
                },
                "patient": {
                    "reference": "Patient/2745d583-e3d1-3f88-8b21-7b59adb60779"
                }
            },
            "request": {
                "method": "PUT",
                "url": "Immunization/6eaace01-46d4-375e-9f0c-719e742944ed"
            }
        },
        {
            "fullUrl": "urn:uuid:926f36b0-1e71-3bd0-9b6d-a89ce880bd56",
            "resource": {
                "resourceType": "FamilyMemberHistory",
                "id": "926f36b0-1e71-3bd0-9b6d-a89ce880bd56",
                "identifier": [
                    {
                        "system": "urn:ietf:rfc:3986",
                        "value": "urn:uuid:d42ebf70-5c89-11db-b0de-0855200c9a66"
                    }
                ],
                "status": "completed",
                "relationship": {
                    "coding": [
                        {
                            "code": "FTH",
                            "display": "Father",
                            "system": "urn:oid:2.16.840.1.113883.5.111"
                        }
                    ]
                },
                "sex": {
                    "coding": [
                        {
                            "code": "M",
                            "display": "Male",
                            "system": "urn:oid:2.16.840.1.113883.1.11.1"
                        }
                    ]
                },
                "bornString": "1910",
                "condition": [
                    {
                        "code": {
                            "coding": [
                                {
                                    "code": "22298006",
                                    "display": "Myocardial infarction",
                                    "system": "http://snomed.info/sct"
                                }
                            ]
                        },
                        "contributedToDeath": true,
                        "onsetAge": {
                            "value": 57,
                            "system": "http://unitsofmeasure.org",
                            "code": "a"
                        }
                    },
                    {
                        "code": {
                            "coding": [
                                {
                                    "code": "44054006",
                                    "display": "Diabetes mellitus type 2",
                                    "system": "http://snomed.info/sct"
                                }
                            ]
                        },
                        "onsetAge": {
                            "value": 40,
                            "system": "http://unitsofmeasure.org",
                            "code": "a"
                        }
                    }
                ],
                "patient": {
                    "reference": "Patient/2745d583-e3d1-3f88-8b21-7b59adb60779"
                }
            },
            "request": {
                "method": "PUT",
                "url": "FamilyMemberHistory/926f36b0-1e71-3bd0-9b6d-a89ce880bd56"
            }
        },
        {
            "fullUrl": "urn:uuid:dc0f228c-f7da-3832-b217-0cfc2fb44318",
            "resource": {
                "resourceType": "Consent",
                "id": "dc0f228c-f7da-3832-b217-0cfc2fb44318",
                "identifier": [
                    {
                        "system": "urn:ietf:rfc:3986",
                        "value": "urn:uuid:af6ebdf2-d996-11e2-a5b8-f23c91aec05e"
                    }
                ],
                "status": "active",
                "scope": {
                    "coding": [
                        {
                            "system": "http://terminology.hl7.org/CodeSystem/consentscope",
                            "code": "adr"
                        }
                    ]
                },
                "category": [
                    {
                        "coding": [
                            {
                                "code": "45473-6",
                                "display": "advance directive - living will",
                                "system": "http://loinc.org"
                            }
                        ]
                    }
                ],
                "dateTime": "2011-02-19",
                "provision": {
                    "code": [
                        {
                            "coding": [
                                {
                                    "code": "304253006",
                                    "display": "Do not resuscitate",
                                    "system": "http://snomed.info/sct"
                                }
                            ]
                        }
                    ]
                },
                "patient": {
                    "reference": "Patient/2745d583-e3d1-3f88-8b21-7b59adb60779"
                },
                "sourceReference": {
                    "reference": "DocumentReference/0913b609-6f9b-3d6b-9a1c-8e69fb9414f6"
                },
                "performer": [
                    {
                        "reference": "Practitioner/4533ef76-e935-3802-8cb7-6a076afafc08"
                    }
                ]
            },
            "request": {
                "method": "PUT",
                "url": "Consent/dc0f228c-f7da-3832-b217-0cfc2fb44318"
            }
        },
        {
            "fullUrl": "urn:uuid:0913b609-6f9b-3d6b-9a1c-8e69fb9414f6",
            "resource": {
                "resourceType": "DocumentReference",
                "id": "0913b609-6f9b-3d6b-9a1c-8e69fb9414f6",
                "status": "current",
                "content": [
                    {
                        "attachment": {
                            "contentType": "application/pdf",
                            "url": "AdvanceDirective.b50b7910.pdf"
                        }
                    }
                ]
            },
            "request": {
                "method": "PUT",
                "url": "DocumentReference/0913b609-6f9b-3d6b-9a1c-8e69fb9414f6"
            }
        },
        {
            "fullUrl": "urn:uuid:4533ef76-e935-3802-8cb7-6a076afafc08",
            "resource": {
                "resourceType": "Practitioner",
                "meta": {
                    "profile": [
                        "http://hl7.org/fhir/us/core/StructureDefinition/us-core-practitioner"
                    ]
                },
                "id": "4533ef76-e935-3802-8cb7-6a076afafc08",
                "identifier": [
                    {
                        "system": "urn:ietf:rfc:3986",
                        "value": "urn:uuid:20cf14fb-b65c-4c8c-a54d-b0cca834c18c"
                    }
                ],
                "name": [
                    {
                        "family": "Nightingale",
                        "given": [
                            "Nurse"
                        ],
                        "suffix": [
                            "RN"
                        ]
                    }
                ],
                "qualification": [
                    {
                        "code": {
                            "coding": [
                                {
                                    "code": "163W00000X",
                                    "display": "Registered nurse",
                                    "system": "http://nucc.org/provider-taxonomy"
                                }
                            ]
                        }
                    }
                ]
            },
            "request": {
                "method": "PUT",
                "url": "Practitioner/4533ef76-e935-3802-8cb7-6a076afafc08"
            }
        },
        {
            "fullUrl": "urn:uuid:a11d679f-914c-301e-85c1-f8e33b5c6702",
            "resource": {
                "resourceType": "Device",
                "id": "a11d679f-914c-301e-85c1-f8e33b5c6702",
                "identifier": [
                    {
                        "system": "urn:ietf:rfc:3986",
                        "value": "urn:uuid:3e414708-0e61-4d48-8863-484a2d473a02"
                    }
                ],
                "type": {
                    "coding": [
                        {
                            "code": "40388003",
                            "display": "Implant",
                            "system": "http://snomed.info/sct"
                        }
                    ]
                }
            },
            "request": {
                "method": "PUT",
                "url": "Device/a11d679f-914c-301e-85c1-f8e33b5c6702"
            }
        },
        {
            "fullUrl": "urn:uuid:83bb3b95-3cab-3376-a3ac-b35864ed46b4",
            "resource": {
                "resourceType": "Device",
                "id": "83bb3b95-3cab-3376-a3ac-b35864ed46b4",
                "identifier": [
                    {
                        "system": "urn:ietf:rfc:3986",
                        "value": "urn:uuid:39b5f1b4-a8e1-4ad7-8849-0deab10c97b1"
                    }
                ],
                "type": {
                    "coding": [
                        {
                            "code": "14106009",
                            "display": "cardiac pacemaker, device (physical object)",
                            "system": "http://snomed.info/sct"
                        }
                    ]
                },
                "manufacturer": "Good Health Durable Medical Equipment"
            },
            "request": {
                "method": "PUT",
                "url": "Device/83bb3b95-3cab-3376-a3ac-b35864ed46b4"
            }
        },
        {
            "fullUrl": "urn:uuid:f2a0170c-027b-3697-a19b-d8aab956ca3a",
            "resource": {
                "resourceType": "Device",
                "id": "f2a0170c-027b-3697-a19b-d8aab956ca3a",
                "identifier": [
                    {
                        "system": "urn:ietf:rfc:3986",
                        "value": "urn:uuid:39b5f1b4-a8e1-4ad7-8849-0deab10c97b1"
                    }
                ],
                "type": {
                    "coding": [
                        {
                            "code": "303406003",
                            "display": "upper gastrointestinal prosthesis (physical object)",
                            "system": "http://snomed.info/sct"
                        }
                    ]
                },
                "manufacturer": "Good Health Durable Medical Equipment"
            },
            "request": {
                "method": "PUT",
                "url": "Device/f2a0170c-027b-3697-a19b-d8aab956ca3a"
            }
        },
        {
            "fullUrl": "urn:uuid:abc9a623-9cf2-37ba-b0d7-8f2112046037",
            "resource": {
                "resourceType": "Device",
                "id": "abc9a623-9cf2-37ba-b0d7-8f2112046037",
                "identifier": [
                    {
                        "system": "urn:ietf:rfc:3986",
                        "value": "urn:uuid:cf75f5be-1da0-4256-8276-94b7fc73f9f9"
                    }
                ],
                "type": {
                    "coding": [
                        {
                            "code": "87405001",
                            "display": "cane",
                            "system": "http://snomed.info/sct"
                        }
                    ]
                },
                "manufacturer": "Good Health Durable Medical Equipment"
            },
            "request": {
                "method": "PUT",
                "url": "Device/abc9a623-9cf2-37ba-b0d7-8f2112046037"
            }
        },
        {
            "fullUrl": "urn:uuid:c01c6b5d-0c57-33d5-bde8-9fcca9d5202f",
            "resource": {
                "resourceType": "Procedure",
                "meta": {
                    "profile": [
                        "http://hl7.org/fhir/us/core/StructureDefinition/us-core-procedure"
                    ]
                },
                "id": "c01c6b5d-0c57-33d5-bde8-9fcca9d5202f",
                "identifier": [
                    {
                        "system": "urn:ietf:rfc:3986",
                        "value": "urn:uuid:d5b614bd-01ce-410d-8726-e1fd01dcc72a"
                    }
                ],
                "status": "completed",
                "code": {
                    "coding": [
                        {
                            "code": "103716009",
                            "display": "Stent Placement",
                            "system": "http://snomed.info/sct"
                        }
                    ]
                },
                "performedDateTime": "2013-05-12",
                "bodySite": [
                    {
                        "coding": [
                            {
                                "code": "28273000",
                                "display": "bile duct",
                                "system": "http://snomed.info/sct"
                            }
                        ]
                    }
                ],
                "subject": {
                    "reference": "Patient/2745d583-e3d1-3f88-8b21-7b59adb60779"
                },
                "performer": [
                    {
                        "actor": {
                            "reference": "Organization/8d8751fd-3baa-3525-a506-7464ec4687f4"
                        }
                    }
                ]
            },
            "request": {
                "method": "PUT",
                "url": "Procedure/c01c6b5d-0c57-33d5-bde8-9fcca9d5202f"
            }
        },
        {
            "fullUrl": "urn:uuid:8d8751fd-3baa-3525-a506-7464ec4687f4",
            "resource": {
                "resourceType": "Organization",
                "id": "8d8751fd-3baa-3525-a506-7464ec4687f4",
                "identifier": [
                    {
                        "system": "urn:ietf:rfc:3986",
                        "value": "urn:uuid:2.16.840.1.113883.19.5"
                    }
                ],
                "name": "Community Health and Hospitals",
                "address": [
                    {
                        "line": [
                            "1003 Health Care Drive"
                        ],
                        "city": "Ann Arbor",
                        "state": "MI",
                        "country": "US",
                        "postalCode": "02368"
                    }
                ],
                "telecom": [
                    {
                        "system": "phone",
                        "value": "+1(555)-555-5005",
                        "use": "work"
                    }
                ]
            },
            "request": {
                "method": "PUT",
                "url": "Organization/8d8751fd-3baa-3525-a506-7464ec4687f4"
            }
        },
        {
            "fullUrl": "urn:uuid:ebd801b5-9113-3479-b35b-71002aae6c28",
            "resource": {
                "resourceType": "Coverage",
                "id": "ebd801b5-9113-3479-b35b-71002aae6c28",
                "identifier": [
                    {
                        "system": "urn:ietf:rfc:3986",
                        "value": "urn:uuid:3e676a50-7aac-11db-9fe1-0800200c9a66"
                    }
                ],
                "status": "active"
            },
            "request": {
                "method": "PUT",
                "url": "Coverage/ebd801b5-9113-3479-b35b-71002aae6c28"
            }
        },
        {
            "fullUrl": "urn:uuid:0e77a66a-90d3-3de5-b04c-23d30f74dada",
            "resource": {
                "resourceType": "Organization",
                "id": "0e77a66a-90d3-3de5-b04c-23d30f74dada",
                "name": "Good Health Insurance",
                "address": [
                    {
                        "use": "work",
                        "line": [
                            "9009 Health Drive"
                        ],
                        "city": "Portland",
                        "state": "OR",
                        "postalCode": "99123"
                    }
                ],
                "telecom": [
                    {
                        "system": "phone",
                        "value": "+1(555)555-1515",
                        "use": "work"
                    }
                ]
            },
            "request": {
                "method": "PUT",
                "url": "Organization/0e77a66a-90d3-3de5-b04c-23d30f74dada"
            }
        },
        {
            "fullUrl": "urn:uuid:4ebf1fbf-092c-3d87-94cc-b4e9e3bc954d",
            "resource": {
                "resourceType": "DocumentReference",
                "id": "4ebf1fbf-092c-3d87-94cc-b4e9e3bc954d",
                "type": {
                    "coding": [
                        {
                            "code": "34133-9",
                            "display": "Summarization of Episode Note",
                            "system": "http://loinc.org"
                        }
                    ]
                },
                "date": "2020-08-27T04:06:08.443Z",
                "status": "current",
                "content": [
                    {
                        "attachment": {
                            "contentType": "text/plain",
                            "data": "",
                            "hash": "bM+nOGe+u6Xm0oHvVhBe2RL2TWo="
                        }
                    }
                ]
            },
            "request": {
                "method": "PUT",
                "url": "DocumentReference/4ebf1fbf-092c-3d87-94cc-b4e9e3bc954d"
            }
        }
    ]
}