{
    "resourceType": "Bundle",
    "type": "batch",
    "entry": [
        {
            "fullUrl": "urn:uuid:7220a301-b238-39ef-9e58-7dfbf5cfe8c4",
            "resource": {
                "resourceType": "Composition",
                "id": "7220a301-b238-39ef-9e58-7dfbf5cfe8c4",
                "identifier": {
                    "use": "official",
                    "value": "TT101"
                },
                "status": "final",
                "type": {
                    "coding": [
                        {
                            "code": "34133-9",
                            "display": "Summarization of Episode Note",
                            "system": "http://loinc.org"
                        }
                    ]
                },
                "date": "2022-10-06T15:59:00.000Z",
                "title": "Data for Alice Newman, starting 10/06/1922, ending 10/06/2022",
                "confidentiality": "N",
                "event": [
                    {
                        "period": {
                            "start": "1922-10-06"
                        }
                    }
                ],
                "section": [
                    {
                        "title": "ALLERGIES AND ADVERSE REACTIONS",
                        "text": {
                            "status": "generated",
                            "div": "<div xmlns=\"http://www.w3.org/1999/xhtml\">ALLERGIES AND ADVERSE REACTIONS</div>"
                        },
                        "code": {
                            "coding": [
                                {
                                    "code": "48765-2",
                                    "display": "Allergies, adverse reactions, alerts",
                                    "system": "http://loinc.org"
                                }
                            ]
                        },
                        "mode": "snapshot",
                        "entry": [
                            {
                                "reference": "AllergyIntolerance/b5cee37f-9c36-3d3d-99df-77f02d1bcbcd",
                                "display": "Ampicillin"
                            },
                            {
                                "reference": "AllergyIntolerance/8913042e-e42c-3909-bca8-2da19cd45b22",
                                "display": "Penicillin G benzathine"
                            }
                        ]
                    },
                    {
                        "title": "ASSESSMENTS",
                        "text": {
                            "status": "generated",
                            "div": "<div xmlns=\"http://www.w3.org/1999/xhtml\">ASSESSMENTS</div>"
                        },
                        "code": {
                            "coding": [
                                {
                                    "code": "51848-0",
                                    "display": "Assessments",
                                    "system": "http://loinc.org"
                                }
                            ]
                        },
                        "mode": "snapshot"
                    },
                    {
                        "title": "ENCOUNTERS",
                        "text": {
                            "status": "generated",
                            "div": "<div xmlns=\"http://www.w3.org/1999/xhtml\">ENCOUNTERS</div>"
                        },
                        "code": {
                            "coding": [
                                {
                                    "code": "46240-8",
                                    "display": "Encounters",
                                    "system": "http://loinc.org"
                                }
                            ]
                        },
                        "mode": "snapshot",
                        "entry": [
                            {
                                "reference": "Encounter/fe156dec-b2e9-38f5-aa06-3288043362ef"
                            }
                        ]
                    },
                    {
                        "title": "Functional Status",
                        "text": {
                            "status": "generated",
                            "div": "<div xmlns=\"http://www.w3.org/1999/xhtml\">Functional Status</div>"
                        },
                        "code": {
                            "coding": [
                                {
                                    "code": "47420-5",
                                    "display": "Functional Status",
                                    "system": "http://loinc.org"
                                }
                            ]
                        },
                        "mode": "snapshot"
                    },
                    {
                        "title": "Goal Section",
                        "text": {
                            "status": "generated",
                            "div": "<div xmlns=\"http://www.w3.org/1999/xhtml\">Goal Section</div>"
                        },
                        "code": {
                            "coding": [
                                {
                                    "code": "61146-7",
                                    "display": "Goals",
                                    "system": "http://loinc.org"
                                }
                            ]
                        },
                        "mode": "snapshot"
                    },
                    {
                        "title": "Health Concerns Section",
                        "text": {
                            "status": "generated",
                            "div": "<div xmlns=\"http://www.w3.org/1999/xhtml\">Health Concerns Section</div>"
                        },
                        "code": {
                            "coding": [
                                {
                                    "code": "75310-3",
                                    "display": "Health Concerns Document",
                                    "system": "http://loinc.org"
                                }
                            ]
                        },
                        "mode": "snapshot"
                    },
                    {
                        "title": "IMMUNIZATIONS",
                        "text": {
                            "status": "generated",
                            "div": "<div xmlns=\"http://www.w3.org/1999/xhtml\">IMMUNIZATIONS</div>"
                        },
                        "code": {
                            "coding": [
                                {
                                    "code": "11369-6",
                                    "display": "Immunizations",
                                    "system": "http://loinc.org"
                                }
                            ]
                        },
                        "mode": "snapshot",
                        "entry": [
                            {
                                "reference": "Immunization/6f59b6ff-1406-3272-8a15-dc17c88cd85f"
                            },
                            {
                                "reference": "Immunization/76337939-8c82-390e-98df-9554e2427f05"
                            },
                            {
                                "reference": "Immunization/327b495b-f621-36b7-9810-e385a069406e"
                            }
                        ]
                    },
                    {
                        "title": "Implants",
                        "text": {
                            "status": "generated",
                            "div": "<div xmlns=\"http://www.w3.org/1999/xhtml\">Implants</div>"
                        },
                        "code": {
                            "coding": [
                                {
                                    "code": "46264-8",
                                    "display": "Medical Equipment",
                                    "system": "http://loinc.org"
                                }
                            ]
                        },
                        "mode": "snapshot",
                        "entry": [
                            {
                                "reference": "Device/e5ce5c69-43e5-38ee-89bb-ec0e53496856"
                            }
                        ]
                    },
                    {
                        "title": "MEDICATIONS",
                        "text": {
                            "status": "generated",
                            "div": "<div xmlns=\"http://www.w3.org/1999/xhtml\">MEDICATIONS</div>"
                        },
                        "code": {
                            "coding": [
                                {
                                    "code": "10160-0",
                                    "display": "History of medication use",
                                    "system": "http://loinc.org"
                                }
                            ]
                        },
                        "mode": "snapshot",
                        "entry": [
                            {
                                "reference": "MedicationStatement/bcd604d9-177f-3fdb-b26f-80f4fec671b6"
                            },
                            {
                                "reference": "MedicationStatement/914ceafc-07d5-3d2a-b670-7973349250eb"
                            },
                            {
                                "reference": "MedicationStatement/97c6fab5-6de9-3762-861d-fe1002d90f22"
                            },
                            {
                                "reference": "MedicationStatement/1e0d9d7e-94ab-31f9-8d6a-22fdcad87cc2"
                            }
                        ]
                    },
                    {
                        "title": "MENTAL STATUS",
                        "text": {
                            "status": "generated",
                            "div": "<div xmlns=\"http://www.w3.org/1999/xhtml\">MENTAL STATUS</div>"
                        },
                        "code": {
                            "coding": [
                                {
                                    "code": "10190-7",
                                    "display": "MENTAL STATUS",
                                    "system": "http://loinc.org"
                                }
                            ]
                        },
                        "mode": "snapshot"
                    },
                    {
                        "title": "Plan of Treatment",
                        "text": {
                            "status": "generated",
                            "div": "<div xmlns=\"http://www.w3.org/1999/xhtml\">Plan of Treatment</div>"
                        },
                        "code": {
                            "coding": [
                                {
                                    "code": "18776-5",
                                    "display": "Plan of Care",
                                    "system": "http://loinc.org"
                                }
                            ]
                        },
                        "mode": "snapshot",
                        "entry": [
                            {
                                "reference": "CarePlan/792ab3af-cff7-3d12-b2b3-f5729b40b461"
                            }
                        ]
                    },
                    {
                        "title": "Problem List",
                        "text": {
                            "status": "generated",
                            "div": "<div xmlns=\"http://www.w3.org/1999/xhtml\">Problem List</div>"
                        },
                        "code": {
                            "coding": [
                                {
                                    "code": "11450-4",
                                    "display": "Problem List",
                                    "system": "http://loinc.org"
                                }
                            ]
                        },
                        "mode": "snapshot",
                        "entry": [
                            {
                                "reference": "Condition/fa63cefb-ef74-3a94-99bc-5c3c01ee7ebd"
                            },
                            {
                                "reference": "Condition/a3f55b0e-aa6c-3d20-910b-bd22797901a9"
                            },
                            {
                                "reference": "Condition/c8b98eb0-abb4-37cb-9149-513af41a3402"
                            },
                            {
                                "reference": "Condition/899e99b8-e1f2-3ecd-9a9d-69d53e09b55e"
                            },
                            {
                                "reference": "Condition/d3c19a11-5495-309b-ada2-dc13a683d1aa"
                            }
                        ]
                    },
                    {
                        "title": "PROCEDURES",
                        "text": {
                            "status": "generated",
                            "div": "<div xmlns=\"http://www.w3.org/1999/xhtml\">PROCEDURES</div>"
                        },
                        "code": {
                            "coding": [
                                {
                                    "code": "47519-4",
                                    "display": "History of Procedures",
                                    "system": "http://loinc.org"
                                }
                            ]
                        },
                        "mode": "snapshot",
                        "entry": [
                            {
                                "reference": "Procedure/d2e2dde3-6720-31e7-b5b3-e55ea84e9afd"
                            },
                            {
                                "reference": "Procedure/c00837f0-22d5-300c-b93b-0ffc0a4e6d36"
                            }
                        ]
                    },
                    {
                        "title": "Notes section",
                        "text": {
                            "status": "generated",
                            "div": "<div xmlns=\"http://www.w3.org/1999/xhtml\">Notes section</div>"
                        },
                        "code": {
                            "coding": [
                                {
                                    "code": "11506-3",
                                    "display": "Progress Note",
                                    "system": "http://loinc.org"
                                }
                            ]
                        },
                        "mode": "snapshot"
                    },
                    {
                        "title": "Results",
                        "text": {
                            "status": "generated",
                            "div": "<div xmlns=\"http://www.w3.org/1999/xhtml\">Results</div>"
                        },
                        "code": {
                            "coding": [
                                {
                                    "code": "30954-2",
                                    "display": "Relevant diagnostic tests and/or laboratory data",
                                    "system": "http://loinc.org"
                                }
                            ]
                        },
                        "mode": "snapshot",
                        "entry": [
                            {
                                "reference": "DiagnosticReport/61d3378f-71a4-3054-94fa-71d577fa8666"
                            },
                            {
                                "reference": "DiagnosticReport/7238ac28-4b04-3743-9405-cbc33b058a58"
                            }
                        ]
                    },
                    {
                        "title": "Social History",
                        "text": {
                            "status": "generated",
                            "div": "<div xmlns=\"http://www.w3.org/1999/xhtml\">Social History</div>"
                        },
                        "code": {
                            "coding": [
                                {
                                    "code": "29762-2",
                                    "display": "Social History",
                                    "system": "http://loinc.org"
                                }
                            ]
                        },
                        "mode": "snapshot",
                        "entry": [
                            {
                                "reference": "Observation/b368718c-55df-36bb-9d28-069e32c83207",
                                "display": "Assertion"
                            },
                            {
                                "reference": "Observation/709c0bb8-8f5b-388b-99ea-a64ab5caec1f"
                            },
                            {
                                "reference": "Observation/57b6b838-470d-34ff-8ef0-679a3e40b47e"
                            }
                        ]
                    },
                    {
                        "title": "Vitals",
                        "text": {
                            "status": "generated",
                            "div": "<div xmlns=\"http://www.w3.org/1999/xhtml\">Vitals</div>"
                        },
                        "code": {
                            "coding": [
                                {
                                    "code": "8716-3",
                                    "display": "Vital Signs",
                                    "system": "http://loinc.org"
                                }
                            ]
                        },
                        "mode": "snapshot",
                        "entry": [
                            {
                                "reference": "Observation/7aafd289-1ca6-358f-96aa-3007cd7ecce1",
                                "display": "Inhaled oxygen concentration"
                            },
                            {
                                "reference": "Observation/8484410f-1274-3dbf-9474-1c35a0fa6290",
                                "display": "Blood pressure panel with all children optional"
                            },
                            {
                                "reference": "Observation/26b487e9-f6b3-3ec8-9429-1f9d68191bba",
                                "display": "Body height"
                            },
                            {
                                "reference": "Observation/29df401f-71cd-3db1-ae9d-58ca43179c2d",
                                "display": "Body Temperature"
                            },
                            {
                                "reference": "Observation/9a805705-cc50-33c8-9789-b574f62c1cfc",
                                "display": "Oxygen saturation in Arterial blood by Pulse oximetry"
                            },
                            {
                                "reference": "Observation/e22b2219-7c4e-3b7f-a570-035462be9b4d",
                                "display": "Heart Rate"
                            },
                            {
                                "reference": "Observation/ded9347c-a4f5-349c-86ff-1890b01c02c1",
                                "display": "Respiratory Rate"
                            },
                            {
                                "reference": "Observation/001ad12b-d972-3c32-9dde-d8942c463cf6",
                                "display": "Body weight"
                            },
                            {
                                "reference": "Observation/8195a62a-47de-3058-95dd-46d4b787c505",
                                "display": "Body weight"
                            },
                            {
                                "reference": "Observation/e0728d50-c25e-3924-b6d7-27daa19c85ac",
                                "display": "Blood pressure panel with all children optional"
                            },
                            {
                                "reference": "Observation/ee364c00-e8cc-38f4-a7d5-fb7568d8098f",
                                "display": "Body height"
                            },
                            {
                                "reference": "Observation/b4fbcb97-060f-3d7d-b4b9-bbadf84bcd54",
                                "display": "Blood pressure panel with all children optional"
                            }
                        ]
                    },
                    {
                        "title": "REASON FOR REFERRAL",
                        "text": {
                            "status": "generated",
                            "div": "<div xmlns=\"http://www.w3.org/1999/xhtml\">REASON FOR REFERRAL</div>"
                        },
                        "code": {
                            "coding": [
                                {
                                    "code": "42349-1",
                                    "display": "Reason for Referral",
                                    "system": "http://loinc.org"
                                }
                            ]
                        },
                        "mode": "snapshot"
                    }
                ],
                "subject": {
                    "reference": "Patient/f40da2df-7505-315a-9acb-55513a02c37b"
                },
                "custodian": {
                    "reference": "Organization/3bfc3db2-cf06-379a-88cb-03444c877632"
                },
                "author": [
                    {
                        "reference": "Practitioner/17763d72-7526-32d1-a535-e60859682208"
                    },
                    {
                        "reference": "Practitioner/ead05b2c-8f43-3a9f-946d-1553f5aaa816"
                    }
                ]
            },
            "request": {
                "method": "PUT",
                "url": "Composition/7220a301-b238-39ef-9e58-7dfbf5cfe8c4"
            }
        },
        {
            "fullUrl": "urn:uuid:3bfc3db2-cf06-379a-88cb-03444c877632",
            "resource": {
                "resourceType": "Organization",
                "id": "3bfc3db2-cf06-379a-88cb-03444c877632",
                "identifier": [
                    {
                        "system": "http://hl7.org/fhir/sid/us-npi",
                        "value": "99999999"
                    }
                ],
                "active": true,
                "name": "Iora Health",
                "address": [
                    {
                        "line": [
                            "101 Tremont Street, 6th Floor"
                        ],
                        "city": "Boston",
                        "state": "MA",
                        "country": "US",
                        "postalCode": "02108"
                    }
                ],
                "telecom": [
                    {
                        "system": "phone",
                        "value": "617-454-4672",
                        "use": "work"
                    }
                ]
            },
            "request": {
                "method": "PUT",
                "url": "Organization/3bfc3db2-cf06-379a-88cb-03444c877632"
            }
        },
        {
            "fullUrl": "urn:uuid:17763d72-7526-32d1-a535-e60859682208",
            "resource": {
                "resourceType": "Practitioner",
                "meta": {
                    "profile": [
                        "http://hl7.org/fhir/us/core/StructureDefinition/us-core-practitioner"
                    ]
                },
                "id": "17763d72-7526-32d1-a535-e60859682208",
                "identifier": [
                    {
                        "system": "http://hl7.org/fhir/sid/us-npi",
                        "value": "99999999"
                    }
                ],
                "name": [
                    {
                        "family": "Davis",
                        "given": [
                            "Albert"
                        ]
                    }
                ],
                "address": [
                    {
                        "line": [
                            "2472, Rocky  place"
                        ],
                        "city": "Beaverton",
                        "state": "OR",
                        "country": "US",
                        "postalCode": "97006"
                    }
                ],
                "telecom": [
                    {
                        "system": "phone",
                        "value": "555-555-1002",
                        "use": "work"
                    }
                ],
                "qualification": [
                    {
                        "code": {
                            "coding": [
                                {
                                    "code": "200000000X",
                                    "display": "Neighborhood Physicians Practice",
                                    "system": "http://nucc.org/provider-taxonomy"
                                }
                            ]
                        }
                    }
                ]
            },
            "request": {
                "method": "PUT",
                "url": "Practitioner/17763d72-7526-32d1-a535-e60859682208"
            }
        },
        {
            "fullUrl": "urn:uuid:604a79b8-d538-3959-a3ef-5ac66ee03e08",
            "resource": {
                "resourceType": "Location",
                "id": "604a79b8-d538-3959-a3ef-5ac66ee03e08",
                "identifier": [
                    {
                        "system": "http://hl7.org/fhir/sid/us-npi",
                        "value": "99999999"
                    }
                ],
                "address": {
                    "line": [
                        "2472, Rocky  place"
                    ],
                    "city": "Beaverton",
                    "state": "OR",
                    "country": "US",
                    "postalCode": "97006"
                },
                "telecom": [
                    {
                        "system": "phone",
                        "value": "555-555-1002",
                        "use": "work"
                    }
                ],
                "type": [
                    {
                        "coding": [
                            {
                                "code": "200000000X",
                                "display": "Neighborhood Physicians Practice",
                                "system": "http://nucc.org/provider-taxonomy"
                            }
                        ]
                    }
                ]
            },
            "request": {
                "method": "PUT",
                "url": "Location/604a79b8-d538-3959-a3ef-5ac66ee03e08"
            }
        },
        {
            "fullUrl": "urn:uuid:ead05b2c-8f43-3a9f-946d-1553f5aaa816",
            "resource": {
                "resourceType": "Practitioner",
                "meta": {
                    "profile": [
                        "http://hl7.org/fhir/us/core/StructureDefinition/us-core-practitioner"
                    ]
                },
                "id": "ead05b2c-8f43-3a9f-946d-1553f5aaa816",
                "identifier": [
                    {
                        "system": "http://hl7.org/fhir/sid/us-npi",
                        "value": "999999943252"
                    }
                ],
                "name": [
                    {
                        "family": "Davis",
                        "given": [
                            "Tracy"
                        ]
                    }
                ],
                "address": [
                    {
                        "line": [
                            "2472, Rocky  place"
                        ],
                        "city": "Beaverton",
                        "state": "OR",
                        "country": "US",
                        "postalCode": "97006"
                    }
                ],
                "telecom": [
                    {
                        "system": "phone",
                        "value": "555-555-1002",
                        "use": "work"
                    }
                ]
            },
            "request": {
                "method": "PUT",
                "url": "Practitioner/ead05b2c-8f43-3a9f-946d-1553f5aaa816"
            }
        },
        {
            "fullUrl": "urn:uuid:f40da2df-7505-315a-9acb-55513a02c37b",
            "resource": {
                "resourceType": "Patient",
                "meta": {
                    "profile": [
                        "http://hl7.org/fhir/us/core/StructureDefinition/us-core-patient"
                    ]
                },
                "id": "f40da2df-7505-315a-9acb-55513a02c37b",
                "identifier": [
                    {
                        "system": "urn:oid:2.16.840.1.113883.19.5.99999.2",
                        "value": "998991"
                    }
                ],
                "name": [
                    {
                        "use": "old",
                        "family": "Newman",
                        "given": [
                            "Alice",
                            "Jones",
                            "Alicia"
                        ]
                    }
                ],
                "active": true,
                "birthDate": "1970-05-01",
                "gender": "female",
                "extension": [
                    {
                        "url": "http://hl7.org/fhir/us/core/StructureDefinition/us-core-race",
                        "extension": [
                            {
                                "url": "ombCategory",
                                "valueCoding": {
                                    "code": "2106-3",
                                    "display": "White",
                                    "system": "urn:oid:2.16.840.1.113883.6.238"
                                }
                            },
                            {
                                "url": "detailed",
                                "valueCoding": {
                                    "code": "2108-9",
                                    "display": "European",
                                    "system": "urn:oid:2.16.840.1.113883.6.238"
                                }
                            },
                            {
                                "url": "text",
                                "valueString": "Mixed"
                            }
                        ]
                    },
                    {
                        "url": "http://hl7.org/fhir/us/core/StructureDefinition/us-core-ethnicity",
                        "extension": [
                            {
                                "url": "ombCategory",
                                "valueCoding": {
                                    "code": "2186-5",
                                    "display": "Not Hispanic or Latino",
                                    "system": "urn:oid:2.16.840.1.113883.6.238"
                                }
                            },
                            {
                                "url": "text",
                                "valueString": "Not Hispanic or Latino"
                            }
                        ]
                    },
                    {
                        "url": "http://hl7.org/fhir/us/core/StructureDefinition/us-core-birthsex",
                        "valueCode": "F"
                    }
                ],
                "address": [
                    {
                        "line": [
                            "1357, Amber Dr"
                        ],
                        "city": "Beaverton",
                        "state": "OR",
                        "country": "US",
                        "postalCode": "97006",
                        "period": {
                            "start": "1970-05-01"
                        }
                    }
                ],
                "telecom": [
                    {
                        "system": "phone",
                        "value": "(555)723-1544",
                        "use": "home"
                    },
                    {
                        "system": "phone",
                        "value": "(555)777-1234",
                        "use": "mobile"
                    }
                ],
                "communication": [
                    {
                        "language": {
                            "coding": [
                                {
                                    "system": "urn:ietf:bcp:47",
                                    "code": "en",
                                    "display": "English"
                                }
                            ]
                        },
                        "preferred": true
                    }
                ],
                "generalPractitioner": [
                    {
                        "reference": "Practitioner/17763d72-7526-32d1-a535-e60859682208"
                    }
                ],
                "managingOrganization": {
                    "reference": "Organization/3bfc3db2-cf06-379a-88cb-03444c877632"
                }
            },
            "request": {
                "method": "PUT",
                "url": "Patient/f40da2df-7505-315a-9acb-55513a02c37b"
            }
        },
        {
            "resource": {
                "resourceType": "Provenance",
                "id": "c41344e6-ba6e-379a-a1a1-8c93956220c3",
                "target": [
                    {
                        "reference": "Patient/f40da2df-7505-315a-9acb-55513a02c37b"
                    },
                    {
                        "reference": "CareTeam/17763d72-7526-32d1-a535-e60859682208"
                    },
                    {
                        "reference": "AllergyIntolerance/c491621e-4dc4-3ad4-bc34-a26f9e64494b"
                    },
                    {
                        "reference": "AllergyIntolerance/60e2a952-7815-37de-8165-95d890927913"
                    },
                    {
                        "reference": "MedicationRequest/68c75497-73f1-35e8-84bb-00d9a41e3cb1"
                    },
                    {
                        "reference": "MedicationRequest/76900716-c152-3c92-b234-43b56a7a7789"
                    },
                    {
                        "reference": "MedicationRequest/2a7ed216-154e-3520-83f5-a6ec1ac9a561"
                    },
                    {
                        "reference": "MedicationRequest/21d1dfb7-14e1-3ed6-83b8-67846ce9bdc9"
                    },
                    {
                        "reference": "Condition/ffb4b66f-cffb-3afe-a9e7-d75534d088f3"
                    },
                    {
                        "reference": "Condition/e85a5f6b-a9b4-3f86-a9d7-7095e485351b"
                    },
                    {
                        "reference": "Condition/081341a3-b007-34b2-ad29-d010dad2ddf6"
                    },
                    {
                        "reference": "Condition/e2717651-459a-32eb-a348-427144ccf9cd"
                    },
                    {
                        "reference": "Condition/767e0192-6340-39d6-9075-7520af641c48"
                    },
                    {
                        "reference": "DiagnosticReport/3098563c-a70e-3269-a64c-fed109c6caa7"
                    },
                    {
                        "reference": "Observation/e2fddc67-5ff1-3be6-a29c-582ef2c80b48"
                    },
                    {
                        "reference": "Observation/a80d7ba5-c4f1-342c-8a33-52f4725860b3"
                    },
                    {
                        "reference": "Observation/0b46c7dd-7dd5-3c83-bb44-f16ef38bf6ad"
                    },
                    {
                        "reference": "Observation/ee982966-7c07-3da5-97bc-e84d278f7903"
                    },
                    {
                        "reference": "Observation/44b4da4f-0e71-351b-8f07-6c65cd1ce117"
                    },
                    {
                        "reference": "Observation/2762e523-7e71-3fa6-8af1-ccac311a98cb"
                    },
                    {
                        "reference": "Observation/5899f65d-0e7f-3d72-989c-920417d1aa9b"
                    },
                    {
                        "reference": "DiagnosticReport/2d51bc1a-3d4a-327c-9cb6-2465a3b55b47"
                    },
                    {
                        "reference": "Observation/13e029b4-87ee-3016-93da-ca6352d2e6fb"
                    },
                    {
                        "reference": "Observation/e547f21e-9f3b-3368-b546-05393f577394"
                    },
                    {
                        "reference": "Observation/dd5a0dd1-e58c-34b6-8460-b18686169d0c"
                    },
                    {
                        "reference": "Observation/fcc079c2-3b24-374c-98f0-15156bf19553"
                    },
                    {
                        "reference": "Observation/bd02d10a-b656-34db-b3a5-ae0fd97194f9"
                    },
                    {
                        "reference": "Observation/f3f76197-1bda-31f3-817e-206f72626013"
                    },
                    {
                        "reference": "Observation/4893d915-1bce-32c9-a50a-4432570b4404"
                    },
                    {
                        "reference": "Observation/889886cd-0df5-3ea5-afb3-39cb8e8f4f18"
                    },
                    {
                        "reference": "Observation/ba364293-9fd9-34e0-8709-3bae3dd5fa45"
                    },
                    {
                        "reference": "Observation/c9bc6a0e-a670-3b3a-834b-d61f976642fc"
                    },
                    {
                        "reference": "Observation/b8a8e92d-fc94-3cba-8b13-62b635aee332"
                    },
                    {
                        "reference": "Observation/4b2bada9-e138-3497-a020-5547b9e76921"
                    },
                    {
                        "reference": "Observation/dbfddaed-1b11-317b-a3ff-33b829f723d1"
                    },
                    {
                        "reference": "Observation/11c099a0-2fc0-3ad7-9cf0-d7a720ea5cfe"
                    },
                    {
                        "reference": "Observation/a4bd6cbd-b9f8-3780-b7a8-9d3adda61e52"
                    },
                    {
                        "reference": "Observation/c1762f6c-b896-3183-ad94-0aa1c4beab15"
                    },
                    {
                        "reference": "Procedure/efc450f1-bf82-3df2-91ab-52a0ab34168f"
                    },
                    {
                        "reference": "Procedure/dc960e37-29ed-34c8-a651-c832b045ed95"
                    },
                    {
                        "reference": "CareTeam/4674986d-1fe2-32b3-843f-1a9edd0d6a9b"
                    },
                    {
                        "reference": "Condition/b51e6869-e733-3d23-9cf6-a50dd83ac818"
                    },
                    {
                        "reference": "Goal/8ce55388-9d68-3702-9064-be0267bb6e3d"
                    },
                    {
                        "reference": "Immunization/6f59b6ff-1406-3272-8a15-dc17c88cd85f"
                    },
                    {
                        "reference": "Immunization/76337939-8c82-390e-98df-9554e2427f05"
                    },
                    {
                        "reference": "Immunization/327b495b-f621-36b7-9810-e385a069406e"
                    },
                    {
                        "reference": "Device/296600cb-6150-34cf-b1d0-9eacc07cc506"
                    },
                    {
                        "reference": "DocumentReference/5b9abe1a-8825-3fb5-841f-5b93365d0979"
                    },
                    {
                        "reference": "DocumentReference/f9c029fa-2399-34cc-a7b6-007e2fe77b0a"
                    }
                ],
                "recorded": "2019-10-16T09:58:28.000Z",
                "agent": [
                    {
                        "type": {
                            "coding": [
                                {
                                    "system": "http://terminology.hl7.org/CodeSystem/provenance-participant-type",
                                    "code": "author",
                                    "display": "Author"
                                }
                            ],
                            "text": "Author"
                        },
                        "who": {
                            "reference": "Practitioner/17763d72-7526-32d1-a535-e60859682208",
                            "display": "Albert Davis"
                        },
                        "onBehalfOf": {
                            "reference": "Organization/3bfc3db2-cf06-379a-88cb-03444c877632",
                            "display": "Iora Health"
                        }
                    },
                    {
                        "type": {
                            "coding": [
                                {
                                    "system": "http://hl7.org/fhir/us/core/CodeSystem/us-core-provenance-participant-type",
                                    "code": "transmitter",
                                    "display": "Transmitter"
                                }
                            ],
                            "text": "Transmitter"
                        },
                        "who": {
                            "reference": "Practitioner/ead05b2c-8f43-3a9f-946d-1553f5aaa816",
                            "display": "Tracy Davis"
                        },
                        "onBehalfOf": {
                            "reference": "Organization/3bfc3db2-cf06-379a-88cb-03444c877632",
                            "display": "Iora Health"
                        }
                    }
                ]
            },
            "fullUrl": "urn:uuid:c41344e6-ba6e-379a-a1a1-8c93956220c3",
            "request": {
                "method": "PUT",
                "url": "Provenance/c41344e6-ba6e-379a-a1a1-8c93956220c3"
            }
        },
        {
            "fullUrl": "urn:uuid:17763d72-7526-32d1-a535-e60859682208",
            "resource": {
                "resourceType": "CareTeam",
                "id": "17763d72-7526-32d1-a535-e60859682208",
                "identifier": [
                    {
                        "system": "http://hl7.org/fhir/sid/us-npi",
                        "value": "99999999"
                    }
                ],
                "name": "USCoreCareTeam",
                "status": "active",
                "telecom": [
                    {
                        "system": "phone",
                        "value": "555-555-1002",
                        "use": "work"
                    }
                ],
                "participant": [
                    {
                        "role": [
                            {
                                "coding": [
                                    {
                                        "system": "http://snomed.info/sct",
                                        "code": "116154003",
                                        "display": "Patient"
                                    }
                                ],
                                "text": "Patient"
                            }
                        ],
                        "member": {
                            "reference": "Patient/f40da2df-7505-315a-9acb-55513a02c37b"
                        }
                    },
                    {
                        "role": [
                            {
                                "coding": [
                                    {
                                        "system": "http://snomed.info/sct",
                                        "code": "432100008",
                                        "display": "Health coach"
                                    }
                                ],
                                "text": "Healthcare professional (occupation)"
                            }
                        ],
                        "member": {
                            "reference": "Practitioner/ead05b2c-8f43-3a9f-946d-1553f5aaa816",
                            "display": "Tracy Davis"
                        }
                    },
                    {
                        "role": [
                            {
                                "coding": [
                                    {
                                        "system": "http://snomed.info/sct",
                                        "code": "309343006",
                                        "display": "Physician (occupation)"
                                    }
                                ],
                                "text": "Physician (occupation)"
                            }
                        ],
                        "member": {
                            "reference": "Practitioner/17763d72-7526-32d1-a535-e60859682208",
                            "display": "Albert Davis"
                        }
                    }
                ],
                "subject": {
                    "reference": "Patient/f40da2df-7505-315a-9acb-55513a02c37b"
                }
            },
            "request": {
                "method": "PUT",
                "url": "CareTeam/17763d72-7526-32d1-a535-e60859682208"
            }
        },
        {
            "fullUrl": "urn:uuid:c491621e-4dc4-3ad4-bc34-a26f9e64494b",
            "resource": {
                "resourceType": "AllergyIntolerance",
                "id": "c491621e-4dc4-3ad4-bc34-a26f9e64494b",
                "identifier": [
                    {
                        "system": "urn:ietf:rfc:3986",
                        "value": "urn:uuid:1e61c6a2-367f-4351-99d5-66438353a620"
                    }
                ],
                "clinicalStatus": {
                    "coding": [
                        {
                            "system": "http://terminology.hl7.org/CodeSystem/allergyintolerance-clinical",
                            "code": "active"
                        }
                    ]
                },
                "verificationStatus": {
                    "coding": [
                        {
                            "system": "http://terminology.hl7.org/CodeSystem/allergyintolerance-verification",
                            "code": "confirmed",
                            "display": "Confirmed"
                        }
                    ]
                },
                "code": {
                    "coding": [
                        {
                            "code": "247472004",
                            "display": "Hives",
                            "system": "http://snomed.info/sct"
                        }
                    ]
                },
                "reaction": [
                    {
                        "substance": {
                            "coding": [
                                {
                                    "code": "733",
                                    "display": "Ampicillin",
                                    "system": "http://www.nlm.nih.gov/research/umls/rxnorm"
                                }
                            ]
                        },
                        "manifestation": [
                            {
                                "coding": [
                                    {
                                        "code": "247472004",
                                        "display": "Hives",
                                        "system": "http://snomed.info/sct"
                                    }
                                ]
                            }
                        ]
                    }
                ],
                "onsetDateTime": "1980-10-05",
                "patient": {
                    "reference": "Patient/f40da2df-7505-315a-9acb-55513a02c37b"
                }
            },
            "request": {
                "method": "PUT",
                "url": "AllergyIntolerance/c491621e-4dc4-3ad4-bc34-a26f9e64494b"
            }
        },
        {
            "fullUrl": "urn:uuid:60e2a952-7815-37de-8165-95d890927913",
            "resource": {
                "resourceType": "AllergyIntolerance",
                "id": "60e2a952-7815-37de-8165-95d890927913",
                "identifier": [
                    {
                        "system": "urn:ietf:rfc:3986",
                        "value": "urn:uuid:ef8665ee-9242-4121-86f7-23739c13041f"
                    }
                ],
                "clinicalStatus": {
                    "coding": [
                        {
                            "system": "http://terminology.hl7.org/CodeSystem/allergyintolerance-clinical",
                            "code": "active"
                        }
                    ]
                },
                "verificationStatus": {
                    "coding": [
                        {
                            "system": "http://terminology.hl7.org/CodeSystem/allergyintolerance-verification",
                            "code": "confirmed",
                            "display": "Confirmed"
                        }
                    ]
                },
                "code": {
                    "coding": [
                        {
                            "code": "247472004",
                            "display": "Hives",
                            "system": "http://snomed.info/sct"
                        }
                    ]
                },
                "reaction": [
                    {
                        "substance": {
                            "coding": [
                                {
                                    "code": "7980",
                                    "display": "Penicillin G benzathine",
                                    "system": "http://www.nlm.nih.gov/research/umls/rxnorm"
                                }
                            ]
                        },
                        "manifestation": [
                            {
                                "coding": [
                                    {
                                        "code": "247472004",
                                        "display": "Hives",
                                        "system": "http://snomed.info/sct"
                                    }
                                ]
                            }
                        ]
                    }
                ],
                "onsetDateTime": "1980-10-05",
                "patient": {
                    "reference": "Patient/f40da2df-7505-315a-9acb-55513a02c37b"
                }
            },
            "request": {
                "method": "PUT",
                "url": "AllergyIntolerance/60e2a952-7815-37de-8165-95d890927913"
            }
        },
        {
            "fullUrl": "urn:uuid:3b771915-fb38-3dc7-b089-c78bffddca49",
            "resource": {
                "resourceType": "MedicationStatement",
                "id": "3b771915-fb38-3dc7-b089-c78bffddca49",
                "identifier": [
                    {
                        "system": "urn:ietf:rfc:3986",
                        "value": "urn:uuid:d1b81761-aa31-467b-a3c4-9ef64b0cba97"
                    }
                ],
                "status": "active",
                "effectivePeriod": {
                    "start": "2015-06-22"
                },
                "dosage": [
                    {
                        "text": "Inject 1 syringe intramuscularly once a week",
                        "doseAndRate": [
                            {
                                "doseQuantity": {
                                    "value": 1
                                }
                            }
                        ]
                    }
                ],
                "subject": {
                    "reference": "Patient/f40da2df-7505-315a-9acb-55513a02c37b"
                },
                "medicationReference": {
                    "reference": "Medication/a6491cac-c1ee-3c02-a78e-063c467a9350"
                }
            },
            "request": {
                "method": "PUT",
                "url": "MedicationStatement/3b771915-fb38-3dc7-b089-c78bffddca49"
            }
        },
        {
            "fullUrl": "urn:uuid:a6491cac-c1ee-3c02-a78e-063c467a9350",
            "resource": {
                "resourceType": "Medication",
                "id": "a6491cac-c1ee-3c02-a78e-063c467a9350",
                "code": {
                    "coding": [
                        {
                            "code": "731241",
                            "display": "Aranesp (in polysorbate) 500 mcg/mL syringe",
                            "system": "http://www.nlm.nih.gov/research/umls/rxnorm"
                        }
                    ]
                }
            },
            "request": {
                "method": "PUT",
                "url": "Medication/a6491cac-c1ee-3c02-a78e-063c467a9350"
            }
        },
        {
            "fullUrl": "urn:uuid:68c75497-73f1-35e8-84bb-00d9a41e3cb1",
            "resource": {
                "resourceType": "MedicationRequest",
                "id": "68c75497-73f1-35e8-84bb-00d9a41e3cb1",
                "identifier": [
                    {
                        "system": "urn:ietf:rfc:3986",
                        "value": "urn:uuid:d1b81761-aa31-467b-a3c4-9ef64b0cba97"
                    }
                ],
                "intent": "order",
                "status": "active",
                "reportedBoolean": false,
                "authoredOn": "2015-06-22",
                "dosageInstruction": [
                    {
                        "text": "Inject 1 syringe intramuscularly once a week",
                        "doseAndRate": [
                            {
                                "doseQuantity": {
                                    "value": 1
                                }
                            }
                        ]
                    }
                ],
                "subject": {
                    "reference": "Patient/f40da2df-7505-315a-9acb-55513a02c37b"
                },
                "medicationReference": {
                    "reference": "Medication/a6491cac-c1ee-3c02-a78e-063c467a9350"
                },
                "requester": {
                    "reference": "Practitioner/77feb0a0-c8a6-342a-98da-5b3375442250"
                }
            },
            "request": {
                "method": "PUT",
                "url": "MedicationRequest/68c75497-73f1-35e8-84bb-00d9a41e3cb1"
            }
        },
        {
            "fullUrl": "urn:uuid:77feb0a0-c8a6-342a-98da-5b3375442250",
            "resource": {
                "resourceType": "Practitioner",
                "meta": {
                    "profile": [
                        "http://hl7.org/fhir/us/core/StructureDefinition/us-core-practitioner"
                    ]
                },
                "id": "77feb0a0-c8a6-342a-98da-5b3375442250",
                "identifier": [
                    {
                        "system": "http://hl7.org/fhir/sid/us-npi",
                        "value": "99999999"
                    }
                ],
                "name": [
                    {
                        "family": "Zelaznik",
                        "given": [
                            "Steve"
                        ]
                    }
                ],
                "telecom": [
                    {
                        "system": "phone",
                        "value": "UNK",
                        "use": "work"
                    }
                ],
                "qualification": [
                    {
                        "code": {
                            "coding": [
                                {
                                    "code": "UNK"
                                }
                            ]
                        }
                    }
                ]
            },
            "request": {
                "method": "PUT",
                "url": "Practitioner/77feb0a0-c8a6-342a-98da-5b3375442250"
            }
        },
        {
            "fullUrl": "urn:uuid:76900716-c152-3c92-b234-43b56a7a7789",
            "resource": {
                "resourceType": "MedicationStatement",
                "id": "76900716-c152-3c92-b234-43b56a7a7789",
                "identifier": [
                    {
                        "system": "urn:ietf:rfc:3986",
                        "value": "urn:uuid:7fa0d966-875a-4759-a93a-42ca174c30ab"
                    }
                ],
                "status": "active",
                "dosage": [
                    {
                        "text": "Take 1 tablet by mouth once a day",
                        "doseAndRate": [
                            {
                                "doseQuantity": {
                                    "value": 1
                                }
                            }
                        ]
                    }
                ],
                "subject": {
                    "reference": "Patient/f40da2df-7505-315a-9acb-55513a02c37b"
                },
                "medicationReference": {
                    "reference": "Medication/3a5b2405-cbc2-3370-a18d-a4c96b12a816"
                }
            },
            "request": {
                "method": "PUT",
                "url": "MedicationStatement/76900716-c152-3c92-b234-43b56a7a7789"
            }
        },
        {
            "fullUrl": "urn:uuid:3a5b2405-cbc2-3370-a18d-a4c96b12a816",
            "resource": {
                "resourceType": "Medication",
                "id": "3a5b2405-cbc2-3370-a18d-a4c96b12a816",
                "code": {
                    "coding": [
                        {
                            "code": "308460",
                            "display": "azithromycin 250 mg tablet",
                            "system": "http://www.nlm.nih.gov/research/umls/rxnorm"
                        }
                    ]
                }
            },
            "request": {
                "method": "PUT",
                "url": "Medication/3a5b2405-cbc2-3370-a18d-a4c96b12a816"
            }
        },
        {
            "fullUrl": "urn:uuid:76900716-c152-3c92-b234-43b56a7a7789",
            "resource": {
                "resourceType": "MedicationRequest",
                "id": "76900716-c152-3c92-b234-43b56a7a7789",
                "identifier": [
                    {
                        "system": "urn:ietf:rfc:3986",
                        "value": "urn:uuid:7fa0d966-875a-4759-a93a-42ca174c30ab"
                    }
                ],
                "intent": "plan",
                "status": "active",
                "reportedBoolean": true,
                "dosageInstruction": [
                    {
                        "text": "Take 1 tablet by mouth once a day",
                        "doseAndRate": [
                            {
                                "doseQuantity": {
                                    "value": 1
                                }
                            }
                        ]
                    }
                ],
                "subject": {
                    "reference": "Patient/f40da2df-7505-315a-9acb-55513a02c37b"
                },
                "requester": {
                    "reference": "Patient/f40da2df-7505-315a-9acb-55513a02c37b"
                },
                "medicationReference": {
                    "reference": "Medication/3a5b2405-cbc2-3370-a18d-a4c96b12a816"
                }
            },
            "request": {
                "method": "PUT",
                "url": "MedicationRequest/76900716-c152-3c92-b234-43b56a7a7789"
            }
        },
        {
            "fullUrl": "urn:uuid:2479d477-67c6-349e-bcf3-d7aa9fa6a0e3",
            "resource": {
                "resourceType": "MedicationStatement",
                "id": "2479d477-67c6-349e-bcf3-d7aa9fa6a0e3",
                "identifier": [
                    {
                        "system": "urn:ietf:rfc:3986",
                        "value": "urn:uuid:5561d15a-d6ec-4d07-80fc-a221c8f08655"
                    }
                ],
                "status": "active",
                "effectivePeriod": {
                    "start": "2015-06-22"
                },
                "dosage": [
                    {
                        "text": "Inject 1 unit twice a day as directed",
                        "doseAndRate": [
                            {
                                "doseQuantity": {
                                    "value": 1
                                }
                            }
                        ]
                    }
                ],
                "subject": {
                    "reference": "Patient/f40da2df-7505-315a-9acb-55513a02c37b"
                },
                "medicationReference": {
                    "reference": "Medication/0ca58338-80c4-3637-8f7f-2ad7a174d09c"
                }
            },
            "request": {
                "method": "PUT",
                "url": "MedicationStatement/2479d477-67c6-349e-bcf3-d7aa9fa6a0e3"
            }
        },
        {
            "fullUrl": "urn:uuid:0ca58338-80c4-3637-8f7f-2ad7a174d09c",
            "resource": {
                "resourceType": "Medication",
                "id": "0ca58338-80c4-3637-8f7f-2ad7a174d09c",
                "code": {
                    "coding": [
                        {
                            "code": "309090",
                            "display": "ceftriaxone 10 gram recon soln",
                            "system": "http://www.nlm.nih.gov/research/umls/rxnorm"
                        }
                    ]
                }
            },
            "request": {
                "method": "PUT",
                "url": "Medication/0ca58338-80c4-3637-8f7f-2ad7a174d09c"
            }
        },
        {
            "fullUrl": "urn:uuid:2a7ed216-154e-3520-83f5-a6ec1ac9a561",
            "resource": {
                "resourceType": "MedicationRequest",
                "id": "2a7ed216-154e-3520-83f5-a6ec1ac9a561",
                "identifier": [
                    {
                        "system": "urn:ietf:rfc:3986",
                        "value": "urn:uuid:5561d15a-d6ec-4d07-80fc-a221c8f08655"
                    }
                ],
                "intent": "order",
                "status": "active",
                "reportedBoolean": false,
                "authoredOn": "2015-06-22",
                "dosageInstruction": [
                    {
                        "text": "Inject 1 unit twice a day as directed",
                        "doseAndRate": [
                            {
                                "doseQuantity": {
                                    "value": 1
                                }
                            }
                        ]
                    }
                ],
                "subject": {
                    "reference": "Patient/f40da2df-7505-315a-9acb-55513a02c37b"
                },
                "medicationReference": {
                    "reference": "Medication/0ca58338-80c4-3637-8f7f-2ad7a174d09c"
                },
                "requester": {
                    "reference": "Practitioner/77feb0a0-c8a6-342a-98da-5b3375442250"
                }
            },
            "request": {
                "method": "PUT",
                "url": "MedicationRequest/2a7ed216-154e-3520-83f5-a6ec1ac9a561"
            }
        },
        {
            "fullUrl": "urn:uuid:4f70138e-27fc-30b4-b0d2-143d2de3ae20",
            "resource": {
                "resourceType": "MedicationStatement",
                "id": "4f70138e-27fc-30b4-b0d2-143d2de3ae20",
                "identifier": [
                    {
                        "system": "urn:ietf:rfc:3986",
                        "value": "urn:uuid:9a6c5c84-8c74-4755-a41d-19dbf070d01e"
                    }
                ],
                "status": "active",
                "effectivePeriod": {
                    "start": "2015-06-22"
                },
                "dosage": [
                    {
                        "text": "Take 1 tablet by mouth as needed",
                        "doseAndRate": [
                            {
                                "doseQuantity": {
                                    "value": 1
                                }
                            }
                        ]
                    }
                ],
                "subject": {
                    "reference": "Patient/f40da2df-7505-315a-9acb-55513a02c37b"
                },
                "medicationReference": {
                    "reference": "Medication/f1bf406b-00cb-333d-bfe9-1c9e0a070162"
                }
            },
            "request": {
                "method": "PUT",
                "url": "MedicationStatement/4f70138e-27fc-30b4-b0d2-143d2de3ae20"
            }
        },
        {
            "fullUrl": "urn:uuid:f1bf406b-00cb-333d-bfe9-1c9e0a070162",
            "resource": {
                "resourceType": "Medication",
                "id": "f1bf406b-00cb-333d-bfe9-1c9e0a070162",
                "code": {
                    "coding": [
                        {
                            "code": "209459",
                            "display": "Tylenol Extra Strength 500 mg tablet",
                            "system": "http://www.nlm.nih.gov/research/umls/rxnorm"
                        }
                    ]
                }
            },
            "request": {
                "method": "PUT",
                "url": "Medication/f1bf406b-00cb-333d-bfe9-1c9e0a070162"
            }
        },
        {
            "fullUrl": "urn:uuid:21d1dfb7-14e1-3ed6-83b8-67846ce9bdc9",
            "resource": {
                "resourceType": "MedicationRequest",
                "id": "21d1dfb7-14e1-3ed6-83b8-67846ce9bdc9",
                "identifier": [
                    {
                        "system": "urn:ietf:rfc:3986",
                        "value": "urn:uuid:9a6c5c84-8c74-4755-a41d-19dbf070d01e"
                    }
                ],
                "intent": "order",
                "status": "active",
                "reportedBoolean": false,
                "authoredOn": "2015-06-22",
                "dosageInstruction": [
                    {
                        "text": "Take 1 tablet by mouth as needed",
                        "doseAndRate": [
                            {
                                "doseQuantity": {
                                    "value": 1
                                }
                            }
                        ]
                    }
                ],
                "subject": {
                    "reference": "Patient/f40da2df-7505-315a-9acb-55513a02c37b"
                },
                "medicationReference": {
                    "reference": "Medication/f1bf406b-00cb-333d-bfe9-1c9e0a070162"
                },
                "requester": {
                    "reference": "Practitioner/77feb0a0-c8a6-342a-98da-5b3375442250"
                }
            },
            "request": {
                "method": "PUT",
                "url": "MedicationRequest/21d1dfb7-14e1-3ed6-83b8-67846ce9bdc9"
            }
        },
        {
            "fullUrl": "urn:uuid:ffb4b66f-cffb-3afe-a9e7-d75534d088f3",
            "resource": {
                "resourceType": "Condition",
                "id": "ffb4b66f-cffb-3afe-a9e7-d75534d088f3",
                "identifier": [
                    {
                        "system": "urn:ietf:rfc:3986",
                        "value": "urn:uuid:1.3.6.1.4.1.22812.4.111.0.4.1.32939"
                    }
                ],
                "verificationStatus": {
                    "coding": [
                        {
                            "system": "http://terminology.hl7.org/CodeSystem/condition-ver-status",
                            "code": "confirmed"
                        }
                    ]
                },
                "category": [
                    {
                        "coding": [
                            {
                                "system": "http://snomed.info/sct",
                                "code": "55607006",
                                "display": "Problem"
                            },
                            {
                                "system": "http://terminology.hl7.org/CodeSystem/condition-category",
                                "code": "problem-list-item"
                            }
                        ]
                    }
                ],
                "clinicalStatus": {
                    "coding": [
                        {
                            "system": "http://terminology.hl7.org/CodeSystem/condition-clinical",
                            "code": "inactive"
                        }
                    ]
                },
                "code": {
                    "coding": [
                        {
                            "code": "244.8",
                            "display": "Other specified acquired hypothyroidism",
                            "system": "urn:oid:2.16.840.1.113883.6.103"
                        }
                    ]
                },
                "onsetDateTime": "2006-12-31T05:00:00.000Z",
                "subject": {
                    "reference": "Patient/f40da2df-7505-315a-9acb-55513a02c37b"
                }
            },
            "request": {
                "method": "PUT",
                "url": "Condition/ffb4b66f-cffb-3afe-a9e7-d75534d088f3"
            }
        },
        {
            "fullUrl": "urn:uuid:e85a5f6b-a9b4-3f86-a9d7-7095e485351b",
            "resource": {
                "resourceType": "Condition",
                "id": "e85a5f6b-a9b4-3f86-a9d7-7095e485351b",
                "identifier": [
                    {
                        "system": "urn:ietf:rfc:3986",
                        "value": "urn:uuid:1.3.6.1.4.1.22812.4.111.0.4.1.32940"
                    }
                ],
                "verificationStatus": {
                    "coding": [
                        {
                            "system": "http://terminology.hl7.org/CodeSystem/condition-ver-status",
                            "code": "confirmed"
                        }
                    ]
                },
                "category": [
                    {
                        "coding": [
                            {
                                "system": "http://snomed.info/sct",
                                "code": "55607006",
                                "display": "Problem"
                            },
                            {
                                "system": "http://terminology.hl7.org/CodeSystem/condition-category",
                                "code": "problem-list-item"
                            }
                        ]
                    }
                ],
                "clinicalStatus": {
                    "coding": [
                        {
                            "system": "http://terminology.hl7.org/CodeSystem/condition-clinical",
                            "code": "inactive"
                        }
                    ]
                },
                "code": {
                    "coding": [
                        {
                            "code": "996.81",
                            "display": "Complications of transplanted kidney",
                            "system": "urn:oid:2.16.840.1.113883.6.103"
                        }
                    ]
                },
                "onsetDateTime": "2011-12-31T05:00:00.000Z",
                "subject": {
                    "reference": "Patient/f40da2df-7505-315a-9acb-55513a02c37b"
                }
            },
            "request": {
                "method": "PUT",
                "url": "Condition/e85a5f6b-a9b4-3f86-a9d7-7095e485351b"
            }
        },
        {
            "fullUrl": "urn:uuid:081341a3-b007-34b2-ad29-d010dad2ddf6",
            "resource": {
                "resourceType": "Condition",
                "id": "081341a3-b007-34b2-ad29-d010dad2ddf6",
                "identifier": [
                    {
                        "system": "urn:ietf:rfc:3986",
                        "value": "urn:uuid:1.3.6.1.4.1.22812.4.111.0.4.1.32941"
                    }
                ],
                "verificationStatus": {
                    "coding": [
                        {
                            "system": "http://terminology.hl7.org/CodeSystem/condition-ver-status",
                            "code": "confirmed"
                        }
                    ]
                },
                "category": [
                    {
                        "coding": [
                            {
                                "system": "http://snomed.info/sct",
                                "code": "55607006",
                                "display": "Problem"
                            },
                            {
                                "system": "http://terminology.hl7.org/CodeSystem/condition-category",
                                "code": "problem-list-item"
                            }
                        ]
                    }
                ],
                "clinicalStatus": {
                    "coding": [
                        {
                            "system": "http://terminology.hl7.org/CodeSystem/condition-clinical",
                            "code": "inactive"
                        }
                    ]
                },
                "code": {
                    "coding": [
                        {
                            "code": "780.60",
                            "display": "Fever, unspecified",
                            "system": "urn:oid:2.16.840.1.113883.6.103"
                        }
                    ]
                },
                "onsetDateTime": "2015-06-22T04:00:00.000Z",
                "subject": {
                    "reference": "Patient/f40da2df-7505-315a-9acb-55513a02c37b"
                }
            },
            "request": {
                "method": "PUT",
                "url": "Condition/081341a3-b007-34b2-ad29-d010dad2ddf6"
            }
        },
        {
            "fullUrl": "urn:uuid:e2717651-459a-32eb-a348-427144ccf9cd",
            "resource": {
                "resourceType": "Condition",
                "id": "e2717651-459a-32eb-a348-427144ccf9cd",
                "identifier": [
                    {
                        "system": "urn:ietf:rfc:3986",
                        "value": "urn:uuid:1.3.6.1.4.1.22812.4.111.0.4.1.32938"
                    }
                ],
                "verificationStatus": {
                    "coding": [
                        {
                            "system": "http://terminology.hl7.org/CodeSystem/condition-ver-status",
                            "code": "confirmed"
                        }
                    ]
                },
                "category": [
                    {
                        "coding": [
                            {
                                "system": "http://snomed.info/sct",
                                "code": "55607006",
                                "display": "Problem"
                            },
                            {
                                "system": "http://terminology.hl7.org/CodeSystem/condition-category",
                                "code": "problem-list-item"
                            }
                        ]
                    }
                ],
                "clinicalStatus": {
                    "coding": [
                        {
                            "system": "http://terminology.hl7.org/CodeSystem/condition-clinical",
                            "code": "inactive"
                        }
                    ]
                },
                "code": {
                    "coding": [
                        {
                            "code": "401.9",
                            "display": "Unspecified essential hypertension",
                            "system": "urn:oid:2.16.840.1.113883.6.103"
                        }
                    ]
                },
                "onsetDateTime": "2011-10-05T04:00:00.000Z",
                "subject": {
                    "reference": "Patient/f40da2df-7505-315a-9acb-55513a02c37b"
                }
            },
            "request": {
                "method": "PUT",
                "url": "Condition/e2717651-459a-32eb-a348-427144ccf9cd"
            }
        },
        {
            "fullUrl": "urn:uuid:767e0192-6340-39d6-9075-7520af641c48",
            "resource": {
                "resourceType": "Condition",
                "id": "767e0192-6340-39d6-9075-7520af641c48",
                "identifier": [
                    {
                        "system": "urn:ietf:rfc:3986",
                        "value": "urn:uuid:1.3.6.1.4.1.22812.4.111.0.4.1.32942"
                    }
                ],
                "verificationStatus": {
                    "coding": [
                        {
                            "system": "http://terminology.hl7.org/CodeSystem/condition-ver-status",
                            "code": "confirmed"
                        }
                    ]
                },
                "category": [
                    {
                        "coding": [
                            {
                                "system": "http://snomed.info/sct",
                                "code": "55607006",
                                "display": "Problem"
                            },
                            {
                                "system": "http://terminology.hl7.org/CodeSystem/condition-category",
                                "code": "problem-list-item"
                            }
                        ]
                    }
                ],
                "clinicalStatus": {
                    "coding": [
                        {
                            "system": "http://terminology.hl7.org/CodeSystem/condition-clinical",
                            "code": "inactive"
                        }
                    ]
                },
                "code": {
                    "coding": [
                        {
                            "code": "278.02",
                            "display": "Overweight",
                            "system": "urn:oid:2.16.840.1.113883.6.103"
                        }
                    ]
                },
                "onsetDateTime": "2006-12-31T05:00:00.000Z",
                "subject": {
                    "reference": "Patient/f40da2df-7505-315a-9acb-55513a02c37b"
                }
            },
            "request": {
                "method": "PUT",
                "url": "Condition/767e0192-6340-39d6-9075-7520af641c48"
            }
        },
        {
            "fullUrl": "urn:uuid:3098563c-a70e-3269-a64c-fed109c6caa7",
            "resource": {
                "resourceType": "DiagnosticReport",
                "id": "3098563c-a70e-3269-a64c-fed109c6caa7",
                "identifier": [
                    {
                        "system": "urn:ietf:rfc:3986",
                        "value": "urn:uuid:421b4d5c-fd37-4049-a6d4-a64a06f4a10e"
                    }
                ],
                "status": "final",
                "category": [
                    {
                        "coding": [
                            {
                                "system": "http://terminology.hl7.org/CodeSystem/v2-0074",
                                "code": "LAB",
                                "display": "Laboratory"
                            }
                        ]
                    }
                ],
                "code": {
                    "coding": [
                        {
                            "system": "http://terminology.hl7.org/CodeSystem/v2-0074",
                            "code": "LAB",
                            "display": "Urinanalysis macro (dipstick) panel"
                        }
                    ],
                    "text": "Urinanalysis macro (dipstick) panel"
                },
                "effectivePeriod": {
                    "start": "2015-06-22T00:00:00.000Z",
                    "end": "2015-06-22T00:00:00.000Z"
                },
                "issued": "2015-06-22T00:00:00.000Z",
                "subject": {
                    "reference": "Patient/f40da2df-7505-315a-9acb-55513a02c37b"
                },
                "result": [
                    {
                        "reference": "Observation/e2fddc67-5ff1-3be6-a29c-582ef2c80b48"
                    },
                    {
                        "reference": "Observation/a80d7ba5-c4f1-342c-8a33-52f4725860b3"
                    },
                    {
                        "reference": "Observation/0b46c7dd-7dd5-3c83-bb44-f16ef38bf6ad"
                    },
                    {
                        "reference": "Observation/ee982966-7c07-3da5-97bc-e84d278f7903"
                    },
                    {
                        "reference": "Observation/44b4da4f-0e71-351b-8f07-6c65cd1ce117"
                    },
                    {
                        "reference": "Observation/2762e523-7e71-3fa6-8af1-ccac311a98cb"
                    },
                    {
                        "reference": "Observation/5899f65d-0e7f-3d72-989c-920417d1aa9b"
                    }
                ]
            },
            "request": {
                "method": "PUT",
                "url": "DiagnosticReport/3098563c-a70e-3269-a64c-fed109c6caa7"
            }
        },
        {
            "fullUrl": "urn:uuid:e2fddc67-5ff1-3be6-a29c-582ef2c80b48",
            "resource": {
                "resourceType": "Observation",
                "meta": {
                    "profile": [
                        "http://hl7.org/fhir/us/core/StructureDefinition/us-core-observationresults"
                    ]
                },
                "id": "e2fddc67-5ff1-3be6-a29c-582ef2c80b48",
                "identifier": [
                    {
                        "system": "urn:ietf:rfc:3986",
                        "value": "urn:uuid:e339a548-f1fa-444f-82b5-b1ac32ee9868"
                    }
                ],
                "category": [
                    {
                        "coding": [
                            {
                                "system": "http://terminology.hl7.org/CodeSystem/observation-category",
                                "code": "laboratory"
                            }
                        ]
                    }
                ],
                "status": "final",
                "code": {
                    "coding": [
                        {
                            "code": "5778-6",
                            "display": "Color of Urine",
                            "system": "http://loinc.org"
                        }
                    ]
                },
                "effectiveDateTime": "2015-06-22T00:00:00.000Z",
                "issued": "2015-06-22T00:00:00.000Z",
                "valueString": "Yellow",
                "subject": {
                    "reference": "Patient/f40da2df-7505-315a-9acb-55513a02c37b"
                }
            },
            "request": {
                "method": "PUT",
                "url": "Observation/e2fddc67-5ff1-3be6-a29c-582ef2c80b48"
            }
        },
        {
            "fullUrl": "urn:uuid:a80d7ba5-c4f1-342c-8a33-52f4725860b3",
            "resource": {
                "resourceType": "Observation",
                "meta": {
                    "profile": [
                        "http://hl7.org/fhir/us/core/StructureDefinition/us-core-observationresults"
                    ]
                },
                "id": "a80d7ba5-c4f1-342c-8a33-52f4725860b3",
                "identifier": [
                    {
                        "system": "urn:ietf:rfc:3986",
                        "value": "urn:uuid:01052c59-abcf-4bb1-992f-90dc564b6df4"
                    }
                ],
                "category": [
                    {
                        "coding": [
                            {
                                "system": "http://terminology.hl7.org/CodeSystem/observation-category",
                                "code": "laboratory"
                            }
                        ]
                    }
                ],
                "status": "final",
                "code": {
                    "coding": [
                        {
                            "code": "5767-9",
                            "display": "Appearance of Urine",
                            "system": "http://loinc.org"
                        }
                    ]
                },
                "effectiveDateTime": "2015-06-22T00:00:00.000Z",
                "issued": "2015-06-22T00:00:00.000Z",
                "valueString": "Clear",
                "subject": {
                    "reference": "Patient/f40da2df-7505-315a-9acb-55513a02c37b"
                }
            },
            "request": {
                "method": "PUT",
                "url": "Observation/a80d7ba5-c4f1-342c-8a33-52f4725860b3"
            }
        },
        {
            "fullUrl": "urn:uuid:0b46c7dd-7dd5-3c83-bb44-f16ef38bf6ad",
            "resource": {
                "resourceType": "Observation",
                "meta": {
                    "profile": [
                        "http://hl7.org/fhir/us/core/StructureDefinition/us-core-observationresults"
                    ]
                },
                "id": "0b46c7dd-7dd5-3c83-bb44-f16ef38bf6ad",
                "identifier": [
                    {
                        "system": "urn:ietf:rfc:3986",
                        "value": "urn:uuid:d36b5a0c-a9fe-4229-a67b-d8537e9cab0c"
                    }
                ],
                "category": [
                    {
                        "coding": [
                            {
                                "system": "http://terminology.hl7.org/CodeSystem/observation-category",
                                "code": "laboratory"
                            }
                        ]
                    }
                ],
                "status": "final",
                "code": {
                    "coding": [
                        {
                            "code": "5811-5",
                            "display": "Specific gravity of Urine by Test strip",
                            "system": "http://loinc.org"
                        }
                    ]
                },
                "effectiveDateTime": "2015-06-22T00:00:00.000Z",
                "issued": "2015-06-22T00:00:00.000Z",
                "valueQuantity": {
                    "value": 1.015,
                    "unit": "1",
                    "system": "http://unitsofmeasure.org",
                    "code": "1"
                },
                "referenceRange": [
                    {
                        "low": {
                            "value": 1.005,
                            "unit": "1"
                        },
                        "high": {
                            "value": 1.03,
                            "unit": "1"
                        }
                    }
                ],
                "subject": {
                    "reference": "Patient/f40da2df-7505-315a-9acb-55513a02c37b"
                }
            },
            "request": {
                "method": "PUT",
                "url": "Observation/0b46c7dd-7dd5-3c83-bb44-f16ef38bf6ad"
            }
        },
        {
            "fullUrl": "urn:uuid:ee982966-7c07-3da5-97bc-e84d278f7903",
            "resource": {
                "resourceType": "Observation",
                "meta": {
                    "profile": [
                        "http://hl7.org/fhir/us/core/StructureDefinition/us-core-observationresults"
                    ]
                },
                "id": "ee982966-7c07-3da5-97bc-e84d278f7903",
                "identifier": [
                    {
                        "system": "urn:ietf:rfc:3986",
                        "value": "urn:uuid:032bf91e-312c-4953-9871-b19c5773d2e5"
                    }
                ],
                "category": [
                    {
                        "coding": [
                            {
                                "system": "http://terminology.hl7.org/CodeSystem/observation-category",
                                "code": "laboratory"
                            }
                        ]
                    }
                ],
                "status": "final",
                "code": {
                    "coding": [
                        {
                            "code": "5803-2",
                            "display": "pH of Urine by Test strip",
                            "system": "http://loinc.org"
                        }
                    ]
                },
                "effectiveDateTime": "2015-06-22T00:00:00.000Z",
                "issued": "2015-06-22T00:00:00.000Z",
                "valueQuantity": {
                    "value": 5,
                    "unit": "[pH]",
                    "system": "http://unitsofmeasure.org",
                    "code": "[pH]"
                },
                "referenceRange": [
                    {
                        "low": {
                            "value": 5,
                            "unit": "[pH]"
                        },
                        "high": {
                            "value": 8,
                            "unit": "[pH]"
                        }
                    }
                ],
                "subject": {
                    "reference": "Patient/f40da2df-7505-315a-9acb-55513a02c37b"
                }
            },
            "request": {
                "method": "PUT",
                "url": "Observation/ee982966-7c07-3da5-97bc-e84d278f7903"
            }
        },
        {
            "fullUrl": "urn:uuid:44b4da4f-0e71-351b-8f07-6c65cd1ce117",
            "resource": {
                "resourceType": "Observation",
                "meta": {
                    "profile": [
                        "http://hl7.org/fhir/us/core/StructureDefinition/us-core-observationresults"
                    ]
                },
                "id": "44b4da4f-0e71-351b-8f07-6c65cd1ce117",
                "identifier": [
                    {
                        "system": "urn:ietf:rfc:3986",
                        "value": "urn:uuid:f15cc6b5-d177-4f56-a06e-f2fb0e083423"
                    }
                ],
                "category": [
                    {
                        "coding": [
                            {
                                "system": "http://terminology.hl7.org/CodeSystem/observation-category",
                                "code": "laboratory"
                            }
                        ]
                    }
                ],
                "status": "final",
                "code": {
                    "coding": [
                        {
                            "code": "5792-7",
                            "display": "Glucose[Mass/volume] in urine by test strip",
                            "system": "http://loinc.org"
                        }
                    ]
                },
                "effectiveDateTime": "2015-06-22T00:00:00.000Z",
                "issued": "2015-06-22T00:00:00.000Z",
                "valueQuantity": {
                    "value": 50,
                    "unit": "mg/dL",
                    "system": "http://unitsofmeasure.org",
                    "code": "mg/dL"
                },
                "subject": {
                    "reference": "Patient/f40da2df-7505-315a-9acb-55513a02c37b"
                }
            },
            "request": {
                "method": "PUT",
                "url": "Observation/44b4da4f-0e71-351b-8f07-6c65cd1ce117"
            }
        },
        {
            "fullUrl": "urn:uuid:2762e523-7e71-3fa6-8af1-ccac311a98cb",
            "resource": {
                "resourceType": "Observation",
                "meta": {
                    "profile": [
                        "http://hl7.org/fhir/us/core/StructureDefinition/us-core-observationresults"
                    ]
                },
                "id": "2762e523-7e71-3fa6-8af1-ccac311a98cb",
                "identifier": [
                    {
                        "system": "urn:ietf:rfc:3986",
                        "value": "urn:uuid:cc7c63fc-7548-46a8-ae38-02770020c6d4"
                    }
                ],
                "category": [
                    {
                        "coding": [
                            {
                                "system": "http://terminology.hl7.org/CodeSystem/observation-category",
                                "code": "laboratory"
                            }
                        ]
                    }
                ],
                "status": "final",
                "code": {
                    "coding": [
                        {
                            "code": "5797-6",
                            "display": "Ketones[Mass/volume] in urine by test strip",
                            "system": "http://loinc.org"
                        }
                    ]
                },
                "effectiveDateTime": "2015-06-22T00:00:00.000Z",
                "issued": "2015-06-22T00:00:00.000Z",
                "valueString": "Negative",
                "subject": {
                    "reference": "Patient/f40da2df-7505-315a-9acb-55513a02c37b"
                }
            },
            "request": {
                "method": "PUT",
                "url": "Observation/2762e523-7e71-3fa6-8af1-ccac311a98cb"
            }
        },
        {
            "fullUrl": "urn:uuid:5899f65d-0e7f-3d72-989c-920417d1aa9b",
            "resource": {
                "resourceType": "Observation",
                "meta": {
                    "profile": [
                        "http://hl7.org/fhir/us/core/StructureDefinition/us-core-observationresults"
                    ]
                },
                "id": "5899f65d-0e7f-3d72-989c-920417d1aa9b",
                "identifier": [
                    {
                        "system": "urn:ietf:rfc:3986",
                        "value": "urn:uuid:da4c80aa-8813-49d2-a029-8aa931340fbe"
                    }
                ],
                "category": [
                    {
                        "coding": [
                            {
                                "system": "http://terminology.hl7.org/CodeSystem/observation-category",
                                "code": "laboratory"
                            }
                        ]
                    }
                ],
                "status": "final",
                "code": {
                    "coding": [
                        {
                            "code": "5804-0",
                            "display": "Protein[Mass/volume] in urine by test strip",
                            "system": "http://loinc.org"
                        }
                    ]
                },
                "effectiveDateTime": "2015-06-22T00:00:00.000Z",
                "issued": "2015-06-22T00:00:00.000Z",
                "valueQuantity": {
                    "value": 100,
                    "unit": "mg/dL",
                    "system": "http://unitsofmeasure.org",
                    "code": "mg/dL"
                },
                "subject": {
                    "reference": "Patient/f40da2df-7505-315a-9acb-55513a02c37b"
                }
            },
            "request": {
                "method": "PUT",
                "url": "Observation/5899f65d-0e7f-3d72-989c-920417d1aa9b"
            }
        },
        {
            "fullUrl": "urn:uuid:2d51bc1a-3d4a-327c-9cb6-2465a3b55b47",
            "resource": {
                "resourceType": "DiagnosticReport",
                "id": "2d51bc1a-3d4a-327c-9cb6-2465a3b55b47",
                "identifier": [
                    {
                        "system": "urn:ietf:rfc:3986",
                        "value": "urn:uuid:8a175dbf-acc0-4911-b55c-441e676781a8"
                    }
                ],
                "status": "final",
                "category": [
                    {
                        "coding": [
                            {
                                "system": "http://terminology.hl7.org/CodeSystem/v2-0074",
                                "code": "LAB",
                                "display": "Laboratory"
                            }
                        ]
                    }
                ],
                "code": {
                    "coding": [
                        {
                            "system": "http://terminology.hl7.org/CodeSystem/v2-0074",
                            "code": "LAB",
                            "display": "Chest X-ray 2 Views"
                        }
                    ],
                    "text": "Chest X-ray 2 Views"
                },
                "effectivePeriod": {
                    "start": "2015-06-22T00:00:00.000Z",
                    "end": "2015-06-22T00:00:00.000Z"
                },
                "issued": "2015-06-22T00:00:00.000Z",
                "subject": {
                    "reference": "Patient/f40da2df-7505-315a-9acb-55513a02c37b"
                },
                "result": [
                    {
                        "reference": "Observation/13e029b4-87ee-3016-93da-ca6352d2e6fb"
                    }
                ]
            },
            "request": {
                "method": "PUT",
                "url": "DiagnosticReport/2d51bc1a-3d4a-327c-9cb6-2465a3b55b47"
            }
        },
        {
            "fullUrl": "urn:uuid:13e029b4-87ee-3016-93da-ca6352d2e6fb",
            "resource": {
                "resourceType": "Observation",
                "meta": {
                    "profile": [
                        "http://hl7.org/fhir/us/core/StructureDefinition/us-core-observationresults"
                    ]
                },
                "id": "13e029b4-87ee-3016-93da-ca6352d2e6fb",
                "identifier": [
                    {
                        "system": "urn:ietf:rfc:3986",
                        "value": "urn:uuid:f4117fab-3693-41be-9eb8-e66b503a75b7"
                    }
                ],
                "category": [
                    {
                        "coding": [
                            {
                                "system": "http://terminology.hl7.org/CodeSystem/observation-category",
                                "code": "laboratory"
                            }
                        ]
                    }
                ],
                "status": "final",
                "code": {
                    "coding": [
                        {
                            "code": "36643-5",
                            "display": "Chest X-ray 2 Views",
                            "system": "http://loinc.org"
                        }
                    ]
                },
                "effectiveDateTime": "2015-06-22T00:00:00.000Z",
                "issued": "2015-06-22T00:00:00.000Z",
                "valueString": "Lungs are not clear, cannot rule out Anemia. Other tests are required to determine the presence or absence of Anemia.",
                "subject": {
                    "reference": "Patient/f40da2df-7505-315a-9acb-55513a02c37b"
                }
            },
            "request": {
                "method": "PUT",
                "url": "Observation/13e029b4-87ee-3016-93da-ca6352d2e6fb"
            }
        },
        {
            "fullUrl": "urn:uuid:e547f21e-9f3b-3368-b546-05393f577394",
            "resource": {
                "resourceType": "Observation",
                "meta": {
                    "profile": [
                        "http://hl7.org/fhir/us/core/StructureDefinition/us-core-observationresults"
                    ]
                },
                "id": "e547f21e-9f3b-3368-b546-05393f577394",
                "category": [
                    {
                        "coding": [
                            {
                                "system": "http://terminology.hl7.org/CodeSystem/observation-category",
                                "code": "social-history"
                            }
                        ]
                    }
                ],
                "status": "final",
                "code": {
                    "coding": [
                        {
                            "code": "ASSERTION",
                            "display": "Assertion",
                            "system": "urn:oid:2.16.840.1.113883.5.4"
                        }
                    ]
                },
                "effectiveDateTime": "2015-06-22T04:00:00.000Z",
                "issued": "2015-06-22T04:00:00.000Z",
                "valueCodeableConcept": {
                    "coding": [
                        {
                            "code": "449868002",
                            "display": "Smokes tobacco daily",
                            "system": "http://snomed.info/sct"
                        }
                    ]
                },
                "subject": {
                    "reference": "Patient/f40da2df-7505-315a-9acb-55513a02c37b"
                }
            },
            "request": {
                "method": "PUT",
                "url": "Observation/e547f21e-9f3b-3368-b546-05393f577394"
            }
        },
        {
            "fullUrl": "urn:uuid:dd5a0dd1-e58c-34b6-8460-b18686169d0c",
            "resource": {
                "resourceType": "Observation",
                "meta": {
                    "profile": [
                        "http://hl7.org/fhir/us/core/StructureDefinition/us-core-observationresults"
                    ]
                },
                "id": "dd5a0dd1-e58c-34b6-8460-b18686169d0c",
                "category": [
                    {
                        "coding": [
                            {
                                "system": "http://terminology.hl7.org/CodeSystem/observation-category",
                                "code": "social-history"
                            }
                        ]
                    }
                ],
                "status": "final",
                "code": {
                    "coding": [
                        {
                            "code": "76689-9",
                            "system": "http://loinc.org"
                        }
                    ]
                },
                "valueCodeableConcept": {
                    "coding": [
                        {
                            "code": "F",
                            "display": "Female",
                            "system": "urn:oid:2.16.840.1.113883.5.1"
                        }
                    ]
                },
                "subject": {
                    "reference": "Patient/f40da2df-7505-315a-9acb-55513a02c37b"
                }
            },
            "request": {
                "method": "PUT",
                "url": "Observation/dd5a0dd1-e58c-34b6-8460-b18686169d0c"
            }
        },
        {
            "fullUrl": "urn:uuid:fcc079c2-3b24-374c-98f0-15156bf19553",
            "resource": {
                "resourceType": "Observation",
                "meta": {
                    "profile": [
                        "http://hl7.org/fhir/us/core/StructureDefinition/us-core-observationresults"
                    ]
                },
                "id": "fcc079c2-3b24-374c-98f0-15156bf19553",
                "category": [
                    {
                        "coding": [
                            {
                                "system": "http://terminology.hl7.org/CodeSystem/observation-category",
                                "code": "social-history"
                            }
                        ]
                    }
                ],
                "status": "final",
                "code": {
                    "coding": [
                        {
                            "code": "72166-2",
                            "system": "http://loinc.org"
                        }
                    ]
                },
                "effectivePeriod": {
                    "start": "2015-06-22T04:00:00.000Z"
                },
                "issued": "2015-06-22T04:00:00.000Z",
                "valueCodeableConcept": {
                    "coding": [
                        {
                            "code": "8517006",
                            "display": "Former Smoker",
                            "system": "http://snomed.info/sct"
                        }
                    ]
                },
                "subject": {
                    "reference": "Patient/f40da2df-7505-315a-9acb-55513a02c37b"
                }
            },
            "request": {
                "method": "PUT",
                "url": "Observation/fcc079c2-3b24-374c-98f0-15156bf19553"
            }
        },
        {
            "fullUrl": "urn:uuid:bd02d10a-b656-34db-b3a5-ae0fd97194f9",
            "resource": {
                "resourceType": "Observation",
                "meta": {
                    "profile": [
                        "http://hl7.org/fhir/us/core/StructureDefinition/us-core-observationresults"
                    ]
                },
                "id": "bd02d10a-b656-34db-b3a5-ae0fd97194f9",
                "identifier": [
                    {
                        "system": "urn:ietf:rfc:3986",
                        "value": "urn:uuid:1.3.6.1.4.1.22812.4.111.0.4.1.0.0"
                    }
                ],
                "category": [
                    {
                        "coding": [
                            {
                                "system": "http://terminology.hl7.org/CodeSystem/observation-category",
                                "code": "vital-signs"
                            }
                        ]
                    }
                ],
                "status": "final",
                "code": {
                    "coding": [
                        {
                            "code": "3150-0",
                            "display": "Inhaled oxygen concentration",
                            "system": "http://loinc.org"
                        }
                    ]
                },
                "effectiveDateTime": "2015-06-02T14:12:00.000Z",
                "issued": "2015-06-02T14:12:00.000Z",
                "valueQuantity": {
                    "value": 36,
                    "unit": "%",
                    "system": "http://unitsofmeasure.org",
                    "code": "%"
                },
                "subject": {
                    "reference": "Patient/f40da2df-7505-315a-9acb-55513a02c37b"
                }
            },
            "request": {
                "method": "PUT",
                "url": "Observation/bd02d10a-b656-34db-b3a5-ae0fd97194f9"
            }
        },
        {
            "fullUrl": "urn:uuid:f3f76197-1bda-31f3-817e-206f72626013",
            "resource": {
                "resourceType": "Observation",
                "meta": {
                    "profile": [
                        "http://hl7.org/fhir/us/core/StructureDefinition/us-core-observationresults"
                    ]
                },
                "id": "f3f76197-1bda-31f3-817e-206f72626013",
                "identifier": [
                    {
                        "system": "urn:ietf:rfc:3986",
                        "value": "urn:uuid:1.3.6.1.4.1.22812.4.111.0.4.1.1"
                    }
                ],
                "category": [
                    {
                        "coding": [
                            {
                                "system": "http://terminology.hl7.org/CodeSystem/observation-category",
                                "code": "vital-signs"
                            }
                        ]
                    }
                ],
                "status": "final",
                "code": {
                    "coding": [
                        {
                            "code": "85354-9",
                            "display": "Blood pressure panel with all children optional",
                            "system": "http://loinc.org"
                        }
                    ]
                },
                "effectiveDateTime": "2015-06-22T23:59:59.000Z",
                "issued": "2015-06-22T23:59:59.000Z",
                "component": [
                    {
                        "code": {
                            "coding": [
                                {
                                    "system": "http://loinc.org",
                                    "code": "8480-6",
                                    "display": "Systolic blood pressure"
                                }
                            ]
                        },
                        "valueQuantity": {
                            "value": 145,
                            "unit": "mmHg",
                            "system": "http://unitsofmeasure.org",
                            "code": "mm[Hg]"
                        }
                    },
                    {
                        "code": {
                            "coding": [
                                {
                                    "system": "http://loinc.org",
                                    "code": "8462-4",
                                    "display": "Diastolic blood pressure"
                                }
                            ]
                        },
                        "valueQuantity": {
                            "value": 88,
                            "unit": "mmHg",
                            "system": "http://unitsofmeasure.org",
                            "code": "mm[Hg]"
                        }
                    }
                ],
                "subject": {
                    "reference": "Patient/f40da2df-7505-315a-9acb-55513a02c37b"
                }
            },
            "request": {
                "method": "PUT",
                "url": "Observation/f3f76197-1bda-31f3-817e-206f72626013"
            }
        },
        {
            "fullUrl": "urn:uuid:4893d915-1bce-32c9-a50a-4432570b4404",
            "resource": {
                "resourceType": "Observation",
                "meta": {
                    "profile": [
                        "http://hl7.org/fhir/us/core/StructureDefinition/us-core-observationresults"
                    ]
                },
                "id": "4893d915-1bce-32c9-a50a-4432570b4404",
                "identifier": [
                    {
                        "system": "urn:ietf:rfc:3986",
                        "value": "urn:uuid:1.3.6.1.4.1.22812.4.111.0.4.1.1.2"
                    }
                ],
                "category": [
                    {
                        "coding": [
                            {
                                "system": "http://terminology.hl7.org/CodeSystem/observation-category",
                                "code": "vital-signs"
                            }
                        ]
                    }
                ],
                "status": "final",
                "code": {
                    "coding": [
                        {
                            "code": "8302-2",
                            "display": "Body height",
                            "system": "http://loinc.org"
                        }
                    ]
                },
                "effectiveDateTime": "2015-06-22T14:05:00.000Z",
                "issued": "2015-06-22T14:05:00.000Z",
                "valueQuantity": {
                    "value": 177,
                    "unit": "cm",
                    "system": "http://unitsofmeasure.org",
                    "code": "cm"
                },
                "subject": {
                    "reference": "Patient/f40da2df-7505-315a-9acb-55513a02c37b"
                }
            },
            "request": {
                "method": "PUT",
                "url": "Observation/4893d915-1bce-32c9-a50a-4432570b4404"
            }
        },
        {
            "fullUrl": "urn:uuid:889886cd-0df5-3ea5-afb3-39cb8e8f4f18",
            "resource": {
                "resourceType": "Observation",
                "meta": {
                    "profile": [
                        "http://hl7.org/fhir/us/core/StructureDefinition/us-core-observationresults"
                    ]
                },
                "id": "889886cd-0df5-3ea5-afb3-39cb8e8f4f18",
                "identifier": [
                    {
                        "system": "urn:ietf:rfc:3986",
                        "value": "urn:uuid:1.3.6.1.4.1.22812.4.111.0.4.1.1.3"
                    }
                ],
                "category": [
                    {
                        "coding": [
                            {
                                "system": "http://terminology.hl7.org/CodeSystem/observation-category",
                                "code": "vital-signs"
                            }
                        ]
                    }
                ],
                "status": "final",
                "code": {
                    "coding": [
                        {
                            "code": "8310-5",
                            "display": "Body Temperature",
                            "system": "http://loinc.org"
                        }
                    ]
                },
                "effectiveDateTime": "2015-06-22T04:00:00.000Z",
                "issued": "2015-06-22T04:00:00.000Z",
                "valueQuantity": {
                    "value": 38,
                    "unit": "Cel",
                    "system": "http://unitsofmeasure.org",
                    "code": "Cel"
                },
                "subject": {
                    "reference": "Patient/f40da2df-7505-315a-9acb-55513a02c37b"
                }
            },
            "request": {
                "method": "PUT",
                "url": "Observation/889886cd-0df5-3ea5-afb3-39cb8e8f4f18"
            }
        },
        {
            "fullUrl": "urn:uuid:ba364293-9fd9-34e0-8709-3bae3dd5fa45",
            "resource": {
                "resourceType": "Observation",
                "meta": {
                    "profile": [
                        "http://hl7.org/fhir/us/core/StructureDefinition/us-core-observationresults"
                    ]
                },
                "id": "ba364293-9fd9-34e0-8709-3bae3dd5fa45",
                "identifier": [
                    {
                        "system": "urn:ietf:rfc:3986",
                        "value": "urn:uuid:1.3.6.1.4.1.22812.4.111.0.4.1.1.4"
                    }
                ],
                "category": [
                    {
                        "coding": [
                            {
                                "system": "http://terminology.hl7.org/CodeSystem/observation-category",
                                "code": "vital-signs"
                            }
                        ]
                    }
                ],
                "status": "final",
                "code": {
                    "coding": [
                        {
                            "code": "59408-5",
                            "display": "Oxygen saturation in Arterial blood by Pulse oximetry",
                            "system": "http://loinc.org"
                        },
                        {
                            "system": "http://loinc.org",
                            "code": "2708-6",
                            "display": "Oxygen saturation in Arterial blood"
                        }
                    ]
                },
                "effectiveDateTime": "2015-06-22T04:00:00.000Z",
                "issued": "2015-06-22T04:00:00.000Z",
                "valueQuantity": {
                    "value": 95,
                    "unit": "%",
                    "system": "http://unitsofmeasure.org",
                    "code": "%"
                },
                "subject": {
                    "reference": "Patient/f40da2df-7505-315a-9acb-55513a02c37b"
                },
                "component": [
                    {
                        "code": {
                            "coding": [
                                {
                                    "system": "http://loinc.org",
                                    "code": "3151-8",
                                    "display": "Inhaled oxygen flow rate"
                                }
                            ],
                            "text": "Inhaled oxygen flow rate"
                        },
                        "dataAbsentReason": {
                            "coding": [
                                {
                                    "system": "http://terminology.hl7.org/CodeSystem/data-absent-reason",
                                    "code": "unknown",
                                    "display": "Unknown"
                                }
                            ],
                            "text": "Unknown"
                        }
                    },
                    {
                        "code": {
                            "coding": [
                                {
                                    "system": "http://loinc.org",
                                    "code": "3150-0",
                                    "display": "Inhaled oxygen concentration"
                                }
                            ],
                            "text": "Inhaled oxygen concentration"
                        },
                        "dataAbsentReason": {
                            "coding": [
                                {
                                    "system": "http://terminology.hl7.org/CodeSystem/data-absent-reason",
                                    "code": "unknown",
                                    "display": "Unknown"
                                }
                            ],
                            "text": "Unknown"
                        }
                    }
                ]
            },
            "request": {
                "method": "PUT",
                "url": "Observation/ba364293-9fd9-34e0-8709-3bae3dd5fa45"
            }
        },
        {
            "fullUrl": "urn:uuid:c9bc6a0e-a670-3b3a-834b-d61f976642fc",
            "resource": {
                "resourceType": "Observation",
                "meta": {
                    "profile": [
                        "http://hl7.org/fhir/us/core/StructureDefinition/us-core-observationresults"
                    ]
                },
                "id": "c9bc6a0e-a670-3b3a-834b-d61f976642fc",
                "identifier": [
                    {
                        "system": "urn:ietf:rfc:3986",
                        "value": "urn:uuid:1.3.6.1.4.1.22812.4.111.0.4.1.1.5"
                    }
                ],
                "category": [
                    {
                        "coding": [
                            {
                                "system": "http://terminology.hl7.org/CodeSystem/observation-category",
                                "code": "vital-signs"
                            }
                        ]
                    }
                ],
                "status": "final",
                "code": {
                    "coding": [
                        {
                            "code": "8867-4",
                            "display": "Heart Rate",
                            "system": "http://loinc.org"
                        }
                    ]
                },
                "effectiveDateTime": "2015-06-22T04:00:00.000Z",
                "issued": "2015-06-22T04:00:00.000Z",
                "valueQuantity": {
                    "value": 80,
                    "unit": "/min",
                    "system": "http://unitsofmeasure.org",
                    "code": "/min"
                },
                "subject": {
                    "reference": "Patient/f40da2df-7505-315a-9acb-55513a02c37b"
                }
            },
            "request": {
                "method": "PUT",
                "url": "Observation/c9bc6a0e-a670-3b3a-834b-d61f976642fc"
            }
        },
        {
            "fullUrl": "urn:uuid:b8a8e92d-fc94-3cba-8b13-62b635aee332",
            "resource": {
                "resourceType": "Observation",
                "meta": {
                    "profile": [
                        "http://hl7.org/fhir/us/core/StructureDefinition/us-core-observationresults"
                    ]
                },
                "id": "b8a8e92d-fc94-3cba-8b13-62b635aee332",
                "identifier": [
                    {
                        "system": "urn:ietf:rfc:3986",
                        "value": "urn:uuid:1.3.6.1.4.1.22812.4.111.0.4.1.1.6"
                    }
                ],
                "category": [
                    {
                        "coding": [
                            {
                                "system": "http://terminology.hl7.org/CodeSystem/observation-category",
                                "code": "vital-signs"
                            }
                        ]
                    }
                ],
                "status": "final",
                "code": {
                    "coding": [
                        {
                            "code": "9279-1",
                            "display": "Respiratory Rate",
                            "system": "http://loinc.org"
                        }
                    ]
                },
                "effectiveDateTime": "2015-06-22T04:00:00.000Z",
                "issued": "2015-06-22T04:00:00.000Z",
                "valueQuantity": {
                    "value": 18,
                    "unit": "/min",
                    "system": "http://unitsofmeasure.org",
                    "code": "/min"
                },
                "subject": {
                    "reference": "Patient/f40da2df-7505-315a-9acb-55513a02c37b"
                }
            },
            "request": {
                "method": "PUT",
                "url": "Observation/b8a8e92d-fc94-3cba-8b13-62b635aee332"
            }
        },
        {
            "fullUrl": "urn:uuid:4b2bada9-e138-3497-a020-5547b9e76921",
            "resource": {
                "resourceType": "Observation",
                "meta": {
                    "profile": [
                        "http://hl7.org/fhir/us/core/StructureDefinition/us-core-observationresults"
                    ]
                },
                "id": "4b2bada9-e138-3497-a020-5547b9e76921",
                "identifier": [
                    {
                        "system": "urn:ietf:rfc:3986",
                        "value": "urn:uuid:1.3.6.1.4.1.22812.4.111.0.4.1.2.0"
                    }
                ],
                "category": [
                    {
                        "coding": [
                            {
                                "system": "http://terminology.hl7.org/CodeSystem/observation-category",
                                "code": "vital-signs"
                            }
                        ]
                    }
                ],
                "status": "final",
                "code": {
                    "coding": [
                        {
                            "code": "29463-7",
                            "display": "Body weight",
                            "system": "http://loinc.org"
                        }
                    ]
                },
                "effectiveDateTime": "2015-06-23T02:05:00.000Z",
                "issued": "2015-06-23T02:05:00.000Z",
                "valueQuantity": {
                    "value": 88,
                    "unit": "kg",
                    "system": "http://unitsofmeasure.org",
                    "code": "kg"
                },
                "subject": {
                    "reference": "Patient/f40da2df-7505-315a-9acb-55513a02c37b"
                }
            },
            "request": {
                "method": "PUT",
                "url": "Observation/4b2bada9-e138-3497-a020-5547b9e76921"
            }
        },
        {
            "fullUrl": "urn:uuid:dbfddaed-1b11-317b-a3ff-33b829f723d1",
            "resource": {
                "resourceType": "Observation",
                "meta": {
                    "profile": [
                        "http://hl7.org/fhir/us/core/StructureDefinition/us-core-observationresults"
                    ]
                },
                "id": "dbfddaed-1b11-317b-a3ff-33b829f723d1",
                "identifier": [
                    {
                        "system": "urn:ietf:rfc:3986",
                        "value": "urn:uuid:1.3.6.1.4.1.22812.4.111.0.4.1.3"
                    }
                ],
                "category": [
                    {
                        "coding": [
                            {
                                "system": "http://terminology.hl7.org/CodeSystem/observation-category",
                                "code": "vital-signs"
                            }
                        ]
                    }
                ],
                "status": "final",
                "code": {
                    "coding": [
                        {
                            "code": "85354-9",
                            "display": "Blood pressure panel with all children optional",
                            "system": "http://loinc.org"
                        }
                    ]
                },
                "effectiveDateTime": "2021-01-28T23:59:59.000Z",
                "issued": "2021-01-28T23:59:59.000Z",
                "component": [
                    {
                        "code": {
                            "coding": [
                                {
                                    "system": "http://loinc.org",
                                    "code": "8480-6",
                                    "display": "Systolic blood pressure"
                                }
                            ]
                        },
                        "valueQuantity": {
                            "value": 145,
                            "unit": "mmHg",
                            "system": "http://unitsofmeasure.org",
                            "code": "mm[Hg]"
                        }
                    },
                    {
                        "code": {
                            "coding": [
                                {
                                    "system": "http://loinc.org",
                                    "code": "8462-4",
                                    "display": "Diastolic blood pressure"
                                }
                            ]
                        },
                        "valueQuantity": {
                            "value": 90,
                            "unit": "mmHg",
                            "system": "http://unitsofmeasure.org",
                            "code": "mm[Hg]"
                        }
                    }
                ],
                "subject": {
                    "reference": "Patient/f40da2df-7505-315a-9acb-55513a02c37b"
                }
            },
            "request": {
                "method": "PUT",
                "url": "Observation/dbfddaed-1b11-317b-a3ff-33b829f723d1"
            }
        },
        {
            "fullUrl": "urn:uuid:11c099a0-2fc0-3ad7-9cf0-d7a720ea5cfe",
            "resource": {
                "resourceType": "Observation",
                "meta": {
                    "profile": [
                        "http://hl7.org/fhir/us/core/StructureDefinition/us-core-observationresults"
                    ]
                },
                "id": "11c099a0-2fc0-3ad7-9cf0-d7a720ea5cfe",
                "identifier": [
                    {
                        "system": "urn:ietf:rfc:3986",
                        "value": "urn:uuid:1.3.6.1.4.1.22812.4.111.0.4.1.3.0"
                    }
                ],
                "category": [
                    {
                        "coding": [
                            {
                                "system": "http://terminology.hl7.org/CodeSystem/observation-category",
                                "code": "vital-signs"
                            }
                        ]
                    }
                ],
                "status": "final",
                "code": {
                    "coding": [
                        {
                            "code": "29463-7",
                            "display": "Body weight",
                            "system": "http://loinc.org"
                        }
                    ]
                },
                "effectiveDateTime": "2021-01-28T05:00:00.000Z",
                "issued": "2021-01-28T05:00:00.000Z",
                "valueQuantity": {
                    "value": 104,
                    "unit": "kg",
                    "system": "http://unitsofmeasure.org",
                    "code": "kg"
                },
                "subject": {
                    "reference": "Patient/f40da2df-7505-315a-9acb-55513a02c37b"
                }
            },
            "request": {
                "method": "PUT",
                "url": "Observation/11c099a0-2fc0-3ad7-9cf0-d7a720ea5cfe"
            }
        },
        {
            "fullUrl": "urn:uuid:a4bd6cbd-b9f8-3780-b7a8-9d3adda61e52",
            "resource": {
                "resourceType": "Observation",
                "meta": {
                    "profile": [
                        "http://hl7.org/fhir/us/core/StructureDefinition/us-core-observationresults"
                    ]
                },
                "id": "a4bd6cbd-b9f8-3780-b7a8-9d3adda61e52",
                "identifier": [
                    {
                        "system": "urn:ietf:rfc:3986",
                        "value": "urn:uuid:1.3.6.1.4.1.22812.4.111.0.4.1.3.3"
                    }
                ],
                "category": [
                    {
                        "coding": [
                            {
                                "system": "http://terminology.hl7.org/CodeSystem/observation-category",
                                "code": "vital-signs"
                            }
                        ]
                    }
                ],
                "status": "final",
                "code": {
                    "coding": [
                        {
                            "code": "8302-2",
                            "display": "Body height",
                            "system": "http://loinc.org"
                        }
                    ]
                },
                "effectiveDateTime": "2021-01-28T05:00:00.000Z",
                "issued": "2021-01-28T05:00:00.000Z",
                "valueQuantity": {
                    "value": 177,
                    "unit": "cm",
                    "system": "http://unitsofmeasure.org",
                    "code": "cm"
                },
                "subject": {
                    "reference": "Patient/f40da2df-7505-315a-9acb-55513a02c37b"
                }
            },
            "request": {
                "method": "PUT",
                "url": "Observation/a4bd6cbd-b9f8-3780-b7a8-9d3adda61e52"
            }
        },
        {
            "fullUrl": "urn:uuid:c1762f6c-b896-3183-ad94-0aa1c4beab15",
            "resource": {
                "resourceType": "Observation",
                "meta": {
                    "profile": [
                        "http://hl7.org/fhir/us/core/StructureDefinition/us-core-observationresults"
                    ]
                },
                "id": "c1762f6c-b896-3183-ad94-0aa1c4beab15",
                "identifier": [
                    {
                        "system": "urn:ietf:rfc:3986",
                        "value": "urn:uuid:1.3.6.1.4.1.22812.4.111.0.4.1.4"
                    }
                ],
                "category": [
                    {
                        "coding": [
                            {
                                "system": "http://terminology.hl7.org/CodeSystem/observation-category",
                                "code": "vital-signs"
                            }
                        ]
                    }
                ],
                "status": "final",
                "code": {
                    "coding": [
                        {
                            "code": "85354-9",
                            "display": "Blood pressure panel with all children optional",
                            "system": "http://loinc.org"
                        }
                    ]
                },
                "effectiveDateTime": "2021-05-14T23:59:59.000Z",
                "issued": "2021-05-14T23:59:59.000Z",
                "component": [
                    {
                        "code": {
                            "coding": [
                                {
                                    "system": "http://loinc.org",
                                    "code": "8462-4",
                                    "display": "Diastolic blood pressure"
                                }
                            ]
                        },
                        "valueQuantity": {
                            "value": 90,
                            "unit": "mmHg",
                            "system": "http://unitsofmeasure.org",
                            "code": "mm[Hg]"
                        }
                    },
                    {
                        "code": {
                            "coding": [
                                {
                                    "system": "http://loinc.org",
                                    "code": "8480-6",
                                    "display": "Systolic blood pressure"
                                }
                            ]
                        },
                        "valueQuantity": {
                            "value": 160,
                            "unit": "mmHg",
                            "system": "http://unitsofmeasure.org",
                            "code": "mm[Hg]"
                        }
                    }
                ],
                "subject": {
                    "reference": "Patient/f40da2df-7505-315a-9acb-55513a02c37b"
                }
            },
            "request": {
                "method": "PUT",
                "url": "Observation/c1762f6c-b896-3183-ad94-0aa1c4beab15"
            }
        },
        {
            "fullUrl": "urn:uuid:efc450f1-bf82-3df2-91ab-52a0ab34168f",
            "resource": {
                "resourceType": "Procedure",
                "meta": {
                    "profile": [
                        "http://hl7.org/fhir/us/core/StructureDefinition/us-core-procedure"
                    ]
                },
                "id": "efc450f1-bf82-3df2-91ab-52a0ab34168f",
                "identifier": [
                    {
                        "system": "urn:ietf:rfc:3986",
                        "value": "urn:uuid:Procedure-4"
                    }
                ],
                "status": "completed",
                "code": {
                    "coding": [
                        {
                            "code": "56251003",
                            "display": "Nebulizer Therapy",
                            "system": "http://snomed.info/sct"
                        }
                    ]
                },
                "performedPeriod": {
                    "start": "2015-06-22T00:00:00.000Z"
                },
                "subject": {
                    "reference": "Patient/f40da2df-7505-315a-9acb-55513a02c37b"
                }
            },
            "request": {
                "method": "PUT",
                "url": "Procedure/efc450f1-bf82-3df2-91ab-52a0ab34168f"
            }
        },
        {
            "fullUrl": "urn:uuid:dc960e37-29ed-34c8-a651-c832b045ed95",
            "resource": {
                "resourceType": "Procedure",
                "meta": {
                    "profile": [
                        "http://hl7.org/fhir/us/core/StructureDefinition/us-core-procedure"
                    ]
                },
                "id": "dc960e37-29ed-34c8-a651-c832b045ed95",
                "identifier": [
                    {
                        "system": "urn:ietf:rfc:3986",
                        "value": "urn:uuid:Procedure-5"
                    }
                ],
                "status": "completed",
                "code": {
                    "coding": [
                        {
                            "code": "175135009",
                            "display": "Introduction of cardiac pacemaker system via vein",
                            "system": "http://snomed.info/sct"
                        }
                    ]
                },
                "performedPeriod": {
                    "start": "2011-10-05T00:00:00.000Z"
                },
                "subject": {
                    "reference": "Patient/f40da2df-7505-315a-9acb-55513a02c37b"
                }
            },
            "request": {
                "method": "PUT",
                "url": "Procedure/dc960e37-29ed-34c8-a651-c832b045ed95"
            }
        },
        {
            "fullUrl": "urn:uuid:4674986d-1fe2-32b3-843f-1a9edd0d6a9b",
            "resource": {
                "resourceType": "CarePlan",
                "id": "4674986d-1fe2-32b3-843f-1a9edd0d6a9b",
                "text": {
                    "status": "additional",
                    "div": "<div xmlns=\"http://www.w3.org/1999/xhtml\"><list>\n  <item>\n    Urinalysis macro (dipstick) panel | Date: 6/29/15\n    <ID>PlannedObservation2dab4f8583ce44848069b18556d1c183</ID>\n  </item>\n  <item>\n    i. Get an EKG done on 6/23/2015.ii. Get a Chest X-ray done on 6/23/2015 showing the Lower Respiratory TractStructure.iii. Take Clindamycin 300mg three times a day as needed if pain does not subside/iv. Schedule follow on visit with Neighborhood Physicians Practice on7/1/2015.\n    <ID>PlannedObservation7a8da4f2-b8e1-439f-a8dd-40091dd88452</ID>\n  </item>\n</list></div>"
                },
                "title": "Plan of Treatment",
                "category": [
                    {
                        "coding": [
                            {
                                "system": "http://hl7.org/fhir/us/core/CodeSystem/careplan-category",
                                "code": "assess-plan",
                                "display": "Assessment and Plan of Treatment"
                            }
                        ],
                        "text": "Assessment and Plan of Treatment"
                    }
                ],
                "status": "active",
                "intent": "plan",
                "subject": {
                    "reference": "Patient/f40da2df-7505-315a-9acb-55513a02c37b"
                }
            },
            "request": {
                "method": "PUT",
                "url": "CarePlan/4674986d-1fe2-32b3-843f-1a9edd0d6a9b"
            }
        },
        {
            "fullUrl": "urn:uuid:fe156dec-b2e9-38f5-aa06-3288043362ef",
            "resource": {
                "resourceType": "Encounter",
                "id": "fe156dec-b2e9-38f5-aa06-3288043362ef",
                "status": "finished",
                "class": {
                    "system": "http://terminology.hl7.org/CodeSystem/v3-ActCode",
                    "code": "AMB"
                },
                "type": [
                    {
                        "coding": [
                            {
                                "code": "29308-4",
                                "display": "Diagnosis",
                                "system": "http://loinc.org"
                            }
                        ]
                    }
                ],
                "reasonCode": [
                    {
                        "coding": [
                            {
                                "system": "http://snomed.info/sct",
                                "code": "55607006",
                                "display": "Problem"
                            }
                        ]
                    }
                ],
                "identifier": [
                    {
                        "system": "urn:ietf:rfc:3986",
                        "value": "urn:uuid:f789f8d7-7f45-48df-983b-a6fd5db3c7d8"
                    }
                ],
                "period": {
                    "start": "2019-10-16T04:00:00.000Z"
                },
                "location": [
                    {
                        "location": {
                            "reference": "Location/604a79b8-d538-3959-a3ef-5ac66ee03e08"
                        }
                    }
                ],
                "participant": [
                    {
                        "individual": {
                            "reference": "Practitioner/17763d72-7526-32d1-a535-e60859682208"
                        },
                        "period": {
                            "start": "2019-10-16T04:00:00.000Z"
                        },
                        "type": [
                            {
                                "coding": [
                                    {
                                        "system": "http://terminology.hl7.org/CodeSystem/v3-ParticipationType",
                                        "code": "PPRF",
                                        "display": "primary performer"
                                    }
                                ]
                            }
                        ]
                    }
                ],
                "subject": {
                    "reference": "Patient/f40da2df-7505-315a-9acb-55513a02c37b"
                },
                "diagnosis": [
                    {
                        "condition": {
                            "reference": "Condition/b51e6869-e733-3d23-9cf6-a50dd83ac818"
                        }
                    }
                ]
            },
            "request": {
                "method": "PUT",
                "url": "Encounter/fe156dec-b2e9-38f5-aa06-3288043362ef"
            }
        },
        {
            "fullUrl": "urn:uuid:b51e6869-e733-3d23-9cf6-a50dd83ac818",
            "resource": {
                "resourceType": "Condition",
                "id": "b51e6869-e733-3d23-9cf6-a50dd83ac818",
                "identifier": [
                    {
                        "system": "urn:ietf:rfc:3986",
                        "value": "urn:uuid:31d4e952-b6f4-4b1a-af0c-aa845f127dee"
                    }
                ],
                "verificationStatus": {
                    "coding": [
                        {
                            "system": "http://terminology.hl7.org/CodeSystem/condition-ver-status",
                            "code": "confirmed"
                        }
                    ]
                },
                "category": [
                    {
                        "coding": [
                            {
                                "system": "http://snomed.info/sct",
                                "code": "55607006",
                                "display": "Problem"
                            },
                            {
                                "system": "http://terminology.hl7.org/CodeSystem/condition-category",
                                "code": "problem-list-item"
                            }
                        ]
                    }
                ],
                "clinicalStatus": {
                    "coding": [
                        {
                            "system": "http://terminology.hl7.org/CodeSystem/condition-clinical",
                            "code": "inactive"
                        }
                    ]
                },
                "code": {
                    "coding": [
                        {
                            "code": "780.60",
                            "display": "Fever, unspecified",
                            "system": "urn:oid:2.16.840.1.113883.6.103"
                        }
                    ]
                },
                "onsetDateTime": "2015-06-22T04:00:00.000Z",
                "subject": {
                    "reference": "Patient/f40da2df-7505-315a-9acb-55513a02c37b"
                }
            },
            "request": {
                "method": "PUT",
                "url": "Condition/b51e6869-e733-3d23-9cf6-a50dd83ac818"
            }
        },
        {
            "fullUrl": "urn:uuid:8ce55388-9d68-3702-9064-be0267bb6e3d",
            "resource": {
                "resourceType": "Goal",
                "id": "8ce55388-9d68-3702-9064-be0267bb6e3d",
                "description": {
                    "coding": [
                        {
                            "system": "http://loinc.org",
                            "code": "61146-7"
                        }
                    ]
                },
                "lifecycleStatus": "active",
                "target": [
                    {
                        "dueDate": "2020-09-28"
                    }
                ],
                "subject": {
                    "reference": "Patient/f40da2df-7505-315a-9acb-55513a02c37b"
                }
            },
            "request": {
                "method": "PUT",
                "url": "Goal/8ce55388-9d68-3702-9064-be0267bb6e3d"
            }
        },
        {
            "fullUrl": "urn:uuid:6f59b6ff-1406-3272-8a15-dc17c88cd85f",
            "resource": {
                "resourceType": "Immunization",
                "id": "6f59b6ff-1406-3272-8a15-dc17c88cd85f",
                "identifier": [
                    {
                        "system": "urn:ietf:rfc:3986",
                        "value": "urn:uuid:3411c7ef-cef8-4122-a723-f8ebe91c15ab"
                    }
                ],
                "occurrenceDateTime": "2021-01-28T05:00:00.000Z",
                "vaccineCode": {
                    "coding": [
                        {
                            "code": "207",
                            "display": "SARS-COV-2 (COVID-19) vaccine, mRNA, spike protein, LNP, preservative free, 100 mcg/0.5mL dose",
                            "system": "urn:oid:2.16.840.1.113883.12.292"
                        }
                    ]
                },
                "primarySource": true,
                "status": "completed",
                "statusReason": {
                    "coding": [
                        {
                            "system": "http://terminology.hl7.org/CodeSystem/v3-ActReason",
                            "code": "MEDPREC",
                            "display": "medical precaution"
                        }
                    ]
                },
                "route": {
                    "coding": [
                        {
                            "code": "C28161",
                            "display": "Intramuscular injection",
                            "system": "urn:oid:2.16.840.1.113883.3.26.1.1"
                        }
                    ]
                },
                "patient": {
                    "reference": "Patient/f40da2df-7505-315a-9acb-55513a02c37b"
                }
            },
            "request": {
                "method": "PUT",
                "url": "Immunization/6f59b6ff-1406-3272-8a15-dc17c88cd85f"
            }
        },
        {
            "fullUrl": "urn:uuid:76337939-8c82-390e-98df-9554e2427f05",
            "resource": {
                "resourceType": "Immunization",
                "id": "76337939-8c82-390e-98df-9554e2427f05",
                "identifier": [
                    {
                        "system": "urn:ietf:rfc:3986",
                        "value": "urn:uuid:ee880484-0822-431d-b9ac-e0b3e6a2b14e"
                    }
                ],
                "occurrenceDateTime": "2015-06-22T04:00:00.000Z",
                "vaccineCode": {
                    "coding": [
                        {
                            "code": "166",
                            "system": "urn:oid:2.16.840.1.113883.12.292"
                        }
                    ]
                },
                "primarySource": true,
                "status": "not-done",
                "statusReason": {
                    "coding": [
                        {
                            "system": "http://terminology.hl7.org/CodeSystem/v3-ActReason",
                            "code": "MEDPREC",
                            "display": "medical precaution"
                        }
                    ]
                },
                "patient": {
                    "reference": "Patient/f40da2df-7505-315a-9acb-55513a02c37b"
                }
            },
            "request": {
                "method": "PUT",
                "url": "Immunization/76337939-8c82-390e-98df-9554e2427f05"
            }
        },
        {
            "fullUrl": "urn:uuid:327b495b-f621-36b7-9810-e385a069406e",
            "resource": {
                "resourceType": "Immunization",
                "id": "327b495b-f621-36b7-9810-e385a069406e",
                "identifier": [
                    {
                        "system": "urn:ietf:rfc:3986",
                        "value": "urn:uuid:cf571e42-372d-45a5-bb7e-a4abe25721fd"
                    }
                ],
                "occurrenceDateTime": "2012-01-04T06:00:00.000Z",
                "vaccineCode": {
                    "coding": [
                        {
                            "code": "106",
                            "display": "diphtheria, tetanus toxoids and acellular pertussis vaccine, 5 pertussis antigens",
                            "system": "urn:oid:2.16.840.1.113883.12.292"
                        }
                    ]
                },
                "primarySource": true,
                "status": "completed",
                "statusReason": {
                    "coding": [
                        {
                            "system": "http://terminology.hl7.org/CodeSystem/v3-ActReason",
                            "code": "MEDPREC",
                            "display": "medical precaution"
                        }
                    ]
                },
                "route": {
                    "coding": [
                        {
                            "code": "C28161",
                            "display": "Intramuscular injection",
                            "system": "urn:oid:2.16.840.1.113883.3.26.1.1"
                        }
                    ]
                },
                "patient": {
                    "reference": "Patient/f40da2df-7505-315a-9acb-55513a02c37b"
                }
            },
            "request": {
                "method": "PUT",
                "url": "Immunization/327b495b-f621-36b7-9810-e385a069406e"
            }
        },
        {
            "fullUrl": "urn:uuid:296600cb-6150-34cf-b1d0-9eacc07cc506",
            "resource": {
                "resourceType": "Device",
                "id": "296600cb-6150-34cf-b1d0-9eacc07cc506",
                "identifier": [
                    {
                        "system": "urn:oid:1.2.840.114350.1.13.5552.1.7.2.737780",
                        "value": "2744"
                    }
                ],
                "udiCarrier": [
                    {
                        "deviceIdentifier": "00643169007222",
                        "carrierHRF": "(01)00643169007222(17)160128(21)BLC200461H"
                    }
                ],
                "distinctIdentifier": "00643169007222",
                "expirationDate": "160128",
                "serialNumber": "BLC200461H",
                "type": {
                    "coding": [
                        {
                            "code": "704708004",
                            "display": "Cardiac resynchronization therapy implantable pacemaker",
                            "system": "http://snomed.info/sct"
                        }
                    ]
                },
                "patient": {
                    "reference": "Patient/f40da2df-7505-315a-9acb-55513a02c37b"
                }
            },
            "request": {
                "method": "PUT",
                "url": "Device/296600cb-6150-34cf-b1d0-9eacc07cc506"
            }
        },
        {
            "fullUrl": "urn:uuid:5b9abe1a-8825-3fb5-841f-5b93365d0979",
            "resource": {
                "resourceType": "DocumentReference",
                "id": "5b9abe1a-8825-3fb5-841f-5b93365d0979",
                "type": {
                    "coding": [
                        {
                            "system": "http://loinc.org",
                            "code": "11506-3",
                            "display": "Progress Note"
                        }
                    ],
                    "text": "Progress Note"
                },
                "status": "superseded",
                "category": [
                    {
                        "coding": [
                            {
                                "system": "http://hl7.org/fhir/us/core/CodeSystem/us-core-documentreference-category",
                                "code": "clinical-note",
                                "display": "Clinical Note"
                            }
                        ]
                    }
                ],
                "date": "2019-10-16T10:13:45.000Z",
                "content": [
                    {
                        "attachment": {
                            "contentType": "text/plain",
                            "data": "H4sIAAAAAAAAEx3MQQ6AMAgF0av8E3gT165RUEhaaFqi8fY2bicvs0risVSkChqliScymF6QM8asSgzCKbf0BZuVgtZlHN12wYgqqebXr2u4ZXTwtCVana+xfIGJ5MliAAAA"
                        },
                        "format": {
                            "system": "http://ihe.net/fhir/ValueSet/IHE.FormatCode.codesystem",
                            "code": "urn:ihe:iti:xds:2017:mimeTypeSufficient",
                            "display": "mimeType Sufficient"
                        }
                    }
                ],
                "subject": {
                    "reference": "Patient/f40da2df-7505-315a-9acb-55513a02c37b"
                },
                "author": [
                    {
                        "reference": "Practitioner/7ed127a1-8bb3-301d-9c2e-a364878313f7"
                    }
                ]
            },
            "request": {
                "method": "PUT",
                "url": "DocumentReference/5b9abe1a-8825-3fb5-841f-5b93365d0979"
            }
        },
        {
            "fullUrl": "urn:uuid:7ed127a1-8bb3-301d-9c2e-a364878313f7",
            "resource": {
                "resourceType": "Practitioner",
                "meta": {
                    "profile": [
                        "http://hl7.org/fhir/us/core/StructureDefinition/us-core-practitioner"
                    ]
                },
                "id": "7ed127a1-8bb3-301d-9c2e-a364878313f7",
                "identifier": [
                    {
                        "system": "http://hl7.org/fhir/sid/us-npi",
                        "value": "99999999"
                    }
                ],
                "name": [
                    {
                        "family": "Speroni",
                        "given": [
                            "Daniel"
                        ]
                    }
                ],
                "telecom": [
                    {
                        "system": "phone",
                        "value": "UNK",
                        "use": "work"
                    }
                ],
                "qualification": [
                    {
                        "code": {
                            "coding": [
                                {
                                    "code": "UNK"
                                }
                            ]
                        }
                    }
                ]
            },
            "request": {
                "method": "PUT",
                "url": "Practitioner/7ed127a1-8bb3-301d-9c2e-a364878313f7"
            }
        },
        {
            "fullUrl": "urn:uuid:f9c029fa-2399-34cc-a7b6-007e2fe77b0a",
            "resource": {
                "resourceType": "DocumentReference",
                "id": "f9c029fa-2399-34cc-a7b6-007e2fe77b0a",
                "type": {
                    "coding": [
                        {
                            "code": "34133-9",
                            "display": "Summarization of Episode Note",
                            "system": "http://loinc.org"
                        }
                    ]
                },
                "date": "2022-10-13T16:03:19.834Z",
                "status": "current",
                "content": [
                    {
                        "attachment": {
                            "contentType": "text/plain",
                            "data": "",
                            "hash": "QOxVnCX3rLYW2yZRs/NUpcW8Mng="
                        }
                    }
                ]
            },
            "request": {
                "method": "PUT",
                "url": "DocumentReference/f9c029fa-2399-34cc-a7b6-007e2fe77b0a"
            }
        }
    ]
}