{
    "resourceType": "Bundle",
    "type": "batch",
    "entry": [
        {
            "fullUrl": "urn:uuid:c35c3ea1-7c28-3e3e-b3d9-65f88f176441",
            "resource": {
                "resourceType": "Composition",
                "id": "c35c3ea1-7c28-3e3e-b3d9-65f88f176441",
                "identifier": {
                    "use": "official",
                    "value": "2.16.840.1.113883.19.5.99999.1"
                },
                "status": "final",
                "type": {
                    "coding": [
                        {
                            "code": "11488-4",
                            "display": "Consultation Note",
                            "system": "http://loinc.org"
                        }
                    ]
                },
                "date": "2013-08-01T13:00:00.000Z",
                "title": "Community Health Consult Note",
                "confidentiality": "N",
                "attester": [
                    {
                        "mode": "legal",
                        "time": "2013-08-02T06:36:15.000Z",
                        "party": {
                            "reference": "Practitioner/59f03d66-d1fe-3b14-adbf-483a56746c05"
                        }
                    }
                ],
                "section": [
                    {
                        "title": "ALLERGIES AND ADVERSE REACTIONS",
                        "text": {
                            "status": "generated",
                            "div": "<div xmlns=\"http://www.w3.org/1999/xhtml\">ALLERGIES AND ADVERSE REACTIONS</div>"
                        },
                        "code": {
                            "coding": [
                                {
                                    "code": "48765-2",
                                    "system": "http://loinc.org"
                                }
                            ]
                        },
                        "mode": "snapshot",
                        "entry": [
                            {
                                "reference": "AllergyIntolerance/67035768-abbb-3e2e-a4bc-bd2ea9f9ee74",
                                "display": "Penicillin"
                            },
                            {
                                "reference": "AllergyIntolerance/65349870-348d-3292-ace0-23c29c89d1c3",
                                "display": "Codeine"
                            }
                        ]
                    },
                    {
                        "title": "ASSESSMENT",
                        "text": {
                            "status": "generated",
                            "div": "<div xmlns=\"http://www.w3.org/1999/xhtml\">ASSESSMENT</div>"
                        },
                        "code": {
                            "coding": [
                                {
                                    "code": "51848-0",
                                    "display": "ASSESSMENT",
                                    "system": "http://loinc.org"
                                }
                            ]
                        },
                        "mode": "snapshot"
                    },
                    {
                        "title": "HISTORY OF PRESENT ILLNESS",
                        "text": {
                            "status": "generated",
                            "div": "<div xmlns=\"http://www.w3.org/1999/xhtml\">HISTORY OF PRESENT ILLNESS</div>"
                        },
                        "code": {
                            "coding": [
                                {
                                    "code": "10164-2",
                                    "display": "HISTORY OF PRESENT ILLNESS",
                                    "system": "http://loinc.org"
                                }
                            ]
                        },
                        "mode": "snapshot"
                    },
                    {
                        "title": "FUNCTIONAL STATUS",
                        "text": {
                            "status": "generated",
                            "div": "<div xmlns=\"http://www.w3.org/1999/xhtml\">FUNCTIONAL STATUS</div>"
                        },
                        "code": {
                            "coding": [
                                {
                                    "code": "47420-5",
                                    "display": "Functional Status",
                                    "system": "http://loinc.org"
                                }
                            ]
                        },
                        "mode": "snapshot",
                        "entry": [
                            {
                                "reference": "Condition/7d2c2355-c56f-3338-be94-b98de5955fd3"
                            }
                        ]
                    },
                    {
                        "title": "MEDICATIONS",
                        "text": {
                            "status": "generated",
                            "div": "<div xmlns=\"http://www.w3.org/1999/xhtml\">MEDICATIONS</div>"
                        },
                        "code": {
                            "coding": [
                                {
                                    "code": "10160-0",
                                    "display": "HISTORY OF MEDICATION USE",
                                    "system": "http://loinc.org"
                                }
                            ]
                        },
                        "mode": "snapshot",
                        "entry": [
                            {
                                "reference": "MedicationStatement/75dc08cb-43d9-3073-858e-d7160397bc0b"
                            },
                            {
                                "reference": "MedicationStatement/142ab4d8-5794-325f-85b7-ab13ff3e8f44"
                            }
                        ]
                    },
                    {
                        "title": "MENTAL STATUS",
                        "text": {
                            "status": "generated",
                            "div": "<div xmlns=\"http://www.w3.org/1999/xhtml\">MENTAL STATUS</div>"
                        },
                        "code": {
                            "coding": [
                                {
                                    "code": "10190-7",
                                    "display": "MENTAL STATUS",
                                    "system": "http://loinc.org"
                                }
                            ]
                        },
                        "mode": "snapshot"
                    },
                    {
                        "title": "NUTRITION SECTION",
                        "text": {
                            "status": "generated",
                            "div": "<div xmlns=\"http://www.w3.org/1999/xhtml\">NUTRITION SECTION</div>"
                        },
                        "code": {
                            "coding": [
                                {
                                    "code": "61144-2",
                                    "display": "Diet and Nutrition",
                                    "system": "http://loinc.org"
                                }
                            ]
                        },
                        "mode": "snapshot"
                    },
                    {
                        "title": "Physical Examination",
                        "text": {
                            "status": "generated",
                            "div": "<div xmlns=\"http://www.w3.org/1999/xhtml\">Physical Examination</div>"
                        },
                        "code": {
                            "coding": [
                                {
                                    "code": "29545-1",
                                    "display": "Physical Findings",
                                    "system": "http://loinc.org"
                                }
                            ]
                        },
                        "mode": "snapshot"
                    },
                    {
                        "title": "TREATMENT PLAN",
                        "text": {
                            "status": "generated",
                            "div": "<div xmlns=\"http://www.w3.org/1999/xhtml\">TREATMENT PLAN</div>"
                        },
                        "code": {
                            "coding": [
                                {
                                    "code": "18776-5",
                                    "display": "Treatment plan",
                                    "system": "http://loinc.org"
                                }
                            ]
                        },
                        "mode": "snapshot",
                        "entry": [
                            {
                                "reference": "CarePlan/aa52d96a-5156-3dbf-8e82-9bc6c8fa229a"
                            },
                            {
                                "reference": "CarePlan/6217ad0e-53be-324b-8aef-1c88a47a953a"
                            },
                            {
                                "reference": "CarePlan/c6f7aada-76ff-344c-9b30-a6ab85957636"
                            },
                            {
                                "reference": "CarePlan/a7ae98ca-0928-3851-9082-dc25ae0c4a97"
                            }
                        ]
                    },
                    {
                        "title": "PROBLEMS",
                        "text": {
                            "status": "generated",
                            "div": "<div xmlns=\"http://www.w3.org/1999/xhtml\">PROBLEMS</div>"
                        },
                        "code": {
                            "coding": [
                                {
                                    "code": "11450-4",
                                    "display": "PROBLEM LIST",
                                    "system": "http://loinc.org"
                                }
                            ]
                        },
                        "mode": "snapshot",
                        "entry": [
                            {
                                "reference": "Condition/efbf2583-7664-326e-a1cd-043d6cc9d845"
                            },
                            {
                                "reference": "Condition/6239ecaf-dfd2-3410-ad12-e53f92ac8267"
                            },
                            {
                                "reference": "Condition/e3580df7-8351-3a1f-97b1-4a6b72a72987"
                            }
                        ]
                    },
                    {
                        "title": "REASON FOR REFERRAL",
                        "text": {
                            "status": "generated",
                            "div": "<div xmlns=\"http://www.w3.org/1999/xhtml\">REASON FOR REFERRAL</div>"
                        },
                        "code": {
                            "coding": [
                                {
                                    "code": "42349-1",
                                    "display": "Reason for Referral ",
                                    "system": "http://loinc.org"
                                }
                            ]
                        },
                        "mode": "snapshot"
                    },
                    {
                        "title": "RESULTS",
                        "text": {
                            "status": "generated",
                            "div": "<div xmlns=\"http://www.w3.org/1999/xhtml\">RESULTS</div>"
                        },
                        "code": {
                            "coding": [
                                {
                                    "code": "30954-2",
                                    "display": "RESULTS",
                                    "system": "http://loinc.org"
                                }
                            ]
                        },
                        "mode": "snapshot",
                        "entry": [
                            {
                                "reference": "DiagnosticReport/019184a2-ec7a-3634-82bf-3fb0d4c08fce"
                            },
                            {
                                "reference": "DiagnosticReport/9adfa9d7-3edc-31a3-9719-a1e6ccb48059"
                            }
                        ]
                    },
                    {
                        "title": "VITAL SIGNS",
                        "text": {
                            "status": "generated",
                            "div": "<div xmlns=\"http://www.w3.org/1999/xhtml\">VITAL SIGNS</div>"
                        },
                        "code": {
                            "coding": [
                                {
                                    "code": "8716-3",
                                    "display": "VITAL SIGNS",
                                    "system": "http://loinc.org"
                                }
                            ]
                        },
                        "mode": "snapshot",
                        "entry": [
                            {
                                "reference": "Observation/8b7b6e6a-26c9-31d0-8aa4-756f36de91b8",
                                "display": "Height"
                            },
                            {
                                "reference": "Observation/a7860d84-ad36-382e-988e-73a284560df2",
                                "display": "Patient Body Weight - Measured"
                            },
                            {
                                "reference": "Observation/19d79c6d-ea16-37f0-b1d6-1b58c7606de3",
                                "display": "Intravascular Systolic"
                            },
                            {
                                "reference": "Observation/5c3258ac-677d-361d-957f-aedc8979397c",
                                "display": "BP Diastolic"
                            },
                            {
                                "reference": "Observation/f6dd350d-0d39-31e4-8ba8-8a45c081101e",
                                "display": "Height"
                            },
                            {
                                "reference": "Observation/57968af7-3192-3cd6-b813-92a35a9b4e44",
                                "display": "Patient Body Weight - Measured"
                            },
                            {
                                "reference": "Observation/63a1f1bf-da7f-34ae-b8e6-e6df50bf1947",
                                "display": "BP Systolic"
                            },
                            {
                                "reference": "Observation/eef46d03-c9a7-3a94-a36f-d0715e00c858",
                                "display": "BP Diastolic"
                            }
                        ]
                    }
                ],
                "subject": {
                    "reference": "Patient/cda927a1-eaee-30f8-8925-957700ad6f38"
                },
                "encounter": {
                    "reference": "Encounter/56d29f6a-9be9-37e5-9655-a753ecc9189d"
                },
                "custodian": {
                    "reference": "Organization/2db1cde5-fcf8-341d-94fb-fa21b03c1415"
                },
                "author": [
                    {
                        "reference": "Practitioner/59f03d66-d1fe-3b14-adbf-483a56746c05"
                    }
                ]
            },
            "request": {
                "method": "PUT",
                "url": "Composition/c35c3ea1-7c28-3e3e-b3d9-65f88f176441"
            }
        },
        {
            "fullUrl": "urn:uuid:59f03d66-d1fe-3b14-adbf-483a56746c05",
            "resource": {
                "resourceType": "Practitioner",
                "meta": {
                    "profile": [
                        "http://hl7.org/fhir/us/core/StructureDefinition/us-core-practitioner"
                    ]
                },
                "id": "59f03d66-d1fe-3b14-adbf-483a56746c05",
                "identifier": [
                    {
                        "system": "http://hl7.org/fhir/sid/us-npi",
                        "value": "555555555"
                    }
                ],
                "name": [
                    {
                        "family": "Primary",
                        "given": [
                            "Patricia",
                            "Patty"
                        ],
                        "suffix": [
                            "M.D."
                        ]
                    }
                ],
                "address": [
                    {
                        "line": [
                            "1004 Healthcare Drive"
                        ],
                        "city": "Portland",
                        "state": "OR",
                        "country": "US",
                        "postalCode": "99123"
                    }
                ],
                "telecom": [
                    {
                        "system": "phone",
                        "value": "+1(555)-1004",
                        "use": "work"
                    }
                ],
                "qualification": [
                    {
                        "code": {
                            "coding": [
                                {
                                    "code": "207QA0505X",
                                    "display": "Adult Medicine",
                                    "system": "http://nucc.org/provider-taxonomy"
                                }
                            ]
                        }
                    }
                ]
            },
            "request": {
                "method": "PUT",
                "url": "Practitioner/59f03d66-d1fe-3b14-adbf-483a56746c05"
            }
        },
        {
            "fullUrl": "urn:uuid:56d29f6a-9be9-37e5-9655-a753ecc9189d",
            "resource": {
                "resourceType": "Encounter",
                "id": "56d29f6a-9be9-37e5-9655-a753ecc9189d",
                "status": "unknown",
                "class": {
                    "code": "99213",
                    "display": "Evaluation and Management",
                    "system": "urn:oid:2.16.840.1.113883.6.12"
                },
                "type": [
                    {
                        "coding": [
                            {
                                "code": "99213",
                                "display": "Evaluation and Management",
                                "system": "urn:oid:2.16.840.1.113883.6.12"
                            }
                        ]
                    }
                ],
                "identifier": [
                    {
                        "system": "urn:oid:2.16.840.1.113883.19",
                        "value": "9937012"
                    }
                ],
                "period": {
                    "start": "2013-07-31",
                    "end": "2013-07-31"
                },
                "location": [
                    {
                        "location": {
                            "reference": "Location/2c3b30b5-39e7-3c88-b345-eed888cc36f0"
                        }
                    }
                ]
            },
            "request": {
                "method": "PUT",
                "url": "Encounter/56d29f6a-9be9-37e5-9655-a753ecc9189d"
            }
        },
        {
            "fullUrl": "urn:uuid:2c3b30b5-39e7-3c88-b345-eed888cc36f0",
            "resource": {
                "resourceType": "Location",
                "id": "2c3b30b5-39e7-3c88-b345-eed888cc36f0"
            },
            "request": {
                "method": "PUT",
                "url": "Location/2c3b30b5-39e7-3c88-b345-eed888cc36f0"
            }
        },
        {
            "fullUrl": "urn:uuid:2db1cde5-fcf8-341d-94fb-fa21b03c1415",
            "resource": {
                "resourceType": "Organization",
                "id": "2db1cde5-fcf8-341d-94fb-fa21b03c1415",
                "identifier": [
                    {
                        "system": "http://hl7.org/fhir/sid/us-npi",
                        "value": "321CX"
                    }
                ],
                "name": "Good Health HIE",
                "address": [
                    {
                        "use": "work",
                        "line": [
                            "1009 Healthcare Drive"
                        ],
                        "city": "Portland",
                        "state": "OR",
                        "country": "US",
                        "postalCode": "99123"
                    }
                ],
                "telecom": [
                    {
                        "system": "phone",
                        "value": "+1(555)-1009",
                        "use": "work"
                    }
                ]
            },
            "request": {
                "method": "PUT",
                "url": "Organization/2db1cde5-fcf8-341d-94fb-fa21b03c1415"
            }
        },
        {
            "fullUrl": "urn:uuid:cda927a1-eaee-30f8-8925-957700ad6f38",
            "resource": {
                "resourceType": "Patient",
                "meta": {
                    "profile": [
                        "http://hl7.org/fhir/us/core/StructureDefinition/us-core-patient"
                    ]
                },
                "id": "cda927a1-eaee-30f8-8925-957700ad6f38",
                "identifier": [
                    {
                        "system": "http://hl7.org/fhir/sid/us-ssn",
                        "value": "444-22-2222"
                    }
                ],
                "name": [
                    {
                        "use": "usual",
                        "family": "Betterhalf",
                        "given": [
                            "Eve"
                        ]
                    },
                    {
                        "family": "Everywoman",
                        "given": [
                            "Eve"
                        ]
                    }
                ],
                "birthDate": "1975-05-01",
                "gender": "female",
                "extension": [
                    {
                        "url": "http://hl7.org/fhir/us/core/StructureDefinition/us-core-race",
                        "extension": [
                            {
                                "url": "ombCategory",
                                "valueCoding": {
                                    "code": "2106-3",
                                    "display": "White",
                                    "system": "urn:oid:2.16.840.1.113883.6.238"
                                }
                            },
                            {
                                "url": "ombCategory",
                                "valueCoding": {
                                    "code": "2076-8",
                                    "display": "Hawaiian or Other Pacific Islander",
                                    "system": "urn:oid:2.16.840.1.113883.6.238"
                                }
                            },
                            {
                                "url": "text",
                                "valueString": "Mixed"
                            }
                        ]
                    },
                    {
                        "url": "http://hl7.org/fhir/us/core/StructureDefinition/us-core-ethnicity",
                        "extension": [
                            {
                                "url": "ombCategory",
                                "valueCoding": {
                                    "code": "2186-5",
                                    "display": "Not Hispanic or Latino",
                                    "system": "urn:oid:2.16.840.1.113883.6.238"
                                }
                            },
                            {
                                "url": "text",
                                "valueString": "Not Hispanic or Latino"
                            }
                        ]
                    }
                ],
                "address": [
                    {
                        "use": "home",
                        "line": [
                            "2222 Home Street"
                        ],
                        "city": "Beaverton",
                        "state": "OR",
                        "country": "US",
                        "postalCode": "97867"
                    }
                ],
                "telecom": [
                    {
                        "system": "phone",
                        "value": "+1(555)555-2003",
                        "use": "home"
                    }
                ],
                "communication": [
                    {
                        "language": {
                            "coding": [
                                {
                                    "system": "urn:ietf:bcp:47",
                                    "code": "eng"
                                }
                            ]
                        },
                        "preferred": true
                    }
                ]
            },
            "request": {
                "method": "PUT",
                "url": "Patient/cda927a1-eaee-30f8-8925-957700ad6f38"
            }
        },
        {
            "fullUrl": "urn:uuid:5fab84f6-27ae-3100-a4be-3785d3a7a76b",
            "resource": {
                "resourceType": "RelatedPerson",
                "id": "5fab84f6-27ae-3100-a4be-3785d3a7a76b",
                "relationship": [
                    {
                        "coding": [
                            {
                                "code": "POWATT",
                                "display": "Power of Attorney",
                                "system": "urn:oid:2.16.840.1.113883.1.11.19830"
                            }
                        ]
                    }
                ],
                "name": [
                    {
                        "family": "Betterhalf",
                        "given": [
                            "Boris",
                            "Bo"
                        ]
                    }
                ],
                "telecom": [
                    {
                        "system": "phone",
                        "value": "+1(555)555-2008",
                        "use": "mobile"
                    }
                ],
                "address": [
                    {
                        "use": "home",
                        "line": [
                            "2222 Home Street"
                        ],
                        "city": "Beaverton",
                        "state": "OR",
                        "country": "US",
                        "postalCode": "97867"
                    }
                ],
                "patient": {
                    "reference": "Patient/cda927a1-eaee-30f8-8925-957700ad6f38"
                }
            },
            "request": {
                "method": "PUT",
                "url": "RelatedPerson/5fab84f6-27ae-3100-a4be-3785d3a7a76b"
            }
        },
        {
            "fullUrl": "urn:uuid:2c1ce1d4-2a4f-399c-9a09-f79be9c0edb7",
            "resource": {
                "resourceType": "AllergyIntolerance",
                "id": "2c1ce1d4-2a4f-399c-9a09-f79be9c0edb7",
                "identifier": [
                    {
                        "system": "urn:ietf:rfc:3986",
                        "value": "urn:uuid:4adc1020-7b14-11db-9fe1-0800200c9a66"
                    }
                ],
                "clinicalStatus": {
                    "coding": [
                        {
                            "system": "http://terminology.hl7.org/CodeSystem/allergyintolerance-clinical",
                            "code": "active"
                        }
                    ]
                },
                "reaction": [
                    {
                        "substance": {
                            "coding": [
                                {
                                    "code": "70618",
                                    "display": "Penicillin",
                                    "system": "http://www.nlm.nih.gov/research/umls/rxnorm"
                                }
                            ]
                        },
                        "manifestation": [
                            {
                                "coding": [
                                    {
                                        "code": "422587007",
                                        "display": "Nausea",
                                        "system": "http://snomed.info/sct"
                                    }
                                ]
                            }
                        ],
                        "onset": "2008-02-26T16:05:00.000Z"
                    }
                ],
                "onsetDateTime": "1998-05-01",
                "patient": {
                    "reference": "Patient/cda927a1-eaee-30f8-8925-957700ad6f38"
                }
            },
            "request": {
                "method": "PUT",
                "url": "AllergyIntolerance/2c1ce1d4-2a4f-399c-9a09-f79be9c0edb7"
            }
        },
        {
            "fullUrl": "urn:uuid:bcd48590-fd86-31f9-81ca-57028c5c0560",
            "resource": {
                "resourceType": "AllergyIntolerance",
                "id": "bcd48590-fd86-31f9-81ca-57028c5c0560",
                "identifier": [
                    {
                        "system": "urn:ietf:rfc:3986",
                        "value": "urn:uuid:901db0f8-9355-4794-81cd-fd951ef07917"
                    }
                ],
                "clinicalStatus": {
                    "coding": [
                        {
                            "system": "http://terminology.hl7.org/CodeSystem/allergyintolerance-clinical",
                            "code": "active"
                        }
                    ]
                },
                "reaction": [
                    {
                        "substance": {
                            "coding": [
                                {
                                    "code": "2670",
                                    "display": "Codeine",
                                    "system": "http://www.nlm.nih.gov/research/umls/rxnorm"
                                }
                            ]
                        },
                        "manifestation": [
                            {
                                "coding": [
                                    {
                                        "code": "56018004",
                                        "display": "Wheezing",
                                        "system": "http://snomed.info/sct"
                                    }
                                ]
                            }
                        ],
                        "severity": "mild"
                    }
                ],
                "patient": {
                    "reference": "Patient/cda927a1-eaee-30f8-8925-957700ad6f38"
                }
            },
            "request": {
                "method": "PUT",
                "url": "AllergyIntolerance/bcd48590-fd86-31f9-81ca-57028c5c0560"
            }
        },
        {
            "fullUrl": "urn:uuid:caf22436-24f7-3f0b-a730-caed9f53c264",
            "resource": {
                "resourceType": "MedicationStatement",
                "id": "caf22436-24f7-3f0b-a730-caed9f53c264",
                "identifier": [
                    {
                        "system": "urn:ietf:rfc:3986",
                        "value": "urn:uuid:cdbd33f0-6cde-11db-9fe1-0800200c9a66"
                    }
                ],
                "status": "active",
                "dosage": [
                    {
                        "doseAndRate": [
                            {
                                "doseQuantity": {
                                    "value": 2
                                }
                            }
                        ]
                    }
                ],
                "subject": {
                    "reference": "Patient/cda927a1-eaee-30f8-8925-957700ad6f38"
                },
                "medicationReference": {
                    "reference": "Medication/e8542bc8-91e7-32e4-96a5-7b2e159b8672"
                }
            },
            "request": {
                "method": "PUT",
                "url": "MedicationStatement/caf22436-24f7-3f0b-a730-caed9f53c264"
            }
        },
        {
            "fullUrl": "urn:uuid:e8542bc8-91e7-32e4-96a5-7b2e159b8672",
            "resource": {
                "resourceType": "Medication",
                "id": "e8542bc8-91e7-32e4-96a5-7b2e159b8672",
                "code": {
                    "coding": [
                        {
                            "code": "573621",
                            "display": "Proventil 0.09 MG/ACTUAT inhalant solution",
                            "system": "http://www.nlm.nih.gov/research/umls/rxnorm"
                        }
                    ]
                }
            },
            "request": {
                "method": "PUT",
                "url": "Medication/e8542bc8-91e7-32e4-96a5-7b2e159b8672"
            }
        },
        {
            "fullUrl": "urn:uuid:be75cefc-5a56-3bb7-893b-2e35235d93f2",
            "resource": {
                "resourceType": "MedicationStatement",
                "id": "be75cefc-5a56-3bb7-893b-2e35235d93f2",
                "identifier": [
                    {
                        "system": "urn:ietf:rfc:3986",
                        "value": "urn:uuid:6c844c75-aa34-411c-b7bd-5e4a9f206e29"
                    }
                ],
                "status": "active",
                "dosage": [
                    {
                        "doseAndRate": [
                            {
                                "doseQuantity": {
                                    "value": 1
                                }
                            }
                        ]
                    }
                ],
                "subject": {
                    "reference": "Patient/cda927a1-eaee-30f8-8925-957700ad6f38"
                },
                "medicationReference": {
                    "reference": "Medication/eaa01790-b0cc-3c1e-bfa1-bce758cbc962"
                }
            },
            "request": {
                "method": "PUT",
                "url": "MedicationStatement/be75cefc-5a56-3bb7-893b-2e35235d93f2"
            }
        },
        {
            "fullUrl": "urn:uuid:eaa01790-b0cc-3c1e-bfa1-bce758cbc962",
            "resource": {
                "resourceType": "Medication",
                "id": "eaa01790-b0cc-3c1e-bfa1-bce758cbc962",
                "code": {
                    "coding": [
                        {
                            "code": "197380",
                            "display": "Atenolol 25 MG Oral Tablet",
                            "system": "http://www.nlm.nih.gov/research/umls/rxnorm"
                        }
                    ]
                }
            },
            "request": {
                "method": "PUT",
                "url": "Medication/eaa01790-b0cc-3c1e-bfa1-bce758cbc962"
            }
        },
        {
            "fullUrl": "urn:uuid:82bebd5a-0424-3e71-8f0c-3add9ca809f9",
            "resource": {
                "resourceType": "Condition",
                "id": "82bebd5a-0424-3e71-8f0c-3add9ca809f9",
                "identifier": [
                    {
                        "system": "urn:ietf:rfc:3986",
                        "value": "urn:uuid:ab1791b0-5c71-11db-b0de-0800200c9a66"
                    }
                ],
                "code": {
                    "coding": [
                        {
                            "code": "190389009",
                            "display": "Type II diabetes mellitus with ulcer (disorder)",
                            "system": "http://snomed.info/sct"
                        }
                    ]
                },
                "onsetDateTime": "2000-07-03",
                "subject": {
                    "reference": "Patient/cda927a1-eaee-30f8-8925-957700ad6f38"
                }
            },
            "request": {
                "method": "PUT",
                "url": "Condition/82bebd5a-0424-3e71-8f0c-3add9ca809f9"
            }
        },
        {
            "fullUrl": "urn:uuid:dd1bd1e4-0110-3a4b-a728-e694b0ad4578",
            "resource": {
                "resourceType": "Condition",
                "id": "dd1bd1e4-0110-3a4b-a728-e694b0ad4578",
                "identifier": [
                    {
                        "system": "urn:ietf:rfc:3986",
                        "value": "urn:uuid:11d088a8-b957-401c-8ee0-3bd20a772fc0"
                    }
                ],
                "code": {
                    "coding": [
                        {
                            "code": "195977004",
                            "display": "mixed asthma",
                            "system": "http://snomed.info/sct"
                        }
                    ]
                },
                "onsetDateTime": "2007-04-14",
                "subject": {
                    "reference": "Patient/cda927a1-eaee-30f8-8925-957700ad6f38"
                }
            },
            "request": {
                "method": "PUT",
                "url": "Condition/dd1bd1e4-0110-3a4b-a728-e694b0ad4578"
            }
        },
        {
            "fullUrl": "urn:uuid:6c55ab33-7a6e-34c9-91fd-e21f8c56c410",
            "resource": {
                "resourceType": "Condition",
                "id": "6c55ab33-7a6e-34c9-91fd-e21f8c56c410",
                "identifier": [
                    {
                        "system": "urn:ietf:rfc:3986",
                        "value": "urn:uuid:4991db40-4c4f-41e8-9146-50c12d716424"
                    }
                ],
                "code": {
                    "coding": [
                        {
                            "code": "304527002",
                            "display": "Acute Asthma",
                            "system": "http://snomed.info/sct"
                        }
                    ]
                },
                "onsetDateTime": "2007-04-17",
                "subject": {
                    "reference": "Patient/cda927a1-eaee-30f8-8925-957700ad6f38"
                }
            },
            "request": {
                "method": "PUT",
                "url": "Condition/6c55ab33-7a6e-34c9-91fd-e21f8c56c410"
            }
        },
        {
            "fullUrl": "urn:uuid:c2e5bd00-08bd-3e13-b861-139092f1d042",
            "resource": {
                "resourceType": "Condition",
                "id": "c2e5bd00-08bd-3e13-b861-139092f1d042",
                "identifier": [
                    {
                        "system": "urn:ietf:rfc:3986",
                        "value": "urn:uuid:10506b4d-c30a-4220-8bec-97bff9568fd1"
                    }
                ],
                "code": {
                    "coding": [
                        {
                            "code": "233604007",
                            "display": "Pneumonia",
                            "system": "http://snomed.info/sct"
                        }
                    ]
                },
                "onsetDateTime": "1998-03-10",
                "subject": {
                    "reference": "Patient/cda927a1-eaee-30f8-8925-957700ad6f38"
                }
            },
            "request": {
                "method": "PUT",
                "url": "Condition/c2e5bd00-08bd-3e13-b861-139092f1d042"
            }
        },
        {
            "fullUrl": "urn:uuid:aab72922-f7fd-3f15-9cd8-624462ab163a",
            "resource": {
                "resourceType": "DiagnosticReport",
                "id": "aab72922-f7fd-3f15-9cd8-624462ab163a",
                "identifier": [
                    {
                        "system": "urn:ietf:rfc:3986",
                        "value": "urn:uuid:7d5a02b0-67a4-11db-bd13-0800200c9a66"
                    }
                ],
                "status": "final",
                "code": {
                    "coding": [
                        {
                            "code": "57021-8",
                            "display": "CBC W Auto Differential panel in Blood",
                            "system": "http://loinc.org"
                        }
                    ]
                },
                "effectivePeriod": {
                    "start": "2013-03-11T16:30:00.000Z",
                    "end": "2013-03-11T16:30:00.000Z"
                },
                "subject": {
                    "reference": "Patient/cda927a1-eaee-30f8-8925-957700ad6f38"
                },
                "result": [
                    {
                        "reference": "Observation/944f3bdc-d6ae-376d-a957-cc7cb322e519"
                    },
                    {
                        "reference": "Observation/07ceea1e-e43b-39d1-85d2-0343486a1374"
                    },
                    {
                        "reference": "Observation/80452080-e63b-3c11-9e38-87bbe912af59"
                    },
                    {
                        "reference": "Observation/6ebe6a86-1364-3d44-88e8-0d17f987d4ec"
                    },
                    {
                        "reference": "Observation/a3cddf69-037d-31ff-94e0-9c83b3249ee2"
                    }
                ]
            },
            "request": {
                "method": "PUT",
                "url": "DiagnosticReport/aab72922-f7fd-3f15-9cd8-624462ab163a"
            }
        },
        {
            "fullUrl": "urn:uuid:944f3bdc-d6ae-376d-a957-cc7cb322e519",
            "resource": {
                "resourceType": "Observation",
                "meta": {
                    "profile": [
                        "http://hl7.org/fhir/us/core/StructureDefinition/us-core-observationresults"
                    ]
                },
                "id": "944f3bdc-d6ae-376d-a957-cc7cb322e519",
                "identifier": [
                    {
                        "system": "urn:ietf:rfc:3986",
                        "value": "urn:uuid:107c2dc0-67a5-11db-bd13-0800200c9a66"
                    }
                ],
                "category": [
                    {
                        "coding": [
                            {
                                "system": "http://terminology.hl7.org/CodeSystem/observation-category",
                                "code": "laboratory"
                            }
                        ]
                    }
                ],
                "status": "final",
                "code": {
                    "coding": [
                        {
                            "code": "718-7",
                            "display": "Hemoglobin",
                            "system": "http://loinc.org"
                        }
                    ]
                },
                "effectiveDateTime": "2013-03-11T16:30:00.000Z",
                "valueQuantity": {
                    "value": 13.2,
                    "unit": "g/dL"
                },
                "referenceRange": [
                    {
                        "low": {
                            "value": 12,
                            "unit": "g/dL"
                        },
                        "high": {
                            "value": 15.5,
                            "unit": "g/dL"
                        }
                    }
                ],
                "interpretation": [
                    {
                        "coding": [
                            {
                                "code": "N",
                                "system": "http://terminology.hl7.org/CodeSystem/v3-ObservationInterpretation"
                            }
                        ]
                    }
                ],
                "subject": {
                    "reference": "Patient/cda927a1-eaee-30f8-8925-957700ad6f38"
                },
                "performer": [
                    {
                        "reference": "Practitioner/7b28babc-fd6e-3540-b98f-2b6a0901138d"
                    }
                ]
            },
            "request": {
                "method": "PUT",
                "url": "Observation/944f3bdc-d6ae-376d-a957-cc7cb322e519"
            }
        },
        {
            "fullUrl": "urn:uuid:07ceea1e-e43b-39d1-85d2-0343486a1374",
            "resource": {
                "resourceType": "Observation",
                "meta": {
                    "profile": [
                        "http://hl7.org/fhir/us/core/StructureDefinition/us-core-observationresults"
                    ]
                },
                "id": "07ceea1e-e43b-39d1-85d2-0343486a1374",
                "identifier": [
                    {
                        "system": "urn:ietf:rfc:3986",
                        "value": "urn:uuid:a69b3d60-2ffd-4440-958b-72b3335ff35f"
                    }
                ],
                "category": [
                    {
                        "coding": [
                            {
                                "system": "http://terminology.hl7.org/CodeSystem/observation-category",
                                "code": "laboratory"
                            }
                        ]
                    }
                ],
                "status": "final",
                "code": {
                    "coding": [
                        {
                            "code": "6690-2",
                            "display": "Leukocytes",
                            "system": "http://loinc.org"
                        }
                    ]
                },
                "effectiveDateTime": "2013-03-11T16:30:00.000Z",
                "valueQuantity": {
                    "value": 6.7,
                    "unit": "10*9/L"
                },
                "referenceRange": [
                    {
                        "low": {
                            "value": 4.3,
                            "unit": "10*9/L"
                        },
                        "high": {
                            "value": 10.8,
                            "unit": "10*9/L"
                        }
                    }
                ],
                "interpretation": [
                    {
                        "coding": [
                            {
                                "code": "N",
                                "system": "http://terminology.hl7.org/CodeSystem/v3-ObservationInterpretation"
                            }
                        ]
                    }
                ],
                "subject": {
                    "reference": "Patient/cda927a1-eaee-30f8-8925-957700ad6f38"
                },
                "performer": [
                    {
                        "reference": "Practitioner/7b28babc-fd6e-3540-b98f-2b6a0901138d"
                    }
                ]
            },
            "request": {
                "method": "PUT",
                "url": "Observation/07ceea1e-e43b-39d1-85d2-0343486a1374"
            }
        },
        {
            "fullUrl": "urn:uuid:80452080-e63b-3c11-9e38-87bbe912af59",
            "resource": {
                "resourceType": "Observation",
                "meta": {
                    "profile": [
                        "http://hl7.org/fhir/us/core/StructureDefinition/us-core-observationresults"
                    ]
                },
                "id": "80452080-e63b-3c11-9e38-87bbe912af59",
                "identifier": [
                    {
                        "system": "urn:ietf:rfc:3986",
                        "value": "urn:uuid:ef5c1c58-4665-4556-a8e8-6e720d82f572"
                    }
                ],
                "category": [
                    {
                        "coding": [
                            {
                                "system": "http://terminology.hl7.org/CodeSystem/observation-category",
                                "code": "laboratory"
                            }
                        ]
                    }
                ],
                "status": "final",
                "code": {
                    "coding": [
                        {
                            "code": "777-3",
                            "display": "Platelets",
                            "system": "http://loinc.org"
                        }
                    ]
                },
                "effectiveDateTime": "2013-03-11T16:30:00.000Z",
                "valueQuantity": {
                    "value": 123,
                    "unit": "10*9/L"
                },
                "referenceRange": [
                    {
                        "low": {
                            "value": 150,
                            "unit": "10*9/L"
                        },
                        "high": {
                            "value": 350,
                            "unit": "10*9/L"
                        }
                    }
                ],
                "interpretation": [
                    {
                        "coding": [
                            {
                                "code": "A",
                                "system": "http://terminology.hl7.org/CodeSystem/v3-ObservationInterpretation"
                            }
                        ]
                    }
                ],
                "subject": {
                    "reference": "Patient/cda927a1-eaee-30f8-8925-957700ad6f38"
                },
                "performer": [
                    {
                        "reference": "Practitioner/7b28babc-fd6e-3540-b98f-2b6a0901138d"
                    }
                ]
            },
            "request": {
                "method": "PUT",
                "url": "Observation/80452080-e63b-3c11-9e38-87bbe912af59"
            }
        },
        {
            "fullUrl": "urn:uuid:6ebe6a86-1364-3d44-88e8-0d17f987d4ec",
            "resource": {
                "resourceType": "Observation",
                "meta": {
                    "profile": [
                        "http://hl7.org/fhir/us/core/StructureDefinition/us-core-observationresults"
                    ]
                },
                "id": "6ebe6a86-1364-3d44-88e8-0d17f987d4ec",
                "identifier": [
                    {
                        "system": "urn:ietf:rfc:3986",
                        "value": "urn:uuid:7c0704bb-9c40-41b5-9c7d-26b2d59e234f"
                    }
                ],
                "category": [
                    {
                        "coding": [
                            {
                                "system": "http://terminology.hl7.org/CodeSystem/observation-category",
                                "code": "laboratory"
                            }
                        ]
                    }
                ],
                "status": "final",
                "code": {
                    "coding": [
                        {
                            "code": "4544-3",
                            "display": "Hematocrit",
                            "system": "http://loinc.org"
                        }
                    ]
                },
                "effectiveDateTime": "2013-03-11T16:30:00.000Z",
                "valueQuantity": {
                    "value": 35.3,
                    "unit": "%"
                },
                "referenceRange": [
                    {
                        "low": {
                            "value": 34.9,
                            "unit": "%"
                        },
                        "high": {
                            "value": 44.5,
                            "unit": "%"
                        }
                    }
                ],
                "interpretation": [
                    {
                        "coding": [
                            {
                                "code": "A",
                                "system": "http://terminology.hl7.org/CodeSystem/v3-ObservationInterpretation"
                            }
                        ]
                    }
                ],
                "subject": {
                    "reference": "Patient/cda927a1-eaee-30f8-8925-957700ad6f38"
                },
                "performer": [
                    {
                        "reference": "Practitioner/7b28babc-fd6e-3540-b98f-2b6a0901138d"
                    }
                ]
            },
            "request": {
                "method": "PUT",
                "url": "Observation/6ebe6a86-1364-3d44-88e8-0d17f987d4ec"
            }
        },
        {
            "fullUrl": "urn:uuid:a3cddf69-037d-31ff-94e0-9c83b3249ee2",
            "resource": {
                "resourceType": "Observation",
                "meta": {
                    "profile": [
                        "http://hl7.org/fhir/us/core/StructureDefinition/us-core-observationresults"
                    ]
                },
                "id": "a3cddf69-037d-31ff-94e0-9c83b3249ee2",
                "identifier": [
                    {
                        "system": "urn:ietf:rfc:3986",
                        "value": "urn:uuid:bccd6fc9-0c7f-455e-8616-923ed0d04d09"
                    }
                ],
                "category": [
                    {
                        "coding": [
                            {
                                "system": "http://terminology.hl7.org/CodeSystem/observation-category",
                                "code": "laboratory"
                            }
                        ]
                    }
                ],
                "status": "final",
                "code": {
                    "coding": [
                        {
                            "code": "789-8",
                            "display": "Erythrocytes",
                            "system": "http://loinc.org"
                        }
                    ]
                },
                "effectiveDateTime": "2013-03-11T16:30:00.000Z",
                "valueQuantity": {
                    "value": 4.21,
                    "unit": "10*12/L"
                },
                "referenceRange": [
                    {
                        "low": {
                            "value": 3.9,
                            "unit": "10*12/L"
                        },
                        "high": {
                            "value": 5.03,
                            "unit": "10*12/L"
                        }
                    }
                ],
                "interpretation": [
                    {
                        "coding": [
                            {
                                "code": "N",
                                "system": "http://terminology.hl7.org/CodeSystem/v3-ObservationInterpretation"
                            }
                        ]
                    }
                ],
                "subject": {
                    "reference": "Patient/cda927a1-eaee-30f8-8925-957700ad6f38"
                },
                "performer": [
                    {
                        "reference": "Practitioner/7b28babc-fd6e-3540-b98f-2b6a0901138d"
                    }
                ]
            },
            "request": {
                "method": "PUT",
                "url": "Observation/a3cddf69-037d-31ff-94e0-9c83b3249ee2"
            }
        },
        {
            "fullUrl": "urn:uuid:9a5e95e0-9d81-324e-9fc6-66930372367c",
            "resource": {
                "resourceType": "DiagnosticReport",
                "id": "9a5e95e0-9d81-324e-9fc6-66930372367c",
                "identifier": [
                    {
                        "system": "urn:ietf:rfc:3986",
                        "value": "urn:uuid:122ed3ae-6d9e-43d0-bfa2-434ea34b1426"
                    }
                ],
                "status": "unknown",
                "code": {
                    "coding": [
                        {
                            "code": "166312007",
                            "display": "Blood chemistry test",
                            "system": "http://snomed.info/sct"
                        }
                    ]
                },
                "effectivePeriod": {
                    "start": "2008-03-20T17:30:00.000Z",
                    "end": "2008-03-20T17:30:00.000Z"
                },
                "subject": {
                    "reference": "Patient/cda927a1-eaee-30f8-8925-957700ad6f38"
                },
                "result": [
                    {
                        "reference": "Observation/28cc10ec-36e6-3839-b130-3f7257a67ad3"
                    }
                ]
            },
            "request": {
                "method": "PUT",
                "url": "DiagnosticReport/9a5e95e0-9d81-324e-9fc6-66930372367c"
            }
        },
        {
            "fullUrl": "urn:uuid:28cc10ec-36e6-3839-b130-3f7257a67ad3",
            "resource": {
                "resourceType": "Observation",
                "meta": {
                    "profile": [
                        "http://hl7.org/fhir/us/core/StructureDefinition/us-core-observationresults"
                    ]
                },
                "id": "28cc10ec-36e6-3839-b130-3f7257a67ad3",
                "identifier": [
                    {
                        "system": "urn:ietf:rfc:3986",
                        "value": "urn:uuid:aed821af-3330-4138-97f0-e84dfe5f3c35"
                    }
                ],
                "category": [
                    {
                        "coding": [
                            {
                                "system": "http://terminology.hl7.org/CodeSystem/observation-category",
                                "code": "laboratory"
                            }
                        ]
                    }
                ],
                "status": "unknown",
                "code": {
                    "coding": [
                        {
                            "code": "3094-0",
                            "display": "Urea nitrogen, Serum",
                            "system": "http://loinc.org"
                        }
                    ]
                },
                "effectiveDateTime": "2008-03-20T17:30:00.000Z",
                "subject": {
                    "reference": "Patient/cda927a1-eaee-30f8-8925-957700ad6f38"
                }
            },
            "request": {
                "method": "PUT",
                "url": "Observation/28cc10ec-36e6-3839-b130-3f7257a67ad3"
            }
        },
        {
            "fullUrl": "urn:uuid:21439cb3-bf9e-3e3b-83be-cee8f9904314",
            "resource": {
                "resourceType": "Observation",
                "meta": {
                    "profile": [
                        "http://hl7.org/fhir/us/core/StructureDefinition/us-core-observationresults"
                    ]
                },
                "id": "21439cb3-bf9e-3e3b-83be-cee8f9904314",
                "identifier": [
                    {
                        "system": "urn:ietf:rfc:3986",
                        "value": "urn:uuid:ed9589fd-fda0-41f7-a3d0-dc537554f5c2"
                    }
                ],
                "category": [
                    {
                        "coding": [
                            {
                                "system": "http://terminology.hl7.org/CodeSystem/observation-category",
                                "code": "vital-signs"
                            }
                        ]
                    }
                ],
                "status": "final",
                "code": {
                    "coding": [
                        {
                            "code": "8302-2",
                            "display": "Height",
                            "system": "http://loinc.org"
                        }
                    ]
                },
                "effectiveDateTime": "2012-09-10",
                "valueQuantity": {
                    "value": 177,
                    "unit": "cm"
                },
                "interpretation": [
                    {
                        "coding": [
                            {
                                "code": "N",
                                "system": "http://terminology.hl7.org/CodeSystem/v3-ObservationInterpretation"
                            }
                        ]
                    }
                ],
                "subject": {
                    "reference": "Patient/cda927a1-eaee-30f8-8925-957700ad6f38"
                }
            },
            "request": {
                "method": "PUT",
                "url": "Observation/21439cb3-bf9e-3e3b-83be-cee8f9904314"
            }
        },
        {
            "fullUrl": "urn:uuid:65d55f33-5f39-3828-88ca-271992caaf0a",
            "resource": {
                "resourceType": "Observation",
                "meta": {
                    "profile": [
                        "http://hl7.org/fhir/us/core/StructureDefinition/us-core-observationresults"
                    ]
                },
                "id": "65d55f33-5f39-3828-88ca-271992caaf0a",
                "identifier": [
                    {
                        "system": "urn:ietf:rfc:3986",
                        "value": "urn:uuid:f4e729e2-a97f-4a7e-8e23-c92f9b6b55cf"
                    }
                ],
                "category": [
                    {
                        "coding": [
                            {
                                "system": "http://terminology.hl7.org/CodeSystem/observation-category",
                                "code": "vital-signs"
                            }
                        ]
                    }
                ],
                "status": "final",
                "code": {
                    "coding": [
                        {
                            "code": "3141-9",
                            "display": "Patient Body Weight - Measured",
                            "system": "http://loinc.org"
                        }
                    ]
                },
                "effectiveDateTime": "2012-09-10",
                "valueQuantity": {
                    "value": 86,
                    "unit": "kg"
                },
                "interpretation": [
                    {
                        "coding": [
                            {
                                "code": "N",
                                "system": "http://terminology.hl7.org/CodeSystem/v3-ObservationInterpretation"
                            }
                        ]
                    }
                ],
                "subject": {
                    "reference": "Patient/cda927a1-eaee-30f8-8925-957700ad6f38"
                }
            },
            "request": {
                "method": "PUT",
                "url": "Observation/65d55f33-5f39-3828-88ca-271992caaf0a"
            }
        },
        {
            "fullUrl": "urn:uuid:db6617e6-73c4-375b-a078-db303f4d7e8b",
            "resource": {
                "resourceType": "Observation",
                "meta": {
                    "profile": [
                        "http://hl7.org/fhir/us/core/StructureDefinition/us-core-observationresults"
                    ]
                },
                "id": "db6617e6-73c4-375b-a078-db303f4d7e8b",
                "identifier": [
                    {
                        "system": "urn:ietf:rfc:3986",
                        "value": "urn:uuid:a0e39c70-9674-4b2a-9837-cdf74200d8d5"
                    }
                ],
                "category": [
                    {
                        "coding": [
                            {
                                "system": "http://terminology.hl7.org/CodeSystem/observation-category",
                                "code": "vital-signs"
                            }
                        ]
                    }
                ],
                "status": "final",
                "code": {
                    "coding": [
                        {
                            "code": "8480-6",
                            "display": "Intravascular Systolic",
                            "system": "http://loinc.org"
                        }
                    ]
                },
                "effectiveDateTime": "2012-09-10",
                "valueQuantity": {
                    "value": 132,
                    "unit": "mm[Hg]"
                },
                "interpretation": [
                    {
                        "coding": [
                            {
                                "code": "N",
                                "system": "http://terminology.hl7.org/CodeSystem/v3-ObservationInterpretation"
                            }
                        ]
                    }
                ],
                "subject": {
                    "reference": "Patient/cda927a1-eaee-30f8-8925-957700ad6f38"
                }
            },
            "request": {
                "method": "PUT",
                "url": "Observation/db6617e6-73c4-375b-a078-db303f4d7e8b"
            }
        },
        {
            "fullUrl": "urn:uuid:2b67aa91-ea1f-30f1-a551-52486b67314d",
            "resource": {
                "resourceType": "Observation",
                "meta": {
                    "profile": [
                        "http://hl7.org/fhir/us/core/StructureDefinition/us-core-observationresults"
                    ]
                },
                "id": "2b67aa91-ea1f-30f1-a551-52486b67314d",
                "identifier": [
                    {
                        "system": "urn:ietf:rfc:3986",
                        "value": "urn:uuid:1c2748b7-e440-41ba-bc01-dde97d84a036"
                    }
                ],
                "category": [
                    {
                        "coding": [
                            {
                                "system": "http://terminology.hl7.org/CodeSystem/observation-category",
                                "code": "vital-signs"
                            }
                        ]
                    }
                ],
                "status": "final",
                "code": {
                    "coding": [
                        {
                            "code": "8462-4",
                            "display": "BP Diastolic",
                            "system": "http://loinc.org"
                        }
                    ]
                },
                "effectiveDateTime": "2012-09-10",
                "valueQuantity": {
                    "value": 88,
                    "unit": "mm[Hg]"
                },
                "interpretation": [
                    {
                        "coding": [
                            {
                                "code": "N",
                                "system": "http://terminology.hl7.org/CodeSystem/v3-ObservationInterpretation"
                            }
                        ]
                    }
                ],
                "subject": {
                    "reference": "Patient/cda927a1-eaee-30f8-8925-957700ad6f38"
                }
            },
            "request": {
                "method": "PUT",
                "url": "Observation/2b67aa91-ea1f-30f1-a551-52486b67314d"
            }
        },
        {
            "fullUrl": "urn:uuid:9323fd11-904b-3fd0-ba91-eef4d1e5a1bc",
            "resource": {
                "resourceType": "Observation",
                "meta": {
                    "profile": [
                        "http://hl7.org/fhir/us/core/StructureDefinition/us-core-observationresults"
                    ]
                },
                "id": "9323fd11-904b-3fd0-ba91-eef4d1e5a1bc",
                "identifier": [
                    {
                        "system": "urn:ietf:rfc:3986",
                        "value": "urn:uuid:05c047cd-28c3-41cd-be6c-56f8cc0c3f2f"
                    }
                ],
                "category": [
                    {
                        "coding": [
                            {
                                "system": "http://terminology.hl7.org/CodeSystem/observation-category",
                                "code": "vital-signs"
                            }
                        ]
                    }
                ],
                "status": "final",
                "code": {
                    "coding": [
                        {
                            "code": "8302-2",
                            "display": "Height",
                            "system": "http://loinc.org"
                        }
                    ]
                },
                "effectiveDateTime": "2011-09-01",
                "valueQuantity": {
                    "value": 177,
                    "unit": "cm"
                },
                "interpretation": [
                    {
                        "coding": [
                            {
                                "code": "N",
                                "system": "http://terminology.hl7.org/CodeSystem/v3-ObservationInterpretation"
                            }
                        ]
                    }
                ],
                "subject": {
                    "reference": "Patient/cda927a1-eaee-30f8-8925-957700ad6f38"
                }
            },
            "request": {
                "method": "PUT",
                "url": "Observation/9323fd11-904b-3fd0-ba91-eef4d1e5a1bc"
            }
        },
        {
            "fullUrl": "urn:uuid:8c403072-0f00-32dc-97e5-b9e7ecb76106",
            "resource": {
                "resourceType": "Observation",
                "meta": {
                    "profile": [
                        "http://hl7.org/fhir/us/core/StructureDefinition/us-core-observationresults"
                    ]
                },
                "id": "8c403072-0f00-32dc-97e5-b9e7ecb76106",
                "identifier": [
                    {
                        "system": "urn:ietf:rfc:3986",
                        "value": "urn:uuid:21b0f3d5-7d07-4f4f-ad7e-c33dc2ca3835"
                    }
                ],
                "category": [
                    {
                        "coding": [
                            {
                                "system": "http://terminology.hl7.org/CodeSystem/observation-category",
                                "code": "vital-signs"
                            }
                        ]
                    }
                ],
                "status": "final",
                "code": {
                    "coding": [
                        {
                            "code": "3141-9",
                            "display": "Patient Body Weight - Measured",
                            "system": "http://loinc.org"
                        }
                    ]
                },
                "effectiveDateTime": "2011-09-01",
                "valueQuantity": {
                    "value": 88,
                    "unit": "kg"
                },
                "interpretation": [
                    {
                        "coding": [
                            {
                                "code": "N",
                                "system": "http://terminology.hl7.org/CodeSystem/v3-ObservationInterpretation"
                            }
                        ]
                    }
                ],
                "subject": {
                    "reference": "Patient/cda927a1-eaee-30f8-8925-957700ad6f38"
                }
            },
            "request": {
                "method": "PUT",
                "url": "Observation/8c403072-0f00-32dc-97e5-b9e7ecb76106"
            }
        },
        {
            "fullUrl": "urn:uuid:5827fa28-5c92-3675-a85c-2a2922de7fa8",
            "resource": {
                "resourceType": "Observation",
                "meta": {
                    "profile": [
                        "http://hl7.org/fhir/us/core/StructureDefinition/us-core-observationresults"
                    ]
                },
                "id": "5827fa28-5c92-3675-a85c-2a2922de7fa8",
                "identifier": [
                    {
                        "system": "urn:ietf:rfc:3986",
                        "value": "urn:uuid:b046c35a-59c7-4215-ae09-9a8409a30b21"
                    }
                ],
                "category": [
                    {
                        "coding": [
                            {
                                "system": "http://terminology.hl7.org/CodeSystem/observation-category",
                                "code": "vital-signs"
                            }
                        ]
                    }
                ],
                "status": "final",
                "code": {
                    "coding": [
                        {
                            "code": "8480-6",
                            "display": "BP Systolic",
                            "system": "http://loinc.org"
                        }
                    ]
                },
                "effectiveDateTime": "2011-09-01",
                "valueQuantity": {
                    "value": 128,
                    "unit": "mm[Hg]"
                },
                "interpretation": [
                    {
                        "coding": [
                            {
                                "code": "N",
                                "system": "http://terminology.hl7.org/CodeSystem/v3-ObservationInterpretation"
                            }
                        ]
                    }
                ],
                "subject": {
                    "reference": "Patient/cda927a1-eaee-30f8-8925-957700ad6f38"
                }
            },
            "request": {
                "method": "PUT",
                "url": "Observation/5827fa28-5c92-3675-a85c-2a2922de7fa8"
            }
        },
        {
            "fullUrl": "urn:uuid:9e8d2544-a770-3590-80cf-5ae656273d23",
            "resource": {
                "resourceType": "Observation",
                "meta": {
                    "profile": [
                        "http://hl7.org/fhir/us/core/StructureDefinition/us-core-observationresults"
                    ]
                },
                "id": "9e8d2544-a770-3590-80cf-5ae656273d23",
                "identifier": [
                    {
                        "system": "urn:ietf:rfc:3986",
                        "value": "urn:uuid:44f54e66-fb4b-4ee5-9ced-9574ef307a23"
                    }
                ],
                "category": [
                    {
                        "coding": [
                            {
                                "system": "http://terminology.hl7.org/CodeSystem/observation-category",
                                "code": "vital-signs"
                            }
                        ]
                    }
                ],
                "status": "final",
                "code": {
                    "coding": [
                        {
                            "code": "8462-4",
                            "display": "BP Diastolic",
                            "system": "http://loinc.org"
                        }
                    ]
                },
                "effectiveDateTime": "2011-09-01",
                "valueQuantity": {
                    "value": 80,
                    "unit": "mm[Hg]"
                },
                "interpretation": [
                    {
                        "coding": [
                            {
                                "code": "N",
                                "system": "http://terminology.hl7.org/CodeSystem/v3-ObservationInterpretation"
                            }
                        ]
                    }
                ],
                "subject": {
                    "reference": "Patient/cda927a1-eaee-30f8-8925-957700ad6f38"
                }
            },
            "request": {
                "method": "PUT",
                "url": "Observation/9e8d2544-a770-3590-80cf-5ae656273d23"
            }
        },
        {
            "fullUrl": "urn:uuid:93cefd04-2931-36f5-a841-3540cad10349",
            "resource": {
                "resourceType": "Observation",
                "meta": {
                    "profile": [
                        "http://hl7.org/fhir/us/core/StructureDefinition/us-core-observationresults"
                    ]
                },
                "id": "93cefd04-2931-36f5-a841-3540cad10349",
                "identifier": [
                    {
                        "system": "urn:ietf:rfc:3986",
                        "value": "urn:uuid:c12ecaaf-53f8-4593-8f79-359aeaa3948b"
                    }
                ],
                "status": "final",
                "code": {
                    "coding": [
                        {
                            "code": "75275-8",
                            "display": "Cognitive function",
                            "system": "http://loinc.org"
                        }
                    ]
                },
                "effectiveDateTime": "2013-07-31",
                "valueCodeableConcept": {
                    "coding": [
                        {
                            "code": "11163003",
                            "display": "Intact",
                            "system": "http://snomed.info/sct"
                        }
                    ]
                },
                "subject": {
                    "reference": "Patient/cda927a1-eaee-30f8-8925-957700ad6f38"
                },
                "performer": [
                    {
                        "reference": "Practitioner/d276aed6-83a7-313b-b45b-d59f2aafe9ad"
                    }
                ]
            },
            "request": {
                "method": "PUT",
                "url": "Observation/93cefd04-2931-36f5-a841-3540cad10349"
            }
        },
        {
            "fullUrl": "urn:uuid:d276aed6-83a7-313b-b45b-d59f2aafe9ad",
            "resource": {
                "resourceType": "Practitioner",
                "meta": {
                    "profile": [
                        "http://hl7.org/fhir/us/core/StructureDefinition/us-core-practitioner"
                    ]
                },
                "id": "d276aed6-83a7-313b-b45b-d59f2aafe9ad",
                "identifier": [
                    {
                        "system": "urn:oid:2.16.840.1.113883.19.5",
                        "value": "KP00017"
                    }
                ],
                "name": [
                    {
                        "family": "Amanda",
                        "given": [
                            "Assigned"
                        ]
                    }
                ],
                "address": [
                    {
                        "line": [
                            "1003 Health Care Drive"
                        ],
                        "city": "Ann Arbor",
                        "state": "MI",
                        "country": "US",
                        "postalCode": "02368"
                    }
                ],
                "telecom": [
                    {
                        "system": "phone",
                        "value": "+1(555)555-1003",
                        "use": "work"
                    }
                ]
            },
            "request": {
                "method": "PUT",
                "url": "Practitioner/d276aed6-83a7-313b-b45b-d59f2aafe9ad"
            }
        },
        {
            "fullUrl": "urn:uuid:d56688ce-f403-36e7-b10e-01d9405be52a",
            "resource": {
                "resourceType": "Observation",
                "meta": {
                    "profile": [
                        "http://hl7.org/fhir/us/core/StructureDefinition/us-core-observationresults"
                    ]
                },
                "id": "d56688ce-f403-36e7-b10e-01d9405be52a",
                "identifier": [
                    {
                        "system": "urn:ietf:rfc:3986",
                        "value": "urn:uuid:c6b5a04b-2bf4-49d1-8336-636a3813df0a"
                    }
                ],
                "status": "final",
                "code": {
                    "coding": [
                        {
                            "code": "75275-8",
                            "display": "Cognitive function",
                            "system": "http://loinc.org"
                        }
                    ]
                },
                "effectiveDateTime": "2013-07-31",
                "valueCodeableConcept": {
                    "coding": [
                        {
                            "code": "61372001",
                            "display": "Aggressive behavior",
                            "system": "http://snomed.info/sct"
                        }
                    ]
                },
                "subject": {
                    "reference": "Patient/cda927a1-eaee-30f8-8925-957700ad6f38"
                },
                "performer": [
                    {
                        "reference": "Practitioner/d276aed6-83a7-313b-b45b-d59f2aafe9ad"
                    }
                ]
            },
            "request": {
                "method": "PUT",
                "url": "Observation/d56688ce-f403-36e7-b10e-01d9405be52a"
            }
        },
        {
            "fullUrl": "urn:uuid:7836496b-7bbc-33af-8a03-a89c81712800",
            "resource": {
                "resourceType": "Observation",
                "meta": {
                    "profile": [
                        "http://hl7.org/fhir/us/core/StructureDefinition/us-core-observationresults"
                    ]
                },
                "id": "7836496b-7bbc-33af-8a03-a89c81712800",
                "identifier": [
                    {
                        "system": "urn:ietf:rfc:3986",
                        "value": "urn:uuid:c6b5a04b-2bf4-49d1-8336-636a3813df0a"
                    }
                ],
                "status": "final",
                "code": {
                    "coding": [
                        {
                            "code": "75275-8",
                            "display": "Cognitive function",
                            "system": "http://loinc.org"
                        }
                    ]
                },
                "effectiveDateTime": "2013-07-31",
                "valueCodeableConcept": {
                    "coding": [
                        {
                            "code": "286569004",
                            "display": "difficulty understanding own emotions",
                            "system": "http://snomed.info/sct"
                        }
                    ]
                },
                "subject": {
                    "reference": "Patient/cda927a1-eaee-30f8-8925-957700ad6f38"
                },
                "performer": [
                    {
                        "reference": "Practitioner/d276aed6-83a7-313b-b45b-d59f2aafe9ad"
                    }
                ]
            },
            "request": {
                "method": "PUT",
                "url": "Observation/7836496b-7bbc-33af-8a03-a89c81712800"
            }
        },
        {
            "fullUrl": "urn:uuid:cde2ff22-a1cc-3d17-91cf-2d2e1eae5e6c",
            "resource": {
                "resourceType": "Observation",
                "meta": {
                    "profile": [
                        "http://hl7.org/fhir/us/core/StructureDefinition/us-core-observationresults"
                    ]
                },
                "id": "cde2ff22-a1cc-3d17-91cf-2d2e1eae5e6c",
                "identifier": [
                    {
                        "system": "urn:ietf:rfc:3986",
                        "value": "urn:uuid:c6b5a04b-2bf4-49d1-8336-636a3813df0a"
                    }
                ],
                "status": "final",
                "code": {
                    "coding": [
                        {
                            "code": "75275-8",
                            "display": "Cognitive function",
                            "system": "http://loinc.org"
                        }
                    ]
                },
                "effectiveDateTime": "2013-07-31",
                "valueCodeableConcept": {
                    "coding": [
                        {
                            "code": "288760009",
                            "display": "difficulty communicating thoughts",
                            "system": "http://snomed.info/sct"
                        }
                    ]
                },
                "subject": {
                    "reference": "Patient/cda927a1-eaee-30f8-8925-957700ad6f38"
                },
                "performer": [
                    {
                        "reference": "Practitioner/d276aed6-83a7-313b-b45b-d59f2aafe9ad"
                    }
                ]
            },
            "request": {
                "method": "PUT",
                "url": "Observation/cde2ff22-a1cc-3d17-91cf-2d2e1eae5e6c"
            }
        },
        {
            "fullUrl": "urn:uuid:0dca51e3-a4db-35c3-9ed0-63d342e43f05",
            "resource": {
                "resourceType": "Observation",
                "meta": {
                    "profile": [
                        "http://hl7.org/fhir/us/core/StructureDefinition/us-core-observationresults"
                    ]
                },
                "id": "0dca51e3-a4db-35c3-9ed0-63d342e43f05",
                "identifier": [
                    {
                        "system": "urn:ietf:rfc:3986",
                        "value": "urn:uuid:c12ecaaf-53f8-4593-8f79-359aeaa3948b"
                    }
                ],
                "status": "final",
                "code": {
                    "coding": [
                        {
                            "code": "75305-3",
                            "display": "Nutrition status ",
                            "system": "http://loinc.org"
                        }
                    ]
                },
                "effectiveDateTime": "2013-05-12",
                "valueCodeableConcept": {
                    "coding": [
                        {
                            "code": "248324001",
                            "display": "well nourished",
                            "system": "http://snomed.info/sct"
                        }
                    ]
                },
                "subject": {
                    "reference": "Patient/cda927a1-eaee-30f8-8925-957700ad6f38"
                }
            },
            "request": {
                "method": "PUT",
                "url": "Observation/0dca51e3-a4db-35c3-9ed0-63d342e43f05"
            }
        },
        {
            "fullUrl": "urn:uuid:13f750c9-bd38-3579-8f0d-9072cb2192bf",
            "resource": {
                "resourceType": "Observation",
                "meta": {
                    "profile": [
                        "http://hl7.org/fhir/us/core/StructureDefinition/us-core-observationresults"
                    ]
                },
                "id": "13f750c9-bd38-3579-8f0d-9072cb2192bf",
                "identifier": [
                    {
                        "system": "urn:ietf:rfc:3986",
                        "value": "urn:uuid:ab1791b0-5c71-11db-b0de-0800200c9a66"
                    }
                ],
                "status": "final",
                "code": {
                    "coding": [
                        {
                            "code": "75303-8",
                            "display": "Nutrition assessment",
                            "system": "http://loinc.org"
                        }
                    ]
                },
                "effectiveDateTime": "2013-05-12",
                "valueCodeableConcept": {
                    "coding": [
                        {
                            "code": "386619000",
                            "display": "low sodium diet (finding)",
                            "system": "http://snomed.info/sct"
                        }
                    ]
                },
                "subject": {
                    "reference": "Patient/cda927a1-eaee-30f8-8925-957700ad6f38"
                },
                "performer": [
                    {
                        "reference": "Practitioner/59f03d66-d1fe-3b14-adbf-483a56746c05"
                    }
                ]
            },
            "request": {
                "method": "PUT",
                "url": "Observation/13f750c9-bd38-3579-8f0d-9072cb2192bf"
            }
        },
        {
            "fullUrl": "urn:uuid:ead5f792-905c-3229-ac07-2f43669ab881",
            "resource": {
                "resourceType": "Observation",
                "meta": {
                    "profile": [
                        "http://hl7.org/fhir/us/core/StructureDefinition/us-core-observationresults"
                    ]
                },
                "id": "ead5f792-905c-3229-ac07-2f43669ab881",
                "identifier": [
                    {
                        "system": "urn:ietf:rfc:3986",
                        "value": "urn:uuid:ab1791b0-5c71-11db-b0de-0800200c9a66"
                    }
                ],
                "status": "final",
                "code": {
                    "coding": [
                        {
                            "code": "75303-8",
                            "display": "Nutrition assessment",
                            "system": "http://loinc.org"
                        }
                    ]
                },
                "effectiveDateTime": "2013-05-12",
                "valueCodeableConcept": {
                    "coding": [
                        {
                            "code": "430186007",
                            "display": "excessive dietary carbohydrate intake(finding)",
                            "system": "http://snomed.info/sct"
                        }
                    ]
                },
                "subject": {
                    "reference": "Patient/cda927a1-eaee-30f8-8925-957700ad6f38"
                },
                "performer": [
                    {
                        "reference": "Practitioner/59f03d66-d1fe-3b14-adbf-483a56746c05"
                    }
                ]
            },
            "request": {
                "method": "PUT",
                "url": "Observation/ead5f792-905c-3229-ac07-2f43669ab881"
            }
        },
        {
            "fullUrl": "urn:uuid:73a0f25a-8c0b-3eba-9e1e-4ea83ecfa8a5",
            "resource": {
                "resourceType": "DocumentReference",
                "id": "73a0f25a-8c0b-3eba-9e1e-4ea83ecfa8a5",
                "type": {
                    "coding": [
                        {
                            "code": "11488-4",
                            "display": "Consultation Note",
                            "system": "http://loinc.org"
                        }
                    ]
                },
                "date": "2020-09-30T03:00:41.285Z",
                "status": "current",
                "content": [
                    {
                        "attachment": {
                            "contentType": "text/plain",
                            "data": "",
                            "hash": "UT39LS3rAlYqAejfXEcfC3Bj1Wg="
                        }
                    }
                ]
            },
            "request": {
                "method": "PUT",
                "url": "DocumentReference/73a0f25a-8c0b-3eba-9e1e-4ea83ecfa8a5"
            }
        }
    ]
}