{
    "resourceType": "Bundle",
    "type": "batch",
    "entry": [
        {
            "fullUrl": "urn:uuid:3ba05ecf-af04-3f25-b66b-730849660c94",
            "resource": {
                "resourceType": "Composition",
                "id": "3ba05ecf-af04-3f25-b66b-730849660c94",
                "identifier": {
                    "use": "official",
                    "value": "TT101"
                },
                "status": "final",
                "type": {
                    "coding": [
                        {
                            "code": "34133-9",
                            "display": "Summarization of Episode Note",
                            "system": "http://loinc.org"
                        }
                    ]
                },
                "date": "2022-10-05T20:39:35.000Z",
                "title": "Data for Alice Newman, starting 10/05/1922, ending 10/05/2022",
                "confidentiality": "N",
                "event": [
                    {
                        "period": {
                            "start": "1922-10-05"
                        }
                    }
                ],
                "section": [
                    {
                        "title": "ALLERGIES AND ADVERSE REACTIONS",
                        "text": {
                            "status": "generated",
                            "div": "<div xmlns=\"http://www.w3.org/1999/xhtml\">ALLERGIES AND ADVERSE REACTIONS</div>"
                        },
                        "code": {
                            "coding": [
                                {
                                    "code": "48765-2",
                                    "display": "Allergies, adverse reactions, alerts",
                                    "system": "http://loinc.org"
                                }
                            ]
                        },
                        "mode": "snapshot",
                        "entry": [
                            {
                                "reference": "AllergyIntolerance/9479343c-b13d-3660-81a1-457ceeb026bc",
                                "display": "Ampicillin"
                            },
                            {
                                "reference": "AllergyIntolerance/dbf65039-a373-3320-ae82-53a6bd124f8c",
                                "display": "Penicillin G benzathine"
                            }
                        ]
                    },
                    {
                        "title": "ASSESSMENTS",
                        "text": {
                            "status": "generated",
                            "div": "<div xmlns=\"http://www.w3.org/1999/xhtml\">ASSESSMENTS</div>"
                        },
                        "code": {
                            "coding": [
                                {
                                    "code": "51848-0",
                                    "display": "Assessments",
                                    "system": "http://loinc.org"
                                }
                            ]
                        },
                        "mode": "snapshot"
                    },
                    {
                        "title": "ENCOUNTERS",
                        "text": {
                            "status": "generated",
                            "div": "<div xmlns=\"http://www.w3.org/1999/xhtml\">ENCOUNTERS</div>"
                        },
                        "code": {
                            "coding": [
                                {
                                    "code": "46240-8",
                                    "display": "Encounters",
                                    "system": "http://loinc.org"
                                }
                            ]
                        },
                        "mode": "snapshot",
                        "entry": [
                            {
                                "reference": "Encounter/7f48df99-f176-3194-945c-8cefd80797f0"
                            }
                        ]
                    },
                    {
                        "title": "Functional Status",
                        "text": {
                            "status": "generated",
                            "div": "<div xmlns=\"http://www.w3.org/1999/xhtml\">Functional Status</div>"
                        },
                        "code": {
                            "coding": [
                                {
                                    "code": "47420-5",
                                    "display": "Functional Status",
                                    "system": "http://loinc.org"
                                }
                            ]
                        },
                        "mode": "snapshot"
                    },
                    {
                        "title": "Goal Section",
                        "text": {
                            "status": "generated",
                            "div": "<div xmlns=\"http://www.w3.org/1999/xhtml\">Goal Section</div>"
                        },
                        "code": {
                            "coding": [
                                {
                                    "code": "61146-7",
                                    "display": "Goals",
                                    "system": "http://loinc.org"
                                }
                            ]
                        },
                        "mode": "snapshot"
                    },
                    {
                        "title": "Health Concerns Section",
                        "text": {
                            "status": "generated",
                            "div": "<div xmlns=\"http://www.w3.org/1999/xhtml\">Health Concerns Section</div>"
                        },
                        "code": {
                            "coding": [
                                {
                                    "code": "75310-3",
                                    "display": "Health Concerns Document",
                                    "system": "http://loinc.org"
                                }
                            ]
                        },
                        "mode": "snapshot"
                    },
                    {
                        "title": "IMMUNIZATIONS",
                        "text": {
                            "status": "generated",
                            "div": "<div xmlns=\"http://www.w3.org/1999/xhtml\">IMMUNIZATIONS</div>"
                        },
                        "code": {
                            "coding": [
                                {
                                    "code": "11369-6",
                                    "display": "Immunizations",
                                    "system": "http://loinc.org"
                                }
                            ]
                        },
                        "mode": "snapshot",
                        "entry": [
                            {
                                "reference": "Immunization/0e997141-6785-3ffc-b924-be7ae4909949"
                            },
                            {
                                "reference": "Immunization/d3a379e4-3e54-3d04-a87b-b8ed08559270"
                            },
                            {
                                "reference": "Immunization/d236c7d3-00d8-30cd-9768-74dc22434715"
                            }
                        ]
                    },
                    {
                        "title": "Implants",
                        "text": {
                            "status": "generated",
                            "div": "<div xmlns=\"http://www.w3.org/1999/xhtml\">Implants</div>"
                        },
                        "code": {
                            "coding": [
                                {
                                    "code": "46264-8",
                                    "display": "Medical Equipment",
                                    "system": "http://loinc.org"
                                }
                            ]
                        },
                        "mode": "snapshot",
                        "entry": [
                            {
                                "reference": "Device/e5ce5c69-43e5-38ee-89bb-ec0e53496856"
                            },
                            {
                                "reference": "Device/f4e986c4-de01-3dc9-9d0e-3b9ba54d9d4a"
                            }
                        ]
                    },
                    {
                        "title": "MEDICATIONS",
                        "text": {
                            "status": "generated",
                            "div": "<div xmlns=\"http://www.w3.org/1999/xhtml\">MEDICATIONS</div>"
                        },
                        "code": {
                            "coding": [
                                {
                                    "code": "10160-0",
                                    "display": "History of medication use",
                                    "system": "http://loinc.org"
                                }
                            ]
                        },
                        "mode": "snapshot",
                        "entry": [
                            {
                                "reference": "MedicationStatement/c77b3a4d-4a0c-3e36-a5fa-f3b82f110b33"
                            },
                            {
                                "reference": "MedicationStatement/dacde7c5-90b2-3341-a9ef-9fe359cf0fbb"
                            },
                            {
                                "reference": "MedicationStatement/ea23932c-b9af-3660-a756-709f36206632"
                            },
                            {
                                "reference": "MedicationStatement/fbf38e38-05c6-369b-9524-f3df14fe522b"
                            }
                        ]
                    },
                    {
                        "title": "MENTAL STATUS",
                        "text": {
                            "status": "generated",
                            "div": "<div xmlns=\"http://www.w3.org/1999/xhtml\">MENTAL STATUS</div>"
                        },
                        "code": {
                            "coding": [
                                {
                                    "code": "10190-7",
                                    "display": "MENTAL STATUS",
                                    "system": "http://loinc.org"
                                }
                            ]
                        },
                        "mode": "snapshot"
                    },
                    {
                        "title": "Plan of Treatment",
                        "text": {
                            "status": "generated",
                            "div": "<div xmlns=\"http://www.w3.org/1999/xhtml\">Plan of Treatment</div>"
                        },
                        "code": {
                            "coding": [
                                {
                                    "code": "18776-5",
                                    "display": "Plan of Care",
                                    "system": "http://loinc.org"
                                }
                            ]
                        },
                        "mode": "snapshot",
                        "entry": [
                            {
                                "reference": "CarePlan/1d7a2724-7c8d-38ec-a8c2-8d354c20bb61"
                            }
                        ]
                    },
                    {
                        "title": "Problem List",
                        "text": {
                            "status": "generated",
                            "div": "<div xmlns=\"http://www.w3.org/1999/xhtml\">Problem List</div>"
                        },
                        "code": {
                            "coding": [
                                {
                                    "code": "11450-4",
                                    "display": "Problem List",
                                    "system": "http://loinc.org"
                                }
                            ]
                        },
                        "mode": "snapshot",
                        "entry": [
                            {
                                "reference": "Condition/9dc4d3e8-5989-3974-8f5c-4480272aab66"
                            },
                            {
                                "reference": "Condition/b29ac1c7-888f-338d-8e19-3fe50ae5b772"
                            },
                            {
                                "reference": "Condition/86e40458-61e4-3d79-a8cc-10adbc5fa5f4"
                            },
                            {
                                "reference": "Condition/8acd8e83-1726-31f2-a0fa-322d78a67886"
                            },
                            {
                                "reference": "Condition/77d371a7-341d-3149-86ff-bb8e4cd4f861"
                            }
                        ]
                    },
                    {
                        "title": "PROCEDURES",
                        "text": {
                            "status": "generated",
                            "div": "<div xmlns=\"http://www.w3.org/1999/xhtml\">PROCEDURES</div>"
                        },
                        "code": {
                            "coding": [
                                {
                                    "code": "47519-4",
                                    "display": "History of Procedures",
                                    "system": "http://loinc.org"
                                }
                            ]
                        },
                        "mode": "snapshot",
                        "entry": [
                            {
                                "reference": "Procedure/d2e2dde3-6720-31e7-b5b3-e55ea84e9afd"
                            },
                            {
                                "reference": "Procedure/c00837f0-22d5-300c-b93b-0ffc0a4e6d36"
                            }
                        ]
                    },
                    {
                        "title": "Results",
                        "text": {
                            "status": "generated",
                            "div": "<div xmlns=\"http://www.w3.org/1999/xhtml\">Results</div>"
                        },
                        "code": {
                            "coding": [
                                {
                                    "code": "30954-2",
                                    "display": "Relevant diagnostic tests and/or laboratory data",
                                    "system": "http://loinc.org"
                                }
                            ]
                        },
                        "mode": "snapshot",
                        "entry": [
                            {
                                "reference": "DiagnosticReport/f262001c-5c63-3ca9-9e5b-c96e3755f2f9"
                            },
                            {
                                "reference": "DiagnosticReport/1039e84c-879b-3396-ad4d-f9cf0749def2"
                            }
                        ]
                    },
                    {
                        "title": "Social History",
                        "text": {
                            "status": "generated",
                            "div": "<div xmlns=\"http://www.w3.org/1999/xhtml\">Social History</div>"
                        },
                        "code": {
                            "coding": [
                                {
                                    "code": "29762-2",
                                    "display": "Social History",
                                    "system": "http://loinc.org"
                                }
                            ]
                        },
                        "mode": "snapshot",
                        "entry": [
                            {
                                "reference": "Observation/b368718c-55df-36bb-9d28-069e32c83207",
                                "display": "Assertion"
                            },
                            {
                                "reference": "Observation/709c0bb8-8f5b-388b-99ea-a64ab5caec1f"
                            },
                            {
                                "reference": "Observation/57b6b838-470d-34ff-8ef0-679a3e40b47e"
                            }
                        ]
                    },
                    {
                        "title": "Vitals",
                        "text": {
                            "status": "generated",
                            "div": "<div xmlns=\"http://www.w3.org/1999/xhtml\">Vitals</div>"
                        },
                        "code": {
                            "coding": [
                                {
                                    "code": "8716-3",
                                    "display": "Vital Signs",
                                    "system": "http://loinc.org"
                                }
                            ]
                        },
                        "mode": "snapshot",
                        "entry": [
                            {
                                "reference": "Observation/7aafd289-1ca6-358f-96aa-3007cd7ecce1",
                                "display": "Inhaled oxygen concentration"
                            },
                            {
                                "reference": "Observation/8484410f-1274-3dbf-9474-1c35a0fa6290",
                                "display": "Blood pressure panel with all children optional"
                            },
                            {
                                "reference": "Observation/26b487e9-f6b3-3ec8-9429-1f9d68191bba",
                                "display": "Body height"
                            },
                            {
                                "reference": "Observation/29df401f-71cd-3db1-ae9d-58ca43179c2d",
                                "display": "Body Temperature"
                            },
                            {
                                "reference": "Observation/9a805705-cc50-33c8-9789-b574f62c1cfc",
                                "display": "Oxygen saturation in Arterial blood by Pulse oximetry"
                            },
                            {
                                "reference": "Observation/e22b2219-7c4e-3b7f-a570-035462be9b4d",
                                "display": "Heart Rate"
                            },
                            {
                                "reference": "Observation/ded9347c-a4f5-349c-86ff-1890b01c02c1",
                                "display": "Respiratory Rate"
                            },
                            {
                                "reference": "Observation/001ad12b-d972-3c32-9dde-d8942c463cf6",
                                "display": "Body weight"
                            },
                            {
                                "reference": "Observation/8195a62a-47de-3058-95dd-46d4b787c505",
                                "display": "Body weight"
                            },
                            {
                                "reference": "Observation/e0728d50-c25e-3924-b6d7-27daa19c85ac",
                                "display": "Blood pressure panel with all children optional"
                            },
                            {
                                "reference": "Observation/ee364c00-e8cc-38f4-a7d5-fb7568d8098f",
                                "display": "Body height"
                            },
                            {
                                "reference": "Observation/b4fbcb97-060f-3d7d-b4b9-bbadf84bcd54",
                                "display": "Blood pressure panel with all children optional"
                            }
                        ]
                    },
                    {
                        "title": "REASON FOR REFERRAL",
                        "text": {
                            "status": "generated",
                            "div": "<div xmlns=\"http://www.w3.org/1999/xhtml\">REASON FOR REFERRAL</div>"
                        },
                        "code": {
                            "coding": [
                                {
                                    "code": "42349-1",
                                    "display": "Reason for Referral",
                                    "system": "http://loinc.org"
                                }
                            ]
                        },
                        "mode": "snapshot"
                    }
                ],
                "subject": {
                    "reference": "Patient/f40da2df-7505-315a-9acb-55513a02c37b"
                },
                "custodian": {
                    "reference": "Organization/3bfc3db2-cf06-379a-88cb-03444c877632"
                },
                "author": [
                    {
                        "reference": "Practitioner/17763d72-7526-32d1-a535-e60859682208"
                    },
                    {
                        "reference": "Practitioner/ead05b2c-8f43-3a9f-946d-1553f5aaa816"
                    }
                ]
            },
            "request": {
                "method": "PUT",
                "url": "Composition/3ba05ecf-af04-3f25-b66b-730849660c94"
            }
        },
        {
            "fullUrl": "urn:uuid:3bfc3db2-cf06-379a-88cb-03444c877632",
            "resource": {
                "resourceType": "Organization",
                "id": "3bfc3db2-cf06-379a-88cb-03444c877632",
                "identifier": [
                    {
                        "system": "http://hl7.org/fhir/sid/us-npi",
                        "value": "99999999"
                    }
                ],
                "active": true,
                "name": "Iora Health",
                "address": [
                    {
                        "line": [
                            "101 Tremont Street, 6th Floor"
                        ],
                        "city": "Boston",
                        "state": "MA",
                        "country": "US",
                        "postalCode": "02108"
                    }
                ],
                "telecom": [
                    {
                        "system": "phone",
                        "value": "617-454-4672",
                        "use": "work"
                    }
                ]
            },
            "request": {
                "method": "PUT",
                "url": "Organization/3bfc3db2-cf06-379a-88cb-03444c877632"
            }
        },
        {
            "fullUrl": "urn:uuid:17763d72-7526-32d1-a535-e60859682208",
            "resource": {
                "resourceType": "Practitioner",
                "meta": {
                    "profile": [
                        "http://hl7.org/fhir/us/core/StructureDefinition/us-core-practitioner"
                    ]
                },
                "id": "17763d72-7526-32d1-a535-e60859682208",
                "identifier": [
                    {
                        "system": "http://hl7.org/fhir/sid/us-npi",
                        "value": "99999999"
                    }
                ],
                "name": [
                    {
                        "family": "Davis",
                        "given": [
                            "Albert"
                        ]
                    }
                ],
                "address": [
                    {
                        "line": [
                            "2472, Rocky  place"
                        ],
                        "city": "Beaverton",
                        "state": "OR",
                        "country": "US",
                        "postalCode": "97006"
                    }
                ],
                "telecom": [
                    {
                        "system": "phone",
                        "value": "555-555-1002",
                        "use": "work"
                    }
                ],
                "qualification": [
                    {
                        "code": {
                            "coding": [
                                {
                                    "code": "200000000X",
                                    "display": "Neighborhood Physicians Practice",
                                    "system": "http://nucc.org/provider-taxonomy"
                                }
                            ]
                        }
                    }
                ]
            },
            "request": {
                "method": "PUT",
                "url": "Practitioner/17763d72-7526-32d1-a535-e60859682208"
            }
        },
        {
            "fullUrl": "urn:uuid:604a79b8-d538-3959-a3ef-5ac66ee03e08",
            "resource": {
                "resourceType": "Location",
                "id": "604a79b8-d538-3959-a3ef-5ac66ee03e08",
                "identifier": [
                    {
                        "system": "http://hl7.org/fhir/sid/us-npi",
                        "value": "99999999"
                    }
                ],
                "address": {
                    "line": [
                        "2472, Rocky  place"
                    ],
                    "city": "Beaverton",
                    "state": "OR",
                    "country": "US",
                    "postalCode": "97006"
                },
                "telecom": [
                    {
                        "system": "phone",
                        "value": "555-555-1002",
                        "use": "work"
                    }
                ],
                "type": [
                    {
                        "coding": [
                            {
                                "code": "200000000X",
                                "display": "Neighborhood Physicians Practice",
                                "system": "http://nucc.org/provider-taxonomy"
                            }
                        ]
                    }
                ]
            },
            "request": {
                "method": "PUT",
                "url": "Location/604a79b8-d538-3959-a3ef-5ac66ee03e08"
            }
        },
        {
            "fullUrl": "urn:uuid:ead05b2c-8f43-3a9f-946d-1553f5aaa816",
            "resource": {
                "resourceType": "Practitioner",
                "meta": {
                    "profile": [
                        "http://hl7.org/fhir/us/core/StructureDefinition/us-core-practitioner"
                    ]
                },
                "id": "ead05b2c-8f43-3a9f-946d-1553f5aaa816",
                "identifier": [
                    {
                        "system": "http://hl7.org/fhir/sid/us-npi",
                        "value": "999999943252"
                    }
                ],
                "name": [
                    {
                        "family": "Davis",
                        "given": [
                            "Tracy"
                        ]
                    }
                ],
                "address": [
                    {
                        "line": [
                            "2472, Rocky  place"
                        ],
                        "city": "Beaverton",
                        "state": "OR",
                        "country": "US",
                        "postalCode": "97006"
                    }
                ],
                "telecom": [
                    {
                        "system": "phone",
                        "value": "555-555-1002",
                        "use": "work"
                    }
                ]
            },
            "request": {
                "method": "PUT",
                "url": "Practitioner/ead05b2c-8f43-3a9f-946d-1553f5aaa816"
            }
        },
        {
            "fullUrl": "urn:uuid:f40da2df-7505-315a-9acb-55513a02c37b",
            "resource": {
                "resourceType": "Patient",
                "meta": {
                    "profile": [
                        "http://hl7.org/fhir/us/core/StructureDefinition/us-core-patient"
                    ]
                },
                "id": "f40da2df-7505-315a-9acb-55513a02c37b",
                "identifier": [
                    {
                        "system": "urn:oid:2.16.840.1.113883.19.5.99999.2",
                        "value": "998991"
                    }
                ],
                "name": [
                    {
                        "family": "Newman",
                        "given": [
                            "Alice",
                            "Jones"
                        ],
                        "suffix": [
                            "Jr."
                        ]
                    },
                    {
                        "use": "old",
                        "family": "Newman",
                        "given": [
                            "Alicia",
                            "Jones"
                        ],
                        "suffix": [
                            "Jr."
                        ]
                    }
                ],
                "active": true,
                "birthDate": "1970-05-01",
                "gender": "female",
                "extension": [
                    {
                        "url": "http://hl7.org/fhir/us/core/StructureDefinition/us-core-race",
                        "extension": [
                            {
                                "url": "ombCategory",
                                "valueCoding": {
                                    "code": "2106-3",
                                    "display": "White",
                                    "system": "urn:oid:2.16.840.1.113883.6.238"
                                }
                            },
                            {
                                "url": "detailed",
                                "valueCoding": {
                                    "code": "2108-9",
                                    "display": "European",
                                    "system": "urn:oid:2.16.840.1.113883.6.238"
                                }
                            },
                            {
                                "url": "text",
                                "valueString": "Mixed"
                            }
                        ]
                    },
                    {
                        "url": "http://hl7.org/fhir/us/core/StructureDefinition/us-core-ethnicity",
                        "extension": [
                            {
                                "url": "ombCategory",
                                "valueCoding": {
                                    "code": "2186-5",
                                    "display": "Not Hispanic or Latino",
                                    "system": "urn:oid:2.16.840.1.113883.6.238"
                                }
                            },
                            {
                                "url": "text",
                                "valueString": "Not Hispanic or Latino"
                            }
                        ]
                    },
                    {
                        "url": "http://hl7.org/fhir/us/core/StructureDefinition/us-core-birthsex",
                        "valueCode": "F"
                    }
                ],
                "address": [
                    {
                        "line": [
                            "1357, Amber Dr"
                        ],
                        "city": "Beaverton",
                        "state": "OR",
                        "country": "US",
                        "postalCode": "97006",
                        "period": {
                            "start": "1970-05-01"
                        }
                    }
                ],
                "telecom": [
                    {
                        "system": "phone",
                        "value": "(555)723-1544",
                        "use": "home"
                    },
                    {
                        "system": "phone",
                        "value": "(555)777-1234",
                        "use": "mobile"
                    }
                ],
                "communication": [
                    {
                        "language": {
                            "coding": [
                                {
                                    "system": "urn:ietf:bcp:47",
                                    "code": "en",
                                    "display": "English"
                                }
                            ]
                        },
                        "preferred": true
                    }
                ],
                "generalPractitioner": [
                    {
                        "reference": "Practitioner/17763d72-7526-32d1-a535-e60859682208"
                    }
                ],
                "managingOrganization": {
                    "reference": "Organization/3bfc3db2-cf06-379a-88cb-03444c877632"
                }
            },
            "request": {
                "method": "PUT",
                "url": "Patient/f40da2df-7505-315a-9acb-55513a02c37b"
            }
        },
        {
            "resource": {
                "resourceType": "Provenance",
                "id": "c41344e6-ba6e-379a-a1a1-8c93956220c3",
                "target": [
                    {
                        "reference": "Patient/f40da2df-7505-315a-9acb-55513a02c37b"
                    },
                    {
                        "reference": "CareTeam/17763d72-7526-32d1-a535-e60859682208"
                    },
                    {
                        "reference": "AllergyIntolerance/24109387-32b9-3d29-805b-4fa8c7a04f2b"
                    },
                    {
                        "reference": "AllergyIntolerance/90815537-8a45-37a1-b513-e597a7925aff"
                    },
                    {
                        "reference": "MedicationRequest/5e3716f6-92ad-343c-bc8b-6322d08f79eb"
                    },
                    {
                        "reference": "MedicationRequest/4723a31a-3ade-32a6-92c7-66b26fbfac9b"
                    },
                    {
                        "reference": "MedicationRequest/e3abc386-befb-387c-ae18-29bb9b4cfff6"
                    },
                    {
                        "reference": "MedicationRequest/0152b62b-03ff-3b5a-8485-d27281423c07"
                    },
                    {
                        "reference": "Condition/ffb4b66f-cffb-3afe-a9e7-d75534d088f3"
                    },
                    {
                        "reference": "Condition/e85a5f6b-a9b4-3f86-a9d7-7095e485351b"
                    },
                    {
                        "reference": "Condition/081341a3-b007-34b2-ad29-d010dad2ddf6"
                    },
                    {
                        "reference": "Condition/e2717651-459a-32eb-a348-427144ccf9cd"
                    },
                    {
                        "reference": "Condition/767e0192-6340-39d6-9075-7520af641c48"
                    },
                    {
                        "reference": "DiagnosticReport/5d97bc72-ad8e-3ec1-ba6e-9e2fbc14edc4"
                    },
                    {
                        "reference": "Observation/0b0e0475-2d10-3603-b986-b7f1349e8000"
                    },
                    {
                        "reference": "Observation/62cb1f93-d38e-32c5-9012-3eeb14df375d"
                    },
                    {
                        "reference": "Observation/5f7e3e87-056e-3047-a43b-8bf64576d8d7"
                    },
                    {
                        "reference": "Observation/97110af5-e131-372c-bcd2-600b4c24c792"
                    },
                    {
                        "reference": "Observation/2b870515-5409-3a8d-94f5-db90c38f8f01"
                    },
                    {
                        "reference": "Observation/5d14afd3-6271-3140-bfc0-9df43184c096"
                    },
                    {
                        "reference": "Observation/9ed161aa-0ee3-36a7-a02f-b7e53f1b864f"
                    },
                    {
                        "reference": "DiagnosticReport/00af7faf-7df9-3545-b0ba-6c0609d78291"
                    },
                    {
                        "reference": "Observation/f54a0190-0f9f-3051-9c8a-0e119c21ecd0"
                    },
                    {
                        "reference": "Observation/e547f21e-9f3b-3368-b546-05393f577394"
                    },
                    {
                        "reference": "Observation/dd5a0dd1-e58c-34b6-8460-b18686169d0c"
                    },
                    {
                        "reference": "Observation/fcc079c2-3b24-374c-98f0-15156bf19553"
                    },
                    {
                        "reference": "Observation/bd02d10a-b656-34db-b3a5-ae0fd97194f9"
                    },
                    {
                        "reference": "Observation/f3f76197-1bda-31f3-817e-206f72626013"
                    },
                    {
                        "reference": "Observation/4893d915-1bce-32c9-a50a-4432570b4404"
                    },
                    {
                        "reference": "Observation/889886cd-0df5-3ea5-afb3-39cb8e8f4f18"
                    },
                    {
                        "reference": "Observation/ba364293-9fd9-34e0-8709-3bae3dd5fa45"
                    },
                    {
                        "reference": "Observation/c9bc6a0e-a670-3b3a-834b-d61f976642fc"
                    },
                    {
                        "reference": "Observation/b8a8e92d-fc94-3cba-8b13-62b635aee332"
                    },
                    {
                        "reference": "Observation/4b2bada9-e138-3497-a020-5547b9e76921"
                    },
                    {
                        "reference": "Observation/dbfddaed-1b11-317b-a3ff-33b829f723d1"
                    },
                    {
                        "reference": "Observation/11c099a0-2fc0-3ad7-9cf0-d7a720ea5cfe"
                    },
                    {
                        "reference": "Observation/a4bd6cbd-b9f8-3780-b7a8-9d3adda61e52"
                    },
                    {
                        "reference": "Observation/c1762f6c-b896-3183-ad94-0aa1c4beab15"
                    },
                    {
                        "reference": "Procedure/efc450f1-bf82-3df2-91ab-52a0ab34168f"
                    },
                    {
                        "reference": "Procedure/dc960e37-29ed-34c8-a651-c832b045ed95"
                    },
                    {
                        "reference": "CareTeam/8dadbd15-5ce2-38a3-96e8-4cec32df08b3"
                    },
                    {
                        "reference": "Condition/5cc82207-7aef-3468-82b7-470e1322f31e"
                    },
                    {
                        "reference": "Goal/8ce55388-9d68-3702-9064-be0267bb6e3d"
                    },
                    {
                        "reference": "Immunization/0e997141-6785-3ffc-b924-be7ae4909949"
                    },
                    {
                        "reference": "Immunization/d3a379e4-3e54-3d04-a87b-b8ed08559270"
                    },
                    {
                        "reference": "Immunization/d236c7d3-00d8-30cd-9768-74dc22434715"
                    },
                    {
                        "reference": "Device/296600cb-6150-34cf-b1d0-9eacc07cc506"
                    },
                    {
                        "reference": "Device/b094e726-a50f-36b2-9bc7-a6e02151f14a"
                    },
                    {
                        "reference": "DocumentReference/2d604404-36dd-3cc4-98bb-18f22e92f102"
                    }
                ],
                "recorded": "2019-10-16T09:58:28.000Z",
                "agent": [
                    {
                        "type": {
                            "coding": [
                                {
                                    "system": "http://terminology.hl7.org/CodeSystem/provenance-participant-type",
                                    "code": "author",
                                    "display": "Author"
                                }
                            ],
                            "text": "Author"
                        },
                        "who": {
                            "reference": "Practitioner/17763d72-7526-32d1-a535-e60859682208",
                            "display": "Albert Davis"
                        },
                        "onBehalfOf": {
                            "reference": "Organization/3bfc3db2-cf06-379a-88cb-03444c877632",
                            "display": "Iora Health"
                        }
                    },
                    {
                        "type": {
                            "coding": [
                                {
                                    "system": "http://hl7.org/fhir/us/core/CodeSystem/us-core-provenance-participant-type",
                                    "code": "transmitter",
                                    "display": "Transmitter"
                                }
                            ],
                            "text": "Transmitter"
                        },
                        "who": {
                            "reference": "Practitioner/ead05b2c-8f43-3a9f-946d-1553f5aaa816",
                            "display": "Tracy Davis"
                        },
                        "onBehalfOf": {
                            "reference": "Organization/3bfc3db2-cf06-379a-88cb-03444c877632",
                            "display": "Iora Health"
                        }
                    }
                ]
            },
            "fullUrl": "urn:uuid:c41344e6-ba6e-379a-a1a1-8c93956220c3",
            "request": {
                "method": "PUT",
                "url": "Provenance/c41344e6-ba6e-379a-a1a1-8c93956220c3"
            }
        },
        {
            "fullUrl": "urn:uuid:17763d72-7526-32d1-a535-e60859682208",
            "resource": {
                "resourceType": "CareTeam",
                "id": "17763d72-7526-32d1-a535-e60859682208",
                "identifier": [
                    {
                        "system": "http://hl7.org/fhir/sid/us-npi",
                        "value": "99999999"
                    }
                ],
                "name": "USCoreCareTeam",
                "status": "active",
                "telecom": [
                    {
                        "system": "phone",
                        "value": "555-555-1002",
                        "use": "work"
                    }
                ],
                "participant": [
                    {
                        "role": [
                            {
                                "coding": [
                                    {
                                        "system": "http://snomed.info/sct",
                                        "code": "116154003",
                                        "display": "Patient"
                                    }
                                ],
                                "text": "Patient"
                            }
                        ],
                        "member": {
                            "reference": "Patient/f40da2df-7505-315a-9acb-55513a02c37b"
                        }
                    },
                    {
                        "role": [
                            {
                                "coding": [
                                    {
                                        "system": "http://snomed.info/sct",
                                        "code": "432100008",
                                        "display": "Health coach"
                                    }
                                ],
                                "text": "Healthcare professional (occupation)"
                            }
                        ],
                        "member": {
                            "reference": "Practitioner/ead05b2c-8f43-3a9f-946d-1553f5aaa816",
                            "display": "Tracy Davis"
                        }
                    },
                    {
                        "role": [
                            {
                                "coding": [
                                    {
                                        "system": "http://snomed.info/sct",
                                        "code": "309343006",
                                        "display": "Physician (occupation)"
                                    }
                                ],
                                "text": "Physician (occupation)"
                            }
                        ],
                        "member": {
                            "reference": "Practitioner/17763d72-7526-32d1-a535-e60859682208",
                            "display": "Albert Davis"
                        }
                    }
                ],
                "subject": {
                    "reference": "Patient/f40da2df-7505-315a-9acb-55513a02c37b"
                }
            },
            "request": {
                "method": "PUT",
                "url": "CareTeam/17763d72-7526-32d1-a535-e60859682208"
            }
        },
        {
            "fullUrl": "urn:uuid:24109387-32b9-3d29-805b-4fa8c7a04f2b",
            "resource": {
                "resourceType": "AllergyIntolerance",
                "id": "24109387-32b9-3d29-805b-4fa8c7a04f2b",
                "identifier": [
                    {
                        "system": "urn:ietf:rfc:3986",
                        "value": "urn:uuid:1bad93bd-4570-47e3-9e2a-8d098c8b39a6"
                    }
                ],
                "clinicalStatus": {
                    "coding": [
                        {
                            "system": "http://terminology.hl7.org/CodeSystem/allergyintolerance-clinical",
                            "code": "active"
                        }
                    ]
                },
                "verificationStatus": {
                    "coding": [
                        {
                            "system": "http://terminology.hl7.org/CodeSystem/allergyintolerance-verification",
                            "code": "confirmed",
                            "display": "Confirmed"
                        }
                    ]
                },
                "code": {
                    "coding": [
                        {
                            "code": "247472004",
                            "display": "Hives",
                            "system": "http://snomed.info/sct"
                        }
                    ]
                },
                "reaction": [
                    {
                        "substance": {
                            "coding": [
                                {
                                    "code": "733",
                                    "display": "Ampicillin",
                                    "system": "http://www.nlm.nih.gov/research/umls/rxnorm"
                                }
                            ]
                        },
                        "manifestation": [
                            {
                                "coding": [
                                    {
                                        "code": "247472004",
                                        "display": "Hives",
                                        "system": "http://snomed.info/sct"
                                    }
                                ]
                            }
                        ]
                    }
                ],
                "onsetDateTime": "1980-10-05",
                "patient": {
                    "reference": "Patient/f40da2df-7505-315a-9acb-55513a02c37b"
                }
            },
            "request": {
                "method": "PUT",
                "url": "AllergyIntolerance/24109387-32b9-3d29-805b-4fa8c7a04f2b"
            }
        },
        {
            "fullUrl": "urn:uuid:90815537-8a45-37a1-b513-e597a7925aff",
            "resource": {
                "resourceType": "AllergyIntolerance",
                "id": "90815537-8a45-37a1-b513-e597a7925aff",
                "identifier": [
                    {
                        "system": "urn:ietf:rfc:3986",
                        "value": "urn:uuid:cf35156a-b146-443c-86bb-4f7ffcbb8917"
                    }
                ],
                "clinicalStatus": {
                    "coding": [
                        {
                            "system": "http://terminology.hl7.org/CodeSystem/allergyintolerance-clinical",
                            "code": "active"
                        }
                    ]
                },
                "verificationStatus": {
                    "coding": [
                        {
                            "system": "http://terminology.hl7.org/CodeSystem/allergyintolerance-verification",
                            "code": "confirmed",
                            "display": "Confirmed"
                        }
                    ]
                },
                "code": {
                    "coding": [
                        {
                            "code": "247472004",
                            "display": "Hives",
                            "system": "http://snomed.info/sct"
                        }
                    ]
                },
                "reaction": [
                    {
                        "substance": {
                            "coding": [
                                {
                                    "code": "7980",
                                    "display": "Penicillin G benzathine",
                                    "system": "http://www.nlm.nih.gov/research/umls/rxnorm"
                                }
                            ]
                        },
                        "manifestation": [
                            {
                                "coding": [
                                    {
                                        "code": "247472004",
                                        "display": "Hives",
                                        "system": "http://snomed.info/sct"
                                    }
                                ]
                            }
                        ]
                    }
                ],
                "onsetDateTime": "1980-10-05",
                "patient": {
                    "reference": "Patient/f40da2df-7505-315a-9acb-55513a02c37b"
                }
            },
            "request": {
                "method": "PUT",
                "url": "AllergyIntolerance/90815537-8a45-37a1-b513-e597a7925aff"
            }
        },
        {
            "fullUrl": "urn:uuid:6020aa7b-2a84-319b-bbaa-e2b5cfc5c94f",
            "resource": {
                "resourceType": "MedicationStatement",
                "id": "6020aa7b-2a84-319b-bbaa-e2b5cfc5c94f",
                "identifier": [
                    {
                        "system": "urn:ietf:rfc:3986",
                        "value": "urn:uuid:06c862ea-3e8f-42b6-b4a7-0699149e1caa"
                    }
                ],
                "status": "active",
                "effectivePeriod": {
                    "start": "2015-06-22"
                },
                "dosage": [
                    {
                        "text": "Inject 1 syringe intramuscularly once a week",
                        "doseAndRate": [
                            {
                                "doseQuantity": {
                                    "value": 1
                                }
                            }
                        ]
                    }
                ],
                "subject": {
                    "reference": "Patient/f40da2df-7505-315a-9acb-55513a02c37b"
                },
                "medicationReference": {
                    "reference": "Medication/a6491cac-c1ee-3c02-a78e-063c467a9350"
                }
            },
            "request": {
                "method": "PUT",
                "url": "MedicationStatement/6020aa7b-2a84-319b-bbaa-e2b5cfc5c94f"
            }
        },
        {
            "fullUrl": "urn:uuid:a6491cac-c1ee-3c02-a78e-063c467a9350",
            "resource": {
                "resourceType": "Medication",
                "id": "a6491cac-c1ee-3c02-a78e-063c467a9350",
                "code": {
                    "coding": [
                        {
                            "code": "731241",
                            "display": "Aranesp (in polysorbate) 500 mcg/mL syringe",
                            "system": "http://www.nlm.nih.gov/research/umls/rxnorm"
                        }
                    ]
                }
            },
            "request": {
                "method": "PUT",
                "url": "Medication/a6491cac-c1ee-3c02-a78e-063c467a9350"
            }
        },
        {
            "fullUrl": "urn:uuid:5e3716f6-92ad-343c-bc8b-6322d08f79eb",
            "resource": {
                "resourceType": "MedicationRequest",
                "id": "5e3716f6-92ad-343c-bc8b-6322d08f79eb",
                "identifier": [
                    {
                        "system": "urn:ietf:rfc:3986",
                        "value": "urn:uuid:06c862ea-3e8f-42b6-b4a7-0699149e1caa"
                    }
                ],
                "intent": "order",
                "status": "active",
                "reportedBoolean": false,
                "authoredOn": "2015-06-22",
                "dosageInstruction": [
                    {
                        "text": "Inject 1 syringe intramuscularly once a week",
                        "doseAndRate": [
                            {
                                "doseQuantity": {
                                    "value": 1
                                }
                            }
                        ]
                    }
                ],
                "subject": {
                    "reference": "Patient/f40da2df-7505-315a-9acb-55513a02c37b"
                },
                "medicationReference": {
                    "reference": "Medication/a6491cac-c1ee-3c02-a78e-063c467a9350"
                },
                "requester": {
                    "reference": "Practitioner/77feb0a0-c8a6-342a-98da-5b3375442250"
                }
            },
            "request": {
                "method": "PUT",
                "url": "MedicationRequest/5e3716f6-92ad-343c-bc8b-6322d08f79eb"
            }
        },
        {
            "fullUrl": "urn:uuid:77feb0a0-c8a6-342a-98da-5b3375442250",
            "resource": {
                "resourceType": "Practitioner",
                "meta": {
                    "profile": [
                        "http://hl7.org/fhir/us/core/StructureDefinition/us-core-practitioner"
                    ]
                },
                "id": "77feb0a0-c8a6-342a-98da-5b3375442250",
                "identifier": [
                    {
                        "system": "http://hl7.org/fhir/sid/us-npi",
                        "value": "99999999"
                    }
                ],
                "name": [
                    {
                        "family": "Zelaznik",
                        "given": [
                            "Steve"
                        ]
                    }
                ],
                "telecom": [
                    {
                        "system": "phone",
                        "value": "UNK",
                        "use": "work"
                    }
                ],
                "qualification": [
                    {
                        "code": {
                            "coding": [
                                {
                                    "code": "UNK"
                                }
                            ]
                        }
                    }
                ]
            },
            "request": {
                "method": "PUT",
                "url": "Practitioner/77feb0a0-c8a6-342a-98da-5b3375442250"
            }
        },
        {
            "fullUrl": "urn:uuid:4723a31a-3ade-32a6-92c7-66b26fbfac9b",
            "resource": {
                "resourceType": "MedicationStatement",
                "id": "4723a31a-3ade-32a6-92c7-66b26fbfac9b",
                "identifier": [
                    {
                        "system": "urn:ietf:rfc:3986",
                        "value": "urn:uuid:7a87e413-9f02-472f-a744-c9b2fa6d37be"
                    }
                ],
                "status": "active",
                "effectivePeriod": {
                    "start": "2022-09-13"
                },
                "dosage": [
                    {
                        "text": "Take 1 tablet by mouth once a day",
                        "doseAndRate": [
                            {
                                "doseQuantity": {
                                    "value": 1
                                }
                            }
                        ]
                    }
                ],
                "subject": {
                    "reference": "Patient/f40da2df-7505-315a-9acb-55513a02c37b"
                },
                "medicationReference": {
                    "reference": "Medication/3a5b2405-cbc2-3370-a18d-a4c96b12a816"
                }
            },
            "request": {
                "method": "PUT",
                "url": "MedicationStatement/4723a31a-3ade-32a6-92c7-66b26fbfac9b"
            }
        },
        {
            "fullUrl": "urn:uuid:3a5b2405-cbc2-3370-a18d-a4c96b12a816",
            "resource": {
                "resourceType": "Medication",
                "id": "3a5b2405-cbc2-3370-a18d-a4c96b12a816",
                "code": {
                    "coding": [
                        {
                            "code": "308460",
                            "display": "azithromycin 250 mg tablet",
                            "system": "http://www.nlm.nih.gov/research/umls/rxnorm"
                        }
                    ]
                }
            },
            "request": {
                "method": "PUT",
                "url": "Medication/3a5b2405-cbc2-3370-a18d-a4c96b12a816"
            }
        },
        {
            "fullUrl": "urn:uuid:4723a31a-3ade-32a6-92c7-66b26fbfac9b",
            "resource": {
                "resourceType": "MedicationRequest",
                "id": "4723a31a-3ade-32a6-92c7-66b26fbfac9b",
                "identifier": [
                    {
                        "system": "urn:ietf:rfc:3986",
                        "value": "urn:uuid:7a87e413-9f02-472f-a744-c9b2fa6d37be"
                    }
                ],
                "intent": "plan",
                "status": "active",
                "reportedBoolean": true,
                "authoredOn": "2022-09-13",
                "dosageInstruction": [
                    {
                        "text": "Take 1 tablet by mouth once a day",
                        "doseAndRate": [
                            {
                                "doseQuantity": {
                                    "value": 1
                                }
                            }
                        ]
                    }
                ],
                "subject": {
                    "reference": "Patient/f40da2df-7505-315a-9acb-55513a02c37b"
                },
                "requester": {
                    "reference": "Patient/f40da2df-7505-315a-9acb-55513a02c37b"
                },
                "medicationReference": {
                    "reference": "Medication/3a5b2405-cbc2-3370-a18d-a4c96b12a816"
                }
            },
            "request": {
                "method": "PUT",
                "url": "MedicationRequest/4723a31a-3ade-32a6-92c7-66b26fbfac9b"
            }
        },
        {
            "fullUrl": "urn:uuid:b88415ec-031b-32ae-99b6-24c3cf915093",
            "resource": {
                "resourceType": "MedicationStatement",
                "id": "b88415ec-031b-32ae-99b6-24c3cf915093",
                "identifier": [
                    {
                        "system": "urn:ietf:rfc:3986",
                        "value": "urn:uuid:1e4a9a25-acb7-4b01-97a7-24de9823d54d"
                    }
                ],
                "status": "active",
                "effectivePeriod": {
                    "start": "2015-06-22"
                },
                "dosage": [
                    {
                        "text": "Inject 1 unit twice a day as directed",
                        "doseAndRate": [
                            {
                                "doseQuantity": {
                                    "value": 1
                                }
                            }
                        ]
                    }
                ],
                "subject": {
                    "reference": "Patient/f40da2df-7505-315a-9acb-55513a02c37b"
                },
                "medicationReference": {
                    "reference": "Medication/0ca58338-80c4-3637-8f7f-2ad7a174d09c"
                }
            },
            "request": {
                "method": "PUT",
                "url": "MedicationStatement/b88415ec-031b-32ae-99b6-24c3cf915093"
            }
        },
        {
            "fullUrl": "urn:uuid:0ca58338-80c4-3637-8f7f-2ad7a174d09c",
            "resource": {
                "resourceType": "Medication",
                "id": "0ca58338-80c4-3637-8f7f-2ad7a174d09c",
                "code": {
                    "coding": [
                        {
                            "code": "309090",
                            "display": "ceftriaxone 10 gram recon soln",
                            "system": "http://www.nlm.nih.gov/research/umls/rxnorm"
                        }
                    ]
                }
            },
            "request": {
                "method": "PUT",
                "url": "Medication/0ca58338-80c4-3637-8f7f-2ad7a174d09c"
            }
        },
        {
            "fullUrl": "urn:uuid:e3abc386-befb-387c-ae18-29bb9b4cfff6",
            "resource": {
                "resourceType": "MedicationRequest",
                "id": "e3abc386-befb-387c-ae18-29bb9b4cfff6",
                "identifier": [
                    {
                        "system": "urn:ietf:rfc:3986",
                        "value": "urn:uuid:1e4a9a25-acb7-4b01-97a7-24de9823d54d"
                    }
                ],
                "intent": "order",
                "status": "active",
                "reportedBoolean": false,
                "authoredOn": "2015-06-22",
                "dosageInstruction": [
                    {
                        "text": "Inject 1 unit twice a day as directed",
                        "doseAndRate": [
                            {
                                "doseQuantity": {
                                    "value": 1
                                }
                            }
                        ]
                    }
                ],
                "subject": {
                    "reference": "Patient/f40da2df-7505-315a-9acb-55513a02c37b"
                },
                "medicationReference": {
                    "reference": "Medication/0ca58338-80c4-3637-8f7f-2ad7a174d09c"
                },
                "requester": {
                    "reference": "Practitioner/77feb0a0-c8a6-342a-98da-5b3375442250"
                }
            },
            "request": {
                "method": "PUT",
                "url": "MedicationRequest/e3abc386-befb-387c-ae18-29bb9b4cfff6"
            }
        },
        {
            "fullUrl": "urn:uuid:ac203f97-10be-3435-8de9-060d7697a3d8",
            "resource": {
                "resourceType": "MedicationStatement",
                "id": "ac203f97-10be-3435-8de9-060d7697a3d8",
                "identifier": [
                    {
                        "system": "urn:ietf:rfc:3986",
                        "value": "urn:uuid:fe67c617-6728-4221-a2d2-2af3705dbcea"
                    }
                ],
                "status": "active",
                "effectivePeriod": {
                    "start": "2015-06-22"
                },
                "dosage": [
                    {
                        "text": "Take 1 tablet by mouth as needed",
                        "doseAndRate": [
                            {
                                "doseQuantity": {
                                    "value": 1
                                }
                            }
                        ]
                    }
                ],
                "subject": {
                    "reference": "Patient/f40da2df-7505-315a-9acb-55513a02c37b"
                },
                "medicationReference": {
                    "reference": "Medication/f1bf406b-00cb-333d-bfe9-1c9e0a070162"
                }
            },
            "request": {
                "method": "PUT",
                "url": "MedicationStatement/ac203f97-10be-3435-8de9-060d7697a3d8"
            }
        },
        {
            "fullUrl": "urn:uuid:f1bf406b-00cb-333d-bfe9-1c9e0a070162",
            "resource": {
                "resourceType": "Medication",
                "id": "f1bf406b-00cb-333d-bfe9-1c9e0a070162",
                "code": {
                    "coding": [
                        {
                            "code": "209459",
                            "display": "Tylenol Extra Strength 500 mg tablet",
                            "system": "http://www.nlm.nih.gov/research/umls/rxnorm"
                        }
                    ]
                }
            },
            "request": {
                "method": "PUT",
                "url": "Medication/f1bf406b-00cb-333d-bfe9-1c9e0a070162"
            }
        },
        {
            "fullUrl": "urn:uuid:0152b62b-03ff-3b5a-8485-d27281423c07",
            "resource": {
                "resourceType": "MedicationRequest",
                "id": "0152b62b-03ff-3b5a-8485-d27281423c07",
                "identifier": [
                    {
                        "system": "urn:ietf:rfc:3986",
                        "value": "urn:uuid:fe67c617-6728-4221-a2d2-2af3705dbcea"
                    }
                ],
                "intent": "order",
                "status": "active",
                "reportedBoolean": false,
                "authoredOn": "2015-06-22",
                "dosageInstruction": [
                    {
                        "text": "Take 1 tablet by mouth as needed",
                        "doseAndRate": [
                            {
                                "doseQuantity": {
                                    "value": 1
                                }
                            }
                        ]
                    }
                ],
                "subject": {
                    "reference": "Patient/f40da2df-7505-315a-9acb-55513a02c37b"
                },
                "medicationReference": {
                    "reference": "Medication/f1bf406b-00cb-333d-bfe9-1c9e0a070162"
                },
                "requester": {
                    "reference": "Practitioner/77feb0a0-c8a6-342a-98da-5b3375442250"
                }
            },
            "request": {
                "method": "PUT",
                "url": "MedicationRequest/0152b62b-03ff-3b5a-8485-d27281423c07"
            }
        },
        {
            "fullUrl": "urn:uuid:ffb4b66f-cffb-3afe-a9e7-d75534d088f3",
            "resource": {
                "resourceType": "Condition",
                "id": "ffb4b66f-cffb-3afe-a9e7-d75534d088f3",
                "identifier": [
                    {
                        "system": "urn:ietf:rfc:3986",
                        "value": "urn:uuid:1.3.6.1.4.1.22812.4.111.0.4.1.32939"
                    }
                ],
                "verificationStatus": {
                    "coding": [
                        {
                            "system": "http://terminology.hl7.org/CodeSystem/condition-ver-status",
                            "code": "confirmed"
                        }
                    ]
                },
                "category": [
                    {
                        "coding": [
                            {
                                "system": "http://snomed.info/sct",
                                "code": "55607006",
                                "display": "Problem"
                            },
                            {
                                "system": "http://terminology.hl7.org/CodeSystem/condition-category",
                                "code": "problem-list-item"
                            }
                        ]
                    }
                ],
                "clinicalStatus": {
                    "coding": [
                        {
                            "system": "http://terminology.hl7.org/CodeSystem/condition-clinical",
                            "code": "inactive"
                        }
                    ]
                },
                "code": {
                    "coding": [
                        {
                            "code": "244.8",
                            "display": "Other specified acquired hypothyroidism",
                            "system": "urn:oid:2.16.840.1.113883.6.103"
                        }
                    ]
                },
                "onsetDateTime": "2006-12-31T05:00:00.000Z",
                "subject": {
                    "reference": "Patient/f40da2df-7505-315a-9acb-55513a02c37b"
                }
            },
            "request": {
                "method": "PUT",
                "url": "Condition/ffb4b66f-cffb-3afe-a9e7-d75534d088f3"
            }
        },
        {
            "fullUrl": "urn:uuid:e85a5f6b-a9b4-3f86-a9d7-7095e485351b",
            "resource": {
                "resourceType": "Condition",
                "id": "e85a5f6b-a9b4-3f86-a9d7-7095e485351b",
                "identifier": [
                    {
                        "system": "urn:ietf:rfc:3986",
                        "value": "urn:uuid:1.3.6.1.4.1.22812.4.111.0.4.1.32940"
                    }
                ],
                "verificationStatus": {
                    "coding": [
                        {
                            "system": "http://terminology.hl7.org/CodeSystem/condition-ver-status",
                            "code": "confirmed"
                        }
                    ]
                },
                "category": [
                    {
                        "coding": [
                            {
                                "system": "http://snomed.info/sct",
                                "code": "55607006",
                                "display": "Problem"
                            },
                            {
                                "system": "http://terminology.hl7.org/CodeSystem/condition-category",
                                "code": "problem-list-item"
                            }
                        ]
                    }
                ],
                "clinicalStatus": {
                    "coding": [
                        {
                            "system": "http://terminology.hl7.org/CodeSystem/condition-clinical",
                            "code": "inactive"
                        }
                    ]
                },
                "code": {
                    "coding": [
                        {
                            "code": "996.81",
                            "display": "Complications of transplanted kidney",
                            "system": "urn:oid:2.16.840.1.113883.6.103"
                        }
                    ]
                },
                "onsetDateTime": "2011-12-31T05:00:00.000Z",
                "subject": {
                    "reference": "Patient/f40da2df-7505-315a-9acb-55513a02c37b"
                }
            },
            "request": {
                "method": "PUT",
                "url": "Condition/e85a5f6b-a9b4-3f86-a9d7-7095e485351b"
            }
        },
        {
            "fullUrl": "urn:uuid:081341a3-b007-34b2-ad29-d010dad2ddf6",
            "resource": {
                "resourceType": "Condition",
                "id": "081341a3-b007-34b2-ad29-d010dad2ddf6",
                "identifier": [
                    {
                        "system": "urn:ietf:rfc:3986",
                        "value": "urn:uuid:1.3.6.1.4.1.22812.4.111.0.4.1.32941"
                    }
                ],
                "verificationStatus": {
                    "coding": [
                        {
                            "system": "http://terminology.hl7.org/CodeSystem/condition-ver-status",
                            "code": "confirmed"
                        }
                    ]
                },
                "category": [
                    {
                        "coding": [
                            {
                                "system": "http://snomed.info/sct",
                                "code": "55607006",
                                "display": "Problem"
                            },
                            {
                                "system": "http://terminology.hl7.org/CodeSystem/condition-category",
                                "code": "problem-list-item"
                            }
                        ]
                    }
                ],
                "clinicalStatus": {
                    "coding": [
                        {
                            "system": "http://terminology.hl7.org/CodeSystem/condition-clinical",
                            "code": "inactive"
                        }
                    ]
                },
                "code": {
                    "coding": [
                        {
                            "code": "780.60",
                            "display": "Fever, unspecified",
                            "system": "urn:oid:2.16.840.1.113883.6.103"
                        }
                    ]
                },
                "onsetDateTime": "2015-06-22T04:00:00.000Z",
                "subject": {
                    "reference": "Patient/f40da2df-7505-315a-9acb-55513a02c37b"
                }
            },
            "request": {
                "method": "PUT",
                "url": "Condition/081341a3-b007-34b2-ad29-d010dad2ddf6"
            }
        },
        {
            "fullUrl": "urn:uuid:e2717651-459a-32eb-a348-427144ccf9cd",
            "resource": {
                "resourceType": "Condition",
                "id": "e2717651-459a-32eb-a348-427144ccf9cd",
                "identifier": [
                    {
                        "system": "urn:ietf:rfc:3986",
                        "value": "urn:uuid:1.3.6.1.4.1.22812.4.111.0.4.1.32938"
                    }
                ],
                "verificationStatus": {
                    "coding": [
                        {
                            "system": "http://terminology.hl7.org/CodeSystem/condition-ver-status",
                            "code": "confirmed"
                        }
                    ]
                },
                "category": [
                    {
                        "coding": [
                            {
                                "system": "http://snomed.info/sct",
                                "code": "55607006",
                                "display": "Problem"
                            },
                            {
                                "system": "http://terminology.hl7.org/CodeSystem/condition-category",
                                "code": "problem-list-item"
                            }
                        ]
                    }
                ],
                "clinicalStatus": {
                    "coding": [
                        {
                            "system": "http://terminology.hl7.org/CodeSystem/condition-clinical",
                            "code": "inactive"
                        }
                    ]
                },
                "code": {
                    "coding": [
                        {
                            "code": "401.9",
                            "display": "Unspecified essential hypertension",
                            "system": "urn:oid:2.16.840.1.113883.6.103"
                        }
                    ]
                },
                "onsetDateTime": "2011-10-05T04:00:00.000Z",
                "subject": {
                    "reference": "Patient/f40da2df-7505-315a-9acb-55513a02c37b"
                }
            },
            "request": {
                "method": "PUT",
                "url": "Condition/e2717651-459a-32eb-a348-427144ccf9cd"
            }
        },
        {
            "fullUrl": "urn:uuid:767e0192-6340-39d6-9075-7520af641c48",
            "resource": {
                "resourceType": "Condition",
                "id": "767e0192-6340-39d6-9075-7520af641c48",
                "identifier": [
                    {
                        "system": "urn:ietf:rfc:3986",
                        "value": "urn:uuid:1.3.6.1.4.1.22812.4.111.0.4.1.32942"
                    }
                ],
                "verificationStatus": {
                    "coding": [
                        {
                            "system": "http://terminology.hl7.org/CodeSystem/condition-ver-status",
                            "code": "confirmed"
                        }
                    ]
                },
                "category": [
                    {
                        "coding": [
                            {
                                "system": "http://snomed.info/sct",
                                "code": "55607006",
                                "display": "Problem"
                            },
                            {
                                "system": "http://terminology.hl7.org/CodeSystem/condition-category",
                                "code": "problem-list-item"
                            }
                        ]
                    }
                ],
                "clinicalStatus": {
                    "coding": [
                        {
                            "system": "http://terminology.hl7.org/CodeSystem/condition-clinical",
                            "code": "inactive"
                        }
                    ]
                },
                "code": {
                    "coding": [
                        {
                            "code": "278.02",
                            "display": "Overweight",
                            "system": "urn:oid:2.16.840.1.113883.6.103"
                        }
                    ]
                },
                "onsetDateTime": "2006-12-31T05:00:00.000Z",
                "subject": {
                    "reference": "Patient/f40da2df-7505-315a-9acb-55513a02c37b"
                }
            },
            "request": {
                "method": "PUT",
                "url": "Condition/767e0192-6340-39d6-9075-7520af641c48"
            }
        },
        {
            "fullUrl": "urn:uuid:5d97bc72-ad8e-3ec1-ba6e-9e2fbc14edc4",
            "resource": {
                "resourceType": "DiagnosticReport",
                "id": "5d97bc72-ad8e-3ec1-ba6e-9e2fbc14edc4",
                "identifier": [
                    {
                        "system": "urn:ietf:rfc:3986",
                        "value": "urn:uuid:25bed8b1-b2f3-44b4-8c3d-fcfbab7c14e3"
                    }
                ],
                "status": "final",
                "category": [
                    {
                        "coding": [
                            {
                                "system": "http://terminology.hl7.org/CodeSystem/v2-0074",
                                "code": "LAB",
                                "display": "Laboratory"
                            }
                        ]
                    }
                ],
                "code": {
                    "coding": [
                        {
                            "system": "http://terminology.hl7.org/CodeSystem/v2-0074",
                            "code": "LAB",
                            "display": "Urinanalysis macro (dipstick) panel"
                        }
                    ],
                    "text": "Urinanalysis macro (dipstick) panel"
                },
                "effectivePeriod": {
                    "start": "2015-06-22T00:00:00.000Z",
                    "end": "2015-06-22T00:00:00.000Z"
                },
                "issued": "2015-06-22T00:00:00.000Z",
                "subject": {
                    "reference": "Patient/f40da2df-7505-315a-9acb-55513a02c37b"
                },
                "result": [
                    {
                        "reference": "Observation/0b0e0475-2d10-3603-b986-b7f1349e8000"
                    },
                    {
                        "reference": "Observation/62cb1f93-d38e-32c5-9012-3eeb14df375d"
                    },
                    {
                        "reference": "Observation/5f7e3e87-056e-3047-a43b-8bf64576d8d7"
                    },
                    {
                        "reference": "Observation/97110af5-e131-372c-bcd2-600b4c24c792"
                    },
                    {
                        "reference": "Observation/2b870515-5409-3a8d-94f5-db90c38f8f01"
                    },
                    {
                        "reference": "Observation/5d14afd3-6271-3140-bfc0-9df43184c096"
                    },
                    {
                        "reference": "Observation/9ed161aa-0ee3-36a7-a02f-b7e53f1b864f"
                    }
                ]
            },
            "request": {
                "method": "PUT",
                "url": "DiagnosticReport/5d97bc72-ad8e-3ec1-ba6e-9e2fbc14edc4"
            }
        },
        {
            "fullUrl": "urn:uuid:0b0e0475-2d10-3603-b986-b7f1349e8000",
            "resource": {
                "resourceType": "Observation",
                "meta": {
                    "profile": [
                        "http://hl7.org/fhir/us/core/StructureDefinition/us-core-observationresults"
                    ]
                },
                "id": "0b0e0475-2d10-3603-b986-b7f1349e8000",
                "identifier": [
                    {
                        "system": "urn:ietf:rfc:3986",
                        "value": "urn:uuid:1fad0a02-c973-455c-b789-9b20bed8460d"
                    }
                ],
                "category": [
                    {
                        "coding": [
                            {
                                "system": "http://terminology.hl7.org/CodeSystem/observation-category",
                                "code": "laboratory"
                            }
                        ]
                    }
                ],
                "status": "final",
                "code": {
                    "coding": [
                        {
                            "code": "5778-6",
                            "display": "Color of Urine",
                            "system": "http://loinc.org"
                        }
                    ]
                },
                "effectiveDateTime": "2015-06-22T00:00:00.000Z",
                "issued": "2015-06-22T00:00:00.000Z",
                "valueString": "Yellow",
                "subject": {
                    "reference": "Patient/f40da2df-7505-315a-9acb-55513a02c37b"
                }
            },
            "request": {
                "method": "PUT",
                "url": "Observation/0b0e0475-2d10-3603-b986-b7f1349e8000"
            }
        },
        {
            "fullUrl": "urn:uuid:62cb1f93-d38e-32c5-9012-3eeb14df375d",
            "resource": {
                "resourceType": "Observation",
                "meta": {
                    "profile": [
                        "http://hl7.org/fhir/us/core/StructureDefinition/us-core-observationresults"
                    ]
                },
                "id": "62cb1f93-d38e-32c5-9012-3eeb14df375d",
                "identifier": [
                    {
                        "system": "urn:ietf:rfc:3986",
                        "value": "urn:uuid:a27d064d-a4b1-4288-9791-fd7802c250c3"
                    }
                ],
                "category": [
                    {
                        "coding": [
                            {
                                "system": "http://terminology.hl7.org/CodeSystem/observation-category",
                                "code": "laboratory"
                            }
                        ]
                    }
                ],
                "status": "final",
                "code": {
                    "coding": [
                        {
                            "code": "5767-9",
                            "display": "Appearance of Urine",
                            "system": "http://loinc.org"
                        }
                    ]
                },
                "effectiveDateTime": "2015-06-22T00:00:00.000Z",
                "issued": "2015-06-22T00:00:00.000Z",
                "valueString": "Clear",
                "subject": {
                    "reference": "Patient/f40da2df-7505-315a-9acb-55513a02c37b"
                }
            },
            "request": {
                "method": "PUT",
                "url": "Observation/62cb1f93-d38e-32c5-9012-3eeb14df375d"
            }
        },
        {
            "fullUrl": "urn:uuid:5f7e3e87-056e-3047-a43b-8bf64576d8d7",
            "resource": {
                "resourceType": "Observation",
                "meta": {
                    "profile": [
                        "http://hl7.org/fhir/us/core/StructureDefinition/us-core-observationresults"
                    ]
                },
                "id": "5f7e3e87-056e-3047-a43b-8bf64576d8d7",
                "identifier": [
                    {
                        "system": "urn:ietf:rfc:3986",
                        "value": "urn:uuid:b84033b3-7785-4f19-b6ec-643d690ecbab"
                    }
                ],
                "category": [
                    {
                        "coding": [
                            {
                                "system": "http://terminology.hl7.org/CodeSystem/observation-category",
                                "code": "laboratory"
                            }
                        ]
                    }
                ],
                "status": "final",
                "code": {
                    "coding": [
                        {
                            "code": "5811-5",
                            "display": "Specific gravity of Urine by Test strip",
                            "system": "http://loinc.org"
                        }
                    ]
                },
                "effectiveDateTime": "2015-06-22T00:00:00.000Z",
                "issued": "2015-06-22T00:00:00.000Z",
                "valueQuantity": {
                    "value": 1.015,
                    "unit": "1",
                    "system": "http://unitsofmeasure.org",
                    "code": "1"
                },
                "referenceRange": [
                    {
                        "low": {
                            "value": 1.005,
                            "unit": "1"
                        },
                        "high": {
                            "value": 1.03,
                            "unit": "1"
                        }
                    }
                ],
                "subject": {
                    "reference": "Patient/f40da2df-7505-315a-9acb-55513a02c37b"
                }
            },
            "request": {
                "method": "PUT",
                "url": "Observation/5f7e3e87-056e-3047-a43b-8bf64576d8d7"
            }
        },
        {
            "fullUrl": "urn:uuid:97110af5-e131-372c-bcd2-600b4c24c792",
            "resource": {
                "resourceType": "Observation",
                "meta": {
                    "profile": [
                        "http://hl7.org/fhir/us/core/StructureDefinition/us-core-observationresults"
                    ]
                },
                "id": "97110af5-e131-372c-bcd2-600b4c24c792",
                "identifier": [
                    {
                        "system": "urn:ietf:rfc:3986",
                        "value": "urn:uuid:1e5ec535-7056-4a43-b75c-826f848b4c03"
                    }
                ],
                "category": [
                    {
                        "coding": [
                            {
                                "system": "http://terminology.hl7.org/CodeSystem/observation-category",
                                "code": "laboratory"
                            }
                        ]
                    }
                ],
                "status": "final",
                "code": {
                    "coding": [
                        {
                            "code": "5803-2",
                            "display": "pH of Urine by Test strip",
                            "system": "http://loinc.org"
                        }
                    ]
                },
                "effectiveDateTime": "2015-06-22T00:00:00.000Z",
                "issued": "2015-06-22T00:00:00.000Z",
                "valueQuantity": {
                    "value": 5,
                    "unit": "[pH]",
                    "system": "http://unitsofmeasure.org",
                    "code": "[pH]"
                },
                "referenceRange": [
                    {
                        "low": {
                            "value": 5,
                            "unit": "[pH]"
                        },
                        "high": {
                            "value": 8,
                            "unit": "[pH]"
                        }
                    }
                ],
                "subject": {
                    "reference": "Patient/f40da2df-7505-315a-9acb-55513a02c37b"
                }
            },
            "request": {
                "method": "PUT",
                "url": "Observation/97110af5-e131-372c-bcd2-600b4c24c792"
            }
        },
        {
            "fullUrl": "urn:uuid:2b870515-5409-3a8d-94f5-db90c38f8f01",
            "resource": {
                "resourceType": "Observation",
                "meta": {
                    "profile": [
                        "http://hl7.org/fhir/us/core/StructureDefinition/us-core-observationresults"
                    ]
                },
                "id": "2b870515-5409-3a8d-94f5-db90c38f8f01",
                "identifier": [
                    {
                        "system": "urn:ietf:rfc:3986",
                        "value": "urn:uuid:60d40f28-f236-4e56-b155-c60363601f14"
                    }
                ],
                "category": [
                    {
                        "coding": [
                            {
                                "system": "http://terminology.hl7.org/CodeSystem/observation-category",
                                "code": "laboratory"
                            }
                        ]
                    }
                ],
                "status": "final",
                "code": {
                    "coding": [
                        {
                            "code": "5792-7",
                            "display": "Glucose[Mass/volume] in urine by test strip",
                            "system": "http://loinc.org"
                        }
                    ]
                },
                "effectiveDateTime": "2015-06-22T00:00:00.000Z",
                "issued": "2015-06-22T00:00:00.000Z",
                "valueQuantity": {
                    "value": 50,
                    "unit": "mg/dL",
                    "system": "http://unitsofmeasure.org",
                    "code": "mg/dL"
                },
                "subject": {
                    "reference": "Patient/f40da2df-7505-315a-9acb-55513a02c37b"
                }
            },
            "request": {
                "method": "PUT",
                "url": "Observation/2b870515-5409-3a8d-94f5-db90c38f8f01"
            }
        },
        {
            "fullUrl": "urn:uuid:5d14afd3-6271-3140-bfc0-9df43184c096",
            "resource": {
                "resourceType": "Observation",
                "meta": {
                    "profile": [
                        "http://hl7.org/fhir/us/core/StructureDefinition/us-core-observationresults"
                    ]
                },
                "id": "5d14afd3-6271-3140-bfc0-9df43184c096",
                "identifier": [
                    {
                        "system": "urn:ietf:rfc:3986",
                        "value": "urn:uuid:5b164b3d-7677-46a9-a9c2-f47562a58553"
                    }
                ],
                "category": [
                    {
                        "coding": [
                            {
                                "system": "http://terminology.hl7.org/CodeSystem/observation-category",
                                "code": "laboratory"
                            }
                        ]
                    }
                ],
                "status": "final",
                "code": {
                    "coding": [
                        {
                            "code": "5797-6",
                            "display": "Ketones[Mass/volume] in urine by test strip",
                            "system": "http://loinc.org"
                        }
                    ]
                },
                "effectiveDateTime": "2015-06-22T00:00:00.000Z",
                "issued": "2015-06-22T00:00:00.000Z",
                "valueString": "Negative",
                "subject": {
                    "reference": "Patient/f40da2df-7505-315a-9acb-55513a02c37b"
                }
            },
            "request": {
                "method": "PUT",
                "url": "Observation/5d14afd3-6271-3140-bfc0-9df43184c096"
            }
        },
        {
            "fullUrl": "urn:uuid:9ed161aa-0ee3-36a7-a02f-b7e53f1b864f",
            "resource": {
                "resourceType": "Observation",
                "meta": {
                    "profile": [
                        "http://hl7.org/fhir/us/core/StructureDefinition/us-core-observationresults"
                    ]
                },
                "id": "9ed161aa-0ee3-36a7-a02f-b7e53f1b864f",
                "identifier": [
                    {
                        "system": "urn:ietf:rfc:3986",
                        "value": "urn:uuid:4e789a55-b92b-451a-ab6b-d3ac68a76fb3"
                    }
                ],
                "category": [
                    {
                        "coding": [
                            {
                                "system": "http://terminology.hl7.org/CodeSystem/observation-category",
                                "code": "laboratory"
                            }
                        ]
                    }
                ],
                "status": "final",
                "code": {
                    "coding": [
                        {
                            "code": "5804-0",
                            "display": "Protein[Mass/volume] in urine by test strip",
                            "system": "http://loinc.org"
                        }
                    ]
                },
                "effectiveDateTime": "2015-06-22T00:00:00.000Z",
                "issued": "2015-06-22T00:00:00.000Z",
                "valueQuantity": {
                    "value": 100,
                    "unit": "mg/dL",
                    "system": "http://unitsofmeasure.org",
                    "code": "mg/dL"
                },
                "subject": {
                    "reference": "Patient/f40da2df-7505-315a-9acb-55513a02c37b"
                }
            },
            "request": {
                "method": "PUT",
                "url": "Observation/9ed161aa-0ee3-36a7-a02f-b7e53f1b864f"
            }
        },
        {
            "fullUrl": "urn:uuid:00af7faf-7df9-3545-b0ba-6c0609d78291",
            "resource": {
                "resourceType": "DiagnosticReport",
                "id": "00af7faf-7df9-3545-b0ba-6c0609d78291",
                "identifier": [
                    {
                        "system": "urn:ietf:rfc:3986",
                        "value": "urn:uuid:9465af18-bcf3-4d0e-9981-66c642a01345"
                    }
                ],
                "status": "final",
                "category": [
                    {
                        "coding": [
                            {
                                "system": "http://terminology.hl7.org/CodeSystem/v2-0074",
                                "code": "LAB",
                                "display": "Laboratory"
                            }
                        ]
                    }
                ],
                "code": {
                    "coding": [
                        {
                            "system": "http://terminology.hl7.org/CodeSystem/v2-0074",
                            "code": "LAB",
                            "display": "Chest X-ray 2 Views"
                        }
                    ],
                    "text": "Chest X-ray 2 Views"
                },
                "effectivePeriod": {
                    "start": "2015-06-22T00:00:00.000Z",
                    "end": "2015-06-22T00:00:00.000Z"
                },
                "issued": "2015-06-22T00:00:00.000Z",
                "subject": {
                    "reference": "Patient/f40da2df-7505-315a-9acb-55513a02c37b"
                },
                "result": [
                    {
                        "reference": "Observation/f54a0190-0f9f-3051-9c8a-0e119c21ecd0"
                    }
                ]
            },
            "request": {
                "method": "PUT",
                "url": "DiagnosticReport/00af7faf-7df9-3545-b0ba-6c0609d78291"
            }
        },
        {
            "fullUrl": "urn:uuid:f54a0190-0f9f-3051-9c8a-0e119c21ecd0",
            "resource": {
                "resourceType": "Observation",
                "meta": {
                    "profile": [
                        "http://hl7.org/fhir/us/core/StructureDefinition/us-core-observationresults"
                    ]
                },
                "id": "f54a0190-0f9f-3051-9c8a-0e119c21ecd0",
                "identifier": [
                    {
                        "system": "urn:ietf:rfc:3986",
                        "value": "urn:uuid:b97ac43e-f5c2-46b7-b4a8-62f9d32939f0"
                    }
                ],
                "category": [
                    {
                        "coding": [
                            {
                                "system": "http://terminology.hl7.org/CodeSystem/observation-category",
                                "code": "laboratory"
                            }
                        ]
                    }
                ],
                "status": "final",
                "code": {
                    "coding": [
                        {
                            "code": "36643-5",
                            "display": "Chest X-ray 2 Views",
                            "system": "http://loinc.org"
                        }
                    ]
                },
                "effectiveDateTime": "2015-06-22T00:00:00.000Z",
                "issued": "2015-06-22T00:00:00.000Z",
                "valueString": "Lungs are not clear, cannot rule out Anemia. Other tests are required to determine the presence or absence of Anemia.",
                "subject": {
                    "reference": "Patient/f40da2df-7505-315a-9acb-55513a02c37b"
                }
            },
            "request": {
                "method": "PUT",
                "url": "Observation/f54a0190-0f9f-3051-9c8a-0e119c21ecd0"
            }
        },
        {
            "fullUrl": "urn:uuid:e547f21e-9f3b-3368-b546-05393f577394",
            "resource": {
                "resourceType": "Observation",
                "meta": {
                    "profile": [
                        "http://hl7.org/fhir/us/core/StructureDefinition/us-core-observationresults"
                    ]
                },
                "id": "e547f21e-9f3b-3368-b546-05393f577394",
                "category": [
                    {
                        "coding": [
                            {
                                "system": "http://terminology.hl7.org/CodeSystem/observation-category",
                                "code": "social-history"
                            }
                        ]
                    }
                ],
                "status": "final",
                "code": {
                    "coding": [
                        {
                            "code": "ASSERTION",
                            "display": "Assertion",
                            "system": "urn:oid:2.16.840.1.113883.5.4"
                        }
                    ]
                },
                "effectiveDateTime": "2015-06-22T04:00:00.000Z",
                "issued": "2015-06-22T04:00:00.000Z",
                "valueCodeableConcept": {
                    "coding": [
                        {
                            "code": "449868002",
                            "display": "Smokes tobacco daily",
                            "system": "http://snomed.info/sct"
                        }
                    ]
                },
                "subject": {
                    "reference": "Patient/f40da2df-7505-315a-9acb-55513a02c37b"
                }
            },
            "request": {
                "method": "PUT",
                "url": "Observation/e547f21e-9f3b-3368-b546-05393f577394"
            }
        },
        {
            "fullUrl": "urn:uuid:dd5a0dd1-e58c-34b6-8460-b18686169d0c",
            "resource": {
                "resourceType": "Observation",
                "meta": {
                    "profile": [
                        "http://hl7.org/fhir/us/core/StructureDefinition/us-core-observationresults"
                    ]
                },
                "id": "dd5a0dd1-e58c-34b6-8460-b18686169d0c",
                "category": [
                    {
                        "coding": [
                            {
                                "system": "http://terminology.hl7.org/CodeSystem/observation-category",
                                "code": "social-history"
                            }
                        ]
                    }
                ],
                "status": "final",
                "code": {
                    "coding": [
                        {
                            "code": "76689-9",
                            "system": "http://loinc.org"
                        }
                    ]
                },
                "valueCodeableConcept": {
                    "coding": [
                        {
                            "code": "F",
                            "display": "Female",
                            "system": "urn:oid:2.16.840.1.113883.5.1"
                        }
                    ]
                },
                "subject": {
                    "reference": "Patient/f40da2df-7505-315a-9acb-55513a02c37b"
                }
            },
            "request": {
                "method": "PUT",
                "url": "Observation/dd5a0dd1-e58c-34b6-8460-b18686169d0c"
            }
        },
        {
            "fullUrl": "urn:uuid:fcc079c2-3b24-374c-98f0-15156bf19553",
            "resource": {
                "resourceType": "Observation",
                "meta": {
                    "profile": [
                        "http://hl7.org/fhir/us/core/StructureDefinition/us-core-observationresults"
                    ]
                },
                "id": "fcc079c2-3b24-374c-98f0-15156bf19553",
                "category": [
                    {
                        "coding": [
                            {
                                "system": "http://terminology.hl7.org/CodeSystem/observation-category",
                                "code": "social-history"
                            }
                        ]
                    }
                ],
                "status": "final",
                "code": {
                    "coding": [
                        {
                            "code": "72166-2",
                            "system": "http://loinc.org"
                        }
                    ]
                },
                "effectivePeriod": {
                    "start": "2015-06-22T04:00:00.000Z"
                },
                "issued": "2015-06-22T04:00:00.000Z",
                "valueCodeableConcept": {
                    "coding": [
                        {
                            "code": "8517006",
                            "display": "Former Smoker",
                            "system": "http://snomed.info/sct"
                        }
                    ]
                },
                "subject": {
                    "reference": "Patient/f40da2df-7505-315a-9acb-55513a02c37b"
                }
            },
            "request": {
                "method": "PUT",
                "url": "Observation/fcc079c2-3b24-374c-98f0-15156bf19553"
            }
        },
        {
            "fullUrl": "urn:uuid:bd02d10a-b656-34db-b3a5-ae0fd97194f9",
            "resource": {
                "resourceType": "Observation",
                "meta": {
                    "profile": [
                        "http://hl7.org/fhir/us/core/StructureDefinition/us-core-observationresults"
                    ]
                },
                "id": "bd02d10a-b656-34db-b3a5-ae0fd97194f9",
                "identifier": [
                    {
                        "system": "urn:ietf:rfc:3986",
                        "value": "urn:uuid:1.3.6.1.4.1.22812.4.111.0.4.1.0.0"
                    }
                ],
                "category": [
                    {
                        "coding": [
                            {
                                "system": "http://terminology.hl7.org/CodeSystem/observation-category",
                                "code": "vital-signs"
                            }
                        ]
                    }
                ],
                "status": "final",
                "code": {
                    "coding": [
                        {
                            "code": "3150-0",
                            "display": "Inhaled oxygen concentration",
                            "system": "http://loinc.org"
                        }
                    ]
                },
                "effectiveDateTime": "2015-06-02T14:12:00.000Z",
                "issued": "2015-06-02T14:12:00.000Z",
                "valueQuantity": {
                    "value": 36,
                    "unit": "%",
                    "system": "http://unitsofmeasure.org",
                    "code": "%"
                },
                "subject": {
                    "reference": "Patient/f40da2df-7505-315a-9acb-55513a02c37b"
                }
            },
            "request": {
                "method": "PUT",
                "url": "Observation/bd02d10a-b656-34db-b3a5-ae0fd97194f9"
            }
        },
        {
            "fullUrl": "urn:uuid:f3f76197-1bda-31f3-817e-206f72626013",
            "resource": {
                "resourceType": "Observation",
                "meta": {
                    "profile": [
                        "http://hl7.org/fhir/us/core/StructureDefinition/us-core-observationresults"
                    ]
                },
                "id": "f3f76197-1bda-31f3-817e-206f72626013",
                "identifier": [
                    {
                        "system": "urn:ietf:rfc:3986",
                        "value": "urn:uuid:1.3.6.1.4.1.22812.4.111.0.4.1.1"
                    }
                ],
                "category": [
                    {
                        "coding": [
                            {
                                "system": "http://terminology.hl7.org/CodeSystem/observation-category",
                                "code": "vital-signs"
                            }
                        ]
                    }
                ],
                "status": "final",
                "code": {
                    "coding": [
                        {
                            "code": "85354-9",
                            "display": "Blood pressure panel with all children optional",
                            "system": "http://loinc.org"
                        }
                    ]
                },
                "effectiveDateTime": "2015-06-22T23:59:59.000Z",
                "issued": "2015-06-22T23:59:59.000Z",
                "component": [
                    {
                        "code": {
                            "coding": [
                                {
                                    "system": "http://loinc.org",
                                    "code": "8480-6",
                                    "display": "Systolic blood pressure"
                                }
                            ]
                        },
                        "valueQuantity": {
                            "value": 145,
                            "unit": "mmHg",
                            "system": "http://unitsofmeasure.org",
                            "code": "mm[Hg]"
                        }
                    },
                    {
                        "code": {
                            "coding": [
                                {
                                    "system": "http://loinc.org",
                                    "code": "8462-4",
                                    "display": "Diastolic blood pressure"
                                }
                            ]
                        },
                        "valueQuantity": {
                            "value": 88,
                            "unit": "mmHg",
                            "system": "http://unitsofmeasure.org",
                            "code": "mm[Hg]"
                        }
                    }
                ],
                "subject": {
                    "reference": "Patient/f40da2df-7505-315a-9acb-55513a02c37b"
                }
            },
            "request": {
                "method": "PUT",
                "url": "Observation/f3f76197-1bda-31f3-817e-206f72626013"
            }
        },
        {
            "fullUrl": "urn:uuid:4893d915-1bce-32c9-a50a-4432570b4404",
            "resource": {
                "resourceType": "Observation",
                "meta": {
                    "profile": [
                        "http://hl7.org/fhir/us/core/StructureDefinition/us-core-observationresults"
                    ]
                },
                "id": "4893d915-1bce-32c9-a50a-4432570b4404",
                "identifier": [
                    {
                        "system": "urn:ietf:rfc:3986",
                        "value": "urn:uuid:1.3.6.1.4.1.22812.4.111.0.4.1.1.2"
                    }
                ],
                "category": [
                    {
                        "coding": [
                            {
                                "system": "http://terminology.hl7.org/CodeSystem/observation-category",
                                "code": "vital-signs"
                            }
                        ]
                    }
                ],
                "status": "final",
                "code": {
                    "coding": [
                        {
                            "code": "8302-2",
                            "display": "Body height",
                            "system": "http://loinc.org"
                        }
                    ]
                },
                "effectiveDateTime": "2015-06-22T14:05:00.000Z",
                "issued": "2015-06-22T14:05:00.000Z",
                "valueQuantity": {
                    "value": 177,
                    "unit": "cm",
                    "system": "http://unitsofmeasure.org",
                    "code": "cm"
                },
                "subject": {
                    "reference": "Patient/f40da2df-7505-315a-9acb-55513a02c37b"
                }
            },
            "request": {
                "method": "PUT",
                "url": "Observation/4893d915-1bce-32c9-a50a-4432570b4404"
            }
        },
        {
            "fullUrl": "urn:uuid:889886cd-0df5-3ea5-afb3-39cb8e8f4f18",
            "resource": {
                "resourceType": "Observation",
                "meta": {
                    "profile": [
                        "http://hl7.org/fhir/us/core/StructureDefinition/us-core-observationresults"
                    ]
                },
                "id": "889886cd-0df5-3ea5-afb3-39cb8e8f4f18",
                "identifier": [
                    {
                        "system": "urn:ietf:rfc:3986",
                        "value": "urn:uuid:1.3.6.1.4.1.22812.4.111.0.4.1.1.3"
                    }
                ],
                "category": [
                    {
                        "coding": [
                            {
                                "system": "http://terminology.hl7.org/CodeSystem/observation-category",
                                "code": "vital-signs"
                            }
                        ]
                    }
                ],
                "status": "final",
                "code": {
                    "coding": [
                        {
                            "code": "8310-5",
                            "display": "Body Temperature",
                            "system": "http://loinc.org"
                        }
                    ]
                },
                "effectiveDateTime": "2015-06-22T04:00:00.000Z",
                "issued": "2015-06-22T04:00:00.000Z",
                "valueQuantity": {
                    "value": 38,
                    "unit": "Cel",
                    "system": "http://unitsofmeasure.org",
                    "code": "Cel"
                },
                "subject": {
                    "reference": "Patient/f40da2df-7505-315a-9acb-55513a02c37b"
                }
            },
            "request": {
                "method": "PUT",
                "url": "Observation/889886cd-0df5-3ea5-afb3-39cb8e8f4f18"
            }
        },
        {
            "fullUrl": "urn:uuid:ba364293-9fd9-34e0-8709-3bae3dd5fa45",
            "resource": {
                "resourceType": "Observation",
                "meta": {
                    "profile": [
                        "http://hl7.org/fhir/us/core/StructureDefinition/us-core-observationresults"
                    ]
                },
                "id": "ba364293-9fd9-34e0-8709-3bae3dd5fa45",
                "identifier": [
                    {
                        "system": "urn:ietf:rfc:3986",
                        "value": "urn:uuid:1.3.6.1.4.1.22812.4.111.0.4.1.1.4"
                    }
                ],
                "category": [
                    {
                        "coding": [
                            {
                                "system": "http://terminology.hl7.org/CodeSystem/observation-category",
                                "code": "vital-signs"
                            }
                        ]
                    }
                ],
                "status": "final",
                "code": {
                    "coding": [
                        {
                            "code": "59408-5",
                            "display": "Oxygen saturation in Arterial blood by Pulse oximetry",
                            "system": "http://loinc.org"
                        },
                        {
                            "system": "http://loinc.org",
                            "code": "2708-6",
                            "display": "Oxygen saturation in Arterial blood"
                        }
                    ]
                },
                "effectiveDateTime": "2015-06-22T04:00:00.000Z",
                "issued": "2015-06-22T04:00:00.000Z",
                "valueQuantity": {
                    "value": 95,
                    "unit": "%",
                    "system": "http://unitsofmeasure.org",
                    "code": "%"
                },
                "subject": {
                    "reference": "Patient/f40da2df-7505-315a-9acb-55513a02c37b"
                },
                "component": [
                    {
                        "code": {
                            "coding": [
                                {
                                    "system": "http://loinc.org",
                                    "code": "3151-8",
                                    "display": "Inhaled oxygen flow rate"
                                }
                            ],
                            "text": "Inhaled oxygen flow rate"
                        },
                        "dataAbsentReason": {
                            "coding": [
                                {
                                    "system": "http://terminology.hl7.org/CodeSystem/data-absent-reason",
                                    "code": "unknown",
                                    "display": "Unknown"
                                }
                            ],
                            "text": "Unknown"
                        }
                    },
                    {
                        "code": {
                            "coding": [
                                {
                                    "system": "http://loinc.org",
                                    "code": "3150-0",
                                    "display": "Inhaled oxygen concentration"
                                }
                            ],
                            "text": "Inhaled oxygen concentration"
                        },
                        "dataAbsentReason": {
                            "coding": [
                                {
                                    "system": "http://terminology.hl7.org/CodeSystem/data-absent-reason",
                                    "code": "unknown",
                                    "display": "Unknown"
                                }
                            ],
                            "text": "Unknown"
                        }
                    }
                ]
            },
            "request": {
                "method": "PUT",
                "url": "Observation/ba364293-9fd9-34e0-8709-3bae3dd5fa45"
            }
        },
        {
            "fullUrl": "urn:uuid:c9bc6a0e-a670-3b3a-834b-d61f976642fc",
            "resource": {
                "resourceType": "Observation",
                "meta": {
                    "profile": [
                        "http://hl7.org/fhir/us/core/StructureDefinition/us-core-observationresults"
                    ]
                },
                "id": "c9bc6a0e-a670-3b3a-834b-d61f976642fc",
                "identifier": [
                    {
                        "system": "urn:ietf:rfc:3986",
                        "value": "urn:uuid:1.3.6.1.4.1.22812.4.111.0.4.1.1.5"
                    }
                ],
                "category": [
                    {
                        "coding": [
                            {
                                "system": "http://terminology.hl7.org/CodeSystem/observation-category",
                                "code": "vital-signs"
                            }
                        ]
                    }
                ],
                "status": "final",
                "code": {
                    "coding": [
                        {
                            "code": "8867-4",
                            "display": "Heart Rate",
                            "system": "http://loinc.org"
                        }
                    ]
                },
                "effectiveDateTime": "2015-06-22T04:00:00.000Z",
                "issued": "2015-06-22T04:00:00.000Z",
                "valueQuantity": {
                    "value": 80,
                    "unit": "/min",
                    "system": "http://unitsofmeasure.org",
                    "code": "/min"
                },
                "subject": {
                    "reference": "Patient/f40da2df-7505-315a-9acb-55513a02c37b"
                }
            },
            "request": {
                "method": "PUT",
                "url": "Observation/c9bc6a0e-a670-3b3a-834b-d61f976642fc"
            }
        },
        {
            "fullUrl": "urn:uuid:b8a8e92d-fc94-3cba-8b13-62b635aee332",
            "resource": {
                "resourceType": "Observation",
                "meta": {
                    "profile": [
                        "http://hl7.org/fhir/us/core/StructureDefinition/us-core-observationresults"
                    ]
                },
                "id": "b8a8e92d-fc94-3cba-8b13-62b635aee332",
                "identifier": [
                    {
                        "system": "urn:ietf:rfc:3986",
                        "value": "urn:uuid:1.3.6.1.4.1.22812.4.111.0.4.1.1.6"
                    }
                ],
                "category": [
                    {
                        "coding": [
                            {
                                "system": "http://terminology.hl7.org/CodeSystem/observation-category",
                                "code": "vital-signs"
                            }
                        ]
                    }
                ],
                "status": "final",
                "code": {
                    "coding": [
                        {
                            "code": "9279-1",
                            "display": "Respiratory Rate",
                            "system": "http://loinc.org"
                        }
                    ]
                },
                "effectiveDateTime": "2015-06-22T04:00:00.000Z",
                "issued": "2015-06-22T04:00:00.000Z",
                "valueQuantity": {
                    "value": 18,
                    "unit": "/min",
                    "system": "http://unitsofmeasure.org",
                    "code": "/min"
                },
                "subject": {
                    "reference": "Patient/f40da2df-7505-315a-9acb-55513a02c37b"
                }
            },
            "request": {
                "method": "PUT",
                "url": "Observation/b8a8e92d-fc94-3cba-8b13-62b635aee332"
            }
        },
        {
            "fullUrl": "urn:uuid:4b2bada9-e138-3497-a020-5547b9e76921",
            "resource": {
                "resourceType": "Observation",
                "meta": {
                    "profile": [
                        "http://hl7.org/fhir/us/core/StructureDefinition/us-core-observationresults"
                    ]
                },
                "id": "4b2bada9-e138-3497-a020-5547b9e76921",
                "identifier": [
                    {
                        "system": "urn:ietf:rfc:3986",
                        "value": "urn:uuid:1.3.6.1.4.1.22812.4.111.0.4.1.2.0"
                    }
                ],
                "category": [
                    {
                        "coding": [
                            {
                                "system": "http://terminology.hl7.org/CodeSystem/observation-category",
                                "code": "vital-signs"
                            }
                        ]
                    }
                ],
                "status": "final",
                "code": {
                    "coding": [
                        {
                            "code": "29463-7",
                            "display": "Body weight",
                            "system": "http://loinc.org"
                        }
                    ]
                },
                "effectiveDateTime": "2015-06-23T02:05:00.000Z",
                "issued": "2015-06-23T02:05:00.000Z",
                "valueQuantity": {
                    "value": 88,
                    "unit": "kg",
                    "system": "http://unitsofmeasure.org",
                    "code": "kg"
                },
                "subject": {
                    "reference": "Patient/f40da2df-7505-315a-9acb-55513a02c37b"
                }
            },
            "request": {
                "method": "PUT",
                "url": "Observation/4b2bada9-e138-3497-a020-5547b9e76921"
            }
        },
        {
            "fullUrl": "urn:uuid:dbfddaed-1b11-317b-a3ff-33b829f723d1",
            "resource": {
                "resourceType": "Observation",
                "meta": {
                    "profile": [
                        "http://hl7.org/fhir/us/core/StructureDefinition/us-core-observationresults"
                    ]
                },
                "id": "dbfddaed-1b11-317b-a3ff-33b829f723d1",
                "identifier": [
                    {
                        "system": "urn:ietf:rfc:3986",
                        "value": "urn:uuid:1.3.6.1.4.1.22812.4.111.0.4.1.3"
                    }
                ],
                "category": [
                    {
                        "coding": [
                            {
                                "system": "http://terminology.hl7.org/CodeSystem/observation-category",
                                "code": "vital-signs"
                            }
                        ]
                    }
                ],
                "status": "final",
                "code": {
                    "coding": [
                        {
                            "code": "85354-9",
                            "display": "Blood pressure panel with all children optional",
                            "system": "http://loinc.org"
                        }
                    ]
                },
                "effectiveDateTime": "2021-01-28T23:59:59.000Z",
                "issued": "2021-01-28T23:59:59.000Z",
                "component": [
                    {
                        "code": {
                            "coding": [
                                {
                                    "system": "http://loinc.org",
                                    "code": "8480-6",
                                    "display": "Systolic blood pressure"
                                }
                            ]
                        },
                        "valueQuantity": {
                            "value": 145,
                            "unit": "mmHg",
                            "system": "http://unitsofmeasure.org",
                            "code": "mm[Hg]"
                        }
                    },
                    {
                        "code": {
                            "coding": [
                                {
                                    "system": "http://loinc.org",
                                    "code": "8462-4",
                                    "display": "Diastolic blood pressure"
                                }
                            ]
                        },
                        "valueQuantity": {
                            "value": 90,
                            "unit": "mmHg",
                            "system": "http://unitsofmeasure.org",
                            "code": "mm[Hg]"
                        }
                    }
                ],
                "subject": {
                    "reference": "Patient/f40da2df-7505-315a-9acb-55513a02c37b"
                }
            },
            "request": {
                "method": "PUT",
                "url": "Observation/dbfddaed-1b11-317b-a3ff-33b829f723d1"
            }
        },
        {
            "fullUrl": "urn:uuid:11c099a0-2fc0-3ad7-9cf0-d7a720ea5cfe",
            "resource": {
                "resourceType": "Observation",
                "meta": {
                    "profile": [
                        "http://hl7.org/fhir/us/core/StructureDefinition/us-core-observationresults"
                    ]
                },
                "id": "11c099a0-2fc0-3ad7-9cf0-d7a720ea5cfe",
                "identifier": [
                    {
                        "system": "urn:ietf:rfc:3986",
                        "value": "urn:uuid:1.3.6.1.4.1.22812.4.111.0.4.1.3.0"
                    }
                ],
                "category": [
                    {
                        "coding": [
                            {
                                "system": "http://terminology.hl7.org/CodeSystem/observation-category",
                                "code": "vital-signs"
                            }
                        ]
                    }
                ],
                "status": "final",
                "code": {
                    "coding": [
                        {
                            "code": "29463-7",
                            "display": "Body weight",
                            "system": "http://loinc.org"
                        }
                    ]
                },
                "effectiveDateTime": "2021-01-28T05:00:00.000Z",
                "issued": "2021-01-28T05:00:00.000Z",
                "valueQuantity": {
                    "value": 104,
                    "unit": "kg",
                    "system": "http://unitsofmeasure.org",
                    "code": "kg"
                },
                "subject": {
                    "reference": "Patient/f40da2df-7505-315a-9acb-55513a02c37b"
                }
            },
            "request": {
                "method": "PUT",
                "url": "Observation/11c099a0-2fc0-3ad7-9cf0-d7a720ea5cfe"
            }
        },
        {
            "fullUrl": "urn:uuid:a4bd6cbd-b9f8-3780-b7a8-9d3adda61e52",
            "resource": {
                "resourceType": "Observation",
                "meta": {
                    "profile": [
                        "http://hl7.org/fhir/us/core/StructureDefinition/us-core-observationresults"
                    ]
                },
                "id": "a4bd6cbd-b9f8-3780-b7a8-9d3adda61e52",
                "identifier": [
                    {
                        "system": "urn:ietf:rfc:3986",
                        "value": "urn:uuid:1.3.6.1.4.1.22812.4.111.0.4.1.3.3"
                    }
                ],
                "category": [
                    {
                        "coding": [
                            {
                                "system": "http://terminology.hl7.org/CodeSystem/observation-category",
                                "code": "vital-signs"
                            }
                        ]
                    }
                ],
                "status": "final",
                "code": {
                    "coding": [
                        {
                            "code": "8302-2",
                            "display": "Body height",
                            "system": "http://loinc.org"
                        }
                    ]
                },
                "effectiveDateTime": "2021-01-28T05:00:00.000Z",
                "issued": "2021-01-28T05:00:00.000Z",
                "valueQuantity": {
                    "value": 177,
                    "unit": "cm",
                    "system": "http://unitsofmeasure.org",
                    "code": "cm"
                },
                "subject": {
                    "reference": "Patient/f40da2df-7505-315a-9acb-55513a02c37b"
                }
            },
            "request": {
                "method": "PUT",
                "url": "Observation/a4bd6cbd-b9f8-3780-b7a8-9d3adda61e52"
            }
        },
        {
            "fullUrl": "urn:uuid:c1762f6c-b896-3183-ad94-0aa1c4beab15",
            "resource": {
                "resourceType": "Observation",
                "meta": {
                    "profile": [
                        "http://hl7.org/fhir/us/core/StructureDefinition/us-core-observationresults"
                    ]
                },
                "id": "c1762f6c-b896-3183-ad94-0aa1c4beab15",
                "identifier": [
                    {
                        "system": "urn:ietf:rfc:3986",
                        "value": "urn:uuid:1.3.6.1.4.1.22812.4.111.0.4.1.4"
                    }
                ],
                "category": [
                    {
                        "coding": [
                            {
                                "system": "http://terminology.hl7.org/CodeSystem/observation-category",
                                "code": "vital-signs"
                            }
                        ]
                    }
                ],
                "status": "final",
                "code": {
                    "coding": [
                        {
                            "code": "85354-9",
                            "display": "Blood pressure panel with all children optional",
                            "system": "http://loinc.org"
                        }
                    ]
                },
                "effectiveDateTime": "2021-05-14T23:59:59.000Z",
                "issued": "2021-05-14T23:59:59.000Z",
                "component": [
                    {
                        "code": {
                            "coding": [
                                {
                                    "system": "http://loinc.org",
                                    "code": "8462-4",
                                    "display": "Diastolic blood pressure"
                                }
                            ]
                        },
                        "valueQuantity": {
                            "value": 90,
                            "unit": "mmHg",
                            "system": "http://unitsofmeasure.org",
                            "code": "mm[Hg]"
                        }
                    },
                    {
                        "code": {
                            "coding": [
                                {
                                    "system": "http://loinc.org",
                                    "code": "8480-6",
                                    "display": "Systolic blood pressure"
                                }
                            ]
                        },
                        "valueQuantity": {
                            "value": 160,
                            "unit": "mmHg",
                            "system": "http://unitsofmeasure.org",
                            "code": "mm[Hg]"
                        }
                    }
                ],
                "subject": {
                    "reference": "Patient/f40da2df-7505-315a-9acb-55513a02c37b"
                }
            },
            "request": {
                "method": "PUT",
                "url": "Observation/c1762f6c-b896-3183-ad94-0aa1c4beab15"
            }
        },
        {
            "fullUrl": "urn:uuid:efc450f1-bf82-3df2-91ab-52a0ab34168f",
            "resource": {
                "resourceType": "Procedure",
                "meta": {
                    "profile": [
                        "http://hl7.org/fhir/us/core/StructureDefinition/us-core-procedure"
                    ]
                },
                "id": "efc450f1-bf82-3df2-91ab-52a0ab34168f",
                "identifier": [
                    {
                        "system": "urn:ietf:rfc:3986",
                        "value": "urn:uuid:Procedure-4"
                    }
                ],
                "status": "completed",
                "code": {
                    "coding": [
                        {
                            "code": "56251003",
                            "display": "Nebulizer Therapy",
                            "system": "http://snomed.info/sct"
                        }
                    ]
                },
                "performedPeriod": {
                    "start": "2015-06-22T00:00:00.000Z"
                },
                "subject": {
                    "reference": "Patient/f40da2df-7505-315a-9acb-55513a02c37b"
                }
            },
            "request": {
                "method": "PUT",
                "url": "Procedure/efc450f1-bf82-3df2-91ab-52a0ab34168f"
            }
        },
        {
            "fullUrl": "urn:uuid:dc960e37-29ed-34c8-a651-c832b045ed95",
            "resource": {
                "resourceType": "Procedure",
                "meta": {
                    "profile": [
                        "http://hl7.org/fhir/us/core/StructureDefinition/us-core-procedure"
                    ]
                },
                "id": "dc960e37-29ed-34c8-a651-c832b045ed95",
                "identifier": [
                    {
                        "system": "urn:ietf:rfc:3986",
                        "value": "urn:uuid:Procedure-5"
                    }
                ],
                "status": "completed",
                "code": {
                    "coding": [
                        {
                            "code": "175135009",
                            "display": "Introduction of cardiac pacemaker system via vein",
                            "system": "http://snomed.info/sct"
                        }
                    ]
                },
                "performedPeriod": {
                    "start": "2011-10-05T00:00:00.000Z"
                },
                "subject": {
                    "reference": "Patient/f40da2df-7505-315a-9acb-55513a02c37b"
                }
            },
            "request": {
                "method": "PUT",
                "url": "Procedure/dc960e37-29ed-34c8-a651-c832b045ed95"
            }
        },
        {
            "fullUrl": "urn:uuid:8dadbd15-5ce2-38a3-96e8-4cec32df08b3",
            "resource": {
                "resourceType": "CarePlan",
                "id": "8dadbd15-5ce2-38a3-96e8-4cec32df08b3",
                "text": {
                    "status": "additional",
                    "div": "<div xmlns=\"http://www.w3.org/1999/xhtml\"><list>\n  <item>\n    Urinalysis macro (dipstick) panel | Date: 6/29/15\n    <ID>PlannedObservation2dab4f8583ce44848069b18556d1c183</ID>\n  </item>\n  <item>\n    i. Get an EKG done on 6/23/2015.ii. Get a Chest X-ray done on 6/23/2015 showing the Lower Respiratory TractStructure.iii. Take Clindamycin 300mg three times a day as needed if pain does not subside/iv. Schedule follow on visit with Neighborhood Physicians Practice on7/1/2015.\n    <ID>PlannedObservation7a8da4f2-b8e1-439f-a8dd-40091dd88452</ID>\n  </item>\n</list></div>"
                },
                "title": "Plan of Treatment",
                "category": [
                    {
                        "coding": [
                            {
                                "system": "http://hl7.org/fhir/us/core/CodeSystem/careplan-category",
                                "code": "assess-plan",
                                "display": "Assessment and Plan of Treatment"
                            }
                        ],
                        "text": "Assessment and Plan of Treatment"
                    }
                ],
                "status": "active",
                "intent": "plan",
                "subject": {
                    "reference": "Patient/f40da2df-7505-315a-9acb-55513a02c37b"
                }
            },
            "request": {
                "method": "PUT",
                "url": "CarePlan/8dadbd15-5ce2-38a3-96e8-4cec32df08b3"
            }
        },
        {
            "fullUrl": "urn:uuid:7f48df99-f176-3194-945c-8cefd80797f0",
            "resource": {
                "resourceType": "Encounter",
                "id": "7f48df99-f176-3194-945c-8cefd80797f0",
                "status": "finished",
                "class": {
                    "system": "http://terminology.hl7.org/CodeSystem/v3-ActCode",
                    "code": "AMB"
                },
                "type": [
                    {
                        "coding": [
                            {
                                "code": "29308-4",
                                "display": "Diagnosis",
                                "system": "http://loinc.org"
                            }
                        ]
                    }
                ],
                "reasonCode": [
                    {
                        "coding": [
                            {
                                "system": "http://snomed.info/sct",
                                "code": "55607006",
                                "display": "Problem"
                            }
                        ]
                    }
                ],
                "identifier": [
                    {
                        "system": "urn:ietf:rfc:3986",
                        "value": "urn:uuid:b1436bd9-39bc-437d-bf37-ab2f90b97f28"
                    }
                ],
                "period": {
                    "start": "2019-10-16T04:00:00.000Z"
                },
                "location": [
                    {
                        "location": {
                            "reference": "Location/604a79b8-d538-3959-a3ef-5ac66ee03e08"
                        }
                    }
                ],
                "participant": [
                    {
                        "individual": {
                            "reference": "Practitioner/17763d72-7526-32d1-a535-e60859682208"
                        },
                        "period": {
                            "start": "2019-10-16T04:00:00.000Z"
                        },
                        "type": [
                            {
                                "coding": [
                                    {
                                        "system": "http://terminology.hl7.org/CodeSystem/v3-ParticipationType",
                                        "code": "PPRF",
                                        "display": "primary performer"
                                    }
                                ]
                            }
                        ]
                    }
                ],
                "subject": {
                    "reference": "Patient/f40da2df-7505-315a-9acb-55513a02c37b"
                },
                "diagnosis": [
                    {
                        "condition": {
                            "reference": "Condition/5cc82207-7aef-3468-82b7-470e1322f31e"
                        }
                    }
                ]
            },
            "request": {
                "method": "PUT",
                "url": "Encounter/7f48df99-f176-3194-945c-8cefd80797f0"
            }
        },
        {
            "fullUrl": "urn:uuid:5cc82207-7aef-3468-82b7-470e1322f31e",
            "resource": {
                "resourceType": "Condition",
                "id": "5cc82207-7aef-3468-82b7-470e1322f31e",
                "identifier": [
                    {
                        "system": "urn:ietf:rfc:3986",
                        "value": "urn:uuid:14f97887-4906-445c-a2dc-55c355b65e67"
                    }
                ],
                "verificationStatus": {
                    "coding": [
                        {
                            "system": "http://terminology.hl7.org/CodeSystem/condition-ver-status",
                            "code": "confirmed"
                        }
                    ]
                },
                "category": [
                    {
                        "coding": [
                            {
                                "system": "http://snomed.info/sct",
                                "code": "55607006",
                                "display": "Problem"
                            },
                            {
                                "system": "http://terminology.hl7.org/CodeSystem/condition-category",
                                "code": "problem-list-item"
                            }
                        ]
                    }
                ],
                "clinicalStatus": {
                    "coding": [
                        {
                            "system": "http://terminology.hl7.org/CodeSystem/condition-clinical",
                            "code": "inactive"
                        }
                    ]
                },
                "code": {
                    "coding": [
                        {
                            "code": "780.60",
                            "display": "Fever, unspecified",
                            "system": "urn:oid:2.16.840.1.113883.6.103"
                        }
                    ]
                },
                "onsetDateTime": "2015-06-22T04:00:00.000Z",
                "subject": {
                    "reference": "Patient/f40da2df-7505-315a-9acb-55513a02c37b"
                }
            },
            "request": {
                "method": "PUT",
                "url": "Condition/5cc82207-7aef-3468-82b7-470e1322f31e"
            }
        },
        {
            "fullUrl": "urn:uuid:8ce55388-9d68-3702-9064-be0267bb6e3d",
            "resource": {
                "resourceType": "Goal",
                "id": "8ce55388-9d68-3702-9064-be0267bb6e3d",
                "description": {
                    "coding": [
                        {
                            "system": "http://loinc.org",
                            "code": "61146-7"
                        }
                    ]
                },
                "lifecycleStatus": "active",
                "target": [
                    {
                        "dueDate": "2020-09-28"
                    }
                ],
                "subject": {
                    "reference": "Patient/f40da2df-7505-315a-9acb-55513a02c37b"
                }
            },
            "request": {
                "method": "PUT",
                "url": "Goal/8ce55388-9d68-3702-9064-be0267bb6e3d"
            }
        },
        {
            "fullUrl": "urn:uuid:0e997141-6785-3ffc-b924-be7ae4909949",
            "resource": {
                "resourceType": "Immunization",
                "id": "0e997141-6785-3ffc-b924-be7ae4909949",
                "identifier": [
                    {
                        "system": "urn:ietf:rfc:3986",
                        "value": "urn:uuid:29c9035e-66af-431f-a7b5-5b794f0223b3"
                    }
                ],
                "occurrenceDateTime": "2021-01-28T05:00:00.000Z",
                "vaccineCode": {
                    "coding": [
                        {
                            "code": "207",
                            "display": "SARS-COV-2 (COVID-19) vaccine, mRNA, spike protein, LNP, preservative free, 100 mcg/0.5mL dose",
                            "system": "urn:oid:2.16.840.1.113883.12.292"
                        }
                    ]
                },
                "primarySource": true,
                "status": "completed",
                "statusReason": {
                    "coding": [
                        {
                            "system": "http://terminology.hl7.org/CodeSystem/v3-ActReason",
                            "code": "MEDPREC",
                            "display": "medical precaution"
                        }
                    ]
                },
                "route": {
                    "coding": [
                        {
                            "code": "C28161",
                            "display": "Intramuscular injection",
                            "system": "urn:oid:2.16.840.1.113883.3.26.1.1"
                        }
                    ]
                },
                "patient": {
                    "reference": "Patient/f40da2df-7505-315a-9acb-55513a02c37b"
                }
            },
            "request": {
                "method": "PUT",
                "url": "Immunization/0e997141-6785-3ffc-b924-be7ae4909949"
            }
        },
        {
            "fullUrl": "urn:uuid:d3a379e4-3e54-3d04-a87b-b8ed08559270",
            "resource": {
                "resourceType": "Immunization",
                "id": "d3a379e4-3e54-3d04-a87b-b8ed08559270",
                "identifier": [
                    {
                        "system": "urn:ietf:rfc:3986",
                        "value": "urn:uuid:cbe1cb87-c7f7-46da-94d9-969b6504ee7b"
                    }
                ],
                "occurrenceDateTime": "2015-06-22T04:00:00.000Z",
                "vaccineCode": {
                    "coding": [
                        {
                            "code": "166",
                            "system": "urn:oid:2.16.840.1.113883.12.292"
                        }
                    ]
                },
                "primarySource": true,
                "status": "cancelled",
                "statusReason": {
                    "coding": [
                        {
                            "system": "http://terminology.hl7.org/CodeSystem/v3-ActReason",
                            "code": "MEDPREC",
                            "display": "medical precaution"
                        }
                    ]
                },
                "patient": {
                    "reference": "Patient/f40da2df-7505-315a-9acb-55513a02c37b"
                }
            },
            "request": {
                "method": "PUT",
                "url": "Immunization/d3a379e4-3e54-3d04-a87b-b8ed08559270"
            }
        },
        {
            "fullUrl": "urn:uuid:d236c7d3-00d8-30cd-9768-74dc22434715",
            "resource": {
                "resourceType": "Immunization",
                "id": "d236c7d3-00d8-30cd-9768-74dc22434715",
                "identifier": [
                    {
                        "system": "urn:ietf:rfc:3986",
                        "value": "urn:uuid:eb111bbd-0110-48ff-899a-0d5f2c313cb9"
                    }
                ],
                "occurrenceDateTime": "2012-01-04T06:00:00.000Z",
                "vaccineCode": {
                    "coding": [
                        {
                            "code": "106",
                            "display": "diphtheria, tetanus toxoids and acellular pertussis vaccine, 5 pertussis antigens",
                            "system": "urn:oid:2.16.840.1.113883.12.292"
                        }
                    ]
                },
                "primarySource": true,
                "status": "completed",
                "statusReason": {
                    "coding": [
                        {
                            "system": "http://terminology.hl7.org/CodeSystem/v3-ActReason",
                            "code": "MEDPREC",
                            "display": "medical precaution"
                        }
                    ]
                },
                "route": {
                    "coding": [
                        {
                            "code": "C28161",
                            "display": "Intramuscular injection",
                            "system": "urn:oid:2.16.840.1.113883.3.26.1.1"
                        }
                    ]
                },
                "patient": {
                    "reference": "Patient/f40da2df-7505-315a-9acb-55513a02c37b"
                }
            },
            "request": {
                "method": "PUT",
                "url": "Immunization/d236c7d3-00d8-30cd-9768-74dc22434715"
            }
        },
        {
            "fullUrl": "urn:uuid:296600cb-6150-34cf-b1d0-9eacc07cc506",
            "resource": {
                "resourceType": "Device",
                "id": "296600cb-6150-34cf-b1d0-9eacc07cc506",
                "identifier": [
                    {
                        "system": "urn:oid:1.2.840.114350.1.13.5552.1.7.2.737780",
                        "value": "2744"
                    }
                ],
                "udiCarrier": [
                    {
                        "deviceIdentifier": "00643169007222",
                        "carrierHRF": "(01)00643169007222(17)160128(21)BLC200461H"
                    }
                ],
                "distinctIdentifier": "00643169007222",
                "expirationDate": "160128",
                "serialNumber": "BLC200461H",
                "type": {
                    "coding": [
                        {
                            "code": "704708004",
                            "display": "Cardiac resynchronization therapy implantable pacemaker",
                            "system": "http://snomed.info/sct"
                        }
                    ]
                },
                "patient": {
                    "reference": "Patient/f40da2df-7505-315a-9acb-55513a02c37b"
                }
            },
            "request": {
                "method": "PUT",
                "url": "Device/296600cb-6150-34cf-b1d0-9eacc07cc506"
            }
        },
        {
            "fullUrl": "urn:uuid:b094e726-a50f-36b2-9bc7-a6e02151f14a",
            "resource": {
                "resourceType": "Device",
                "id": "b094e726-a50f-36b2-9bc7-a6e02151f14a",
                "identifier": [
                    {
                        "system": "urn:oid:1.2.840.114350.1.13.5552.1.7.2.737780",
                        "value": "2744"
                    }
                ],
                "udiCarrier": [
                    {
                        "deviceIdentifier": "08717648200274",
                        "carrierHRF": "(01)08717648200274(11)20130201(10)000000000000XYZ123(21)000025(17)20140201"
                    }
                ],
                "distinctIdentifier": "08717648200274",
                "manufactureDate": "2013-02-01",
                "expirationDate": "2014-02-01",
                "lotNumber": "000000000000XYZ123",
                "serialNumber": "000025",
                "type": {
                    "coding": [
                        {
                            "display": "XIENCE Alpine Everolimus Eluting",
                            "system": "http://snomed.info/sct"
                        }
                    ]
                },
                "patient": {
                    "reference": "Patient/f40da2df-7505-315a-9acb-55513a02c37b"
                }
            },
            "request": {
                "method": "PUT",
                "url": "Device/b094e726-a50f-36b2-9bc7-a6e02151f14a"
            }
        },
        {
            "fullUrl": "urn:uuid:2d604404-36dd-3cc4-98bb-18f22e92f102",
            "resource": {
                "resourceType": "DocumentReference",
                "id": "2d604404-36dd-3cc4-98bb-18f22e92f102",
                "type": {
                    "coding": [
                        {
                            "code": "34133-9",
                            "display": "Summarization of Episode Note",
                            "system": "http://loinc.org"
                        }
                    ]
                },
                "date": "2022-10-12T14:43:13.845Z",
                "status": "current",
                "content": [
                    {
                        "attachment": {
                            "contentType": "text/plain",
                            "data": "",
                            "hash": "UC/qlyvUotf02f6hEMCXo5OWsmY="
                        }
                    }
                ]
            },
            "request": {
                "method": "PUT",
                "url": "DocumentReference/2d604404-36dd-3cc4-98bb-18f22e92f102"
            }
        }
    ]
}