{
    "resourceType": "Bundle",
    "type": "batch",
    "entry": [
        {
            "fullUrl": "urn:uuid:89f23a7a-c71c-3f66-8928-ca02d7458f37",
            "resource": {
                "resourceType": "Composition",
                "id": "89f23a7a-c71c-3f66-8928-ca02d7458f37",
                "identifier": {
                    "use": "official",
                    "value": "2.16.840.1.113883.19.5.99999.1"
                },
                "status": "final",
                "type": {
                    "coding": [
                        {
                            "code": "34117-2",
                            "display": "History and Physical Note",
                            "system": "http://loinc.org"
                        }
                    ]
                },
                "date": "2012-09-16T23:05:00.000Z",
                "title": "Community Health and Hospitals: History &amp; Physical",
                "confidentiality": "N",
                "attester": [
                    {
                        "mode": "legal",
                        "time": "2009-02-27T18:00:00.000Z",
                        "party": {
                            "reference": "Practitioner/6a84aefd-6f50-3666-8ccb-bdad442a4c6a"
                        }
                    }
                ],
                "section": [
                    {
                        "title": "ALLERGIES, ADVERSE REACTIONS, ALERTS",
                        "text": {
                            "status": "generated",
                            "div": "<div xmlns=\"http://www.w3.org/1999/xhtml\">ALLERGIES, ADVERSE REACTIONS, ALERTS</div>"
                        },
                        "code": {
                            "coding": [
                                {
                                    "code": "48765-2",
                                    "system": "http://loinc.org"
                                }
                            ]
                        },
                        "mode": "snapshot"
                    },
                    {
                        "title": "ASSESSMENT",
                        "text": {
                            "status": "generated",
                            "div": "<div xmlns=\"http://www.w3.org/1999/xhtml\">ASSESSMENT</div>"
                        },
                        "code": {
                            "coding": [
                                {
                                    "code": "51848-0",
                                    "display": "ASSESSMENT",
                                    "system": "http://loinc.org"
                                }
                            ]
                        },
                        "mode": "snapshot"
                    },
                    {
                        "title": "REASON FOR VISIT/CHIEF COMPLAINT",
                        "text": {
                            "status": "generated",
                            "div": "<div xmlns=\"http://www.w3.org/1999/xhtml\">REASON FOR VISIT/CHIEF COMPLAINT</div>"
                        },
                        "code": {
                            "coding": [
                                {
                                    "code": "46239-0",
                                    "display": "REASON FOR VISIT + CHIEF COMPLAINT",
                                    "system": "http://loinc.org"
                                }
                            ]
                        },
                        "mode": "snapshot"
                    },
                    {
                        "title": "FAMILY HISTORY",
                        "text": {
                            "status": "generated",
                            "div": "<div xmlns=\"http://www.w3.org/1999/xhtml\">FAMILY HISTORY</div>"
                        },
                        "code": {
                            "coding": [
                                {
                                    "code": "10157-6",
                                    "system": "http://loinc.org"
                                }
                            ]
                        },
                        "mode": "snapshot",
                        "entry": [
                            {
                                "reference": "FamilyMemberHistory/74826d50-0115-36de-a5ad-ef094c9b2660"
                            }
                        ]
                    },
                    {
                        "title": "GENERAL STATUS",
                        "text": {
                            "status": "generated",
                            "div": "<div xmlns=\"http://www.w3.org/1999/xhtml\">GENERAL STATUS</div>"
                        },
                        "code": {
                            "coding": [
                                {
                                    "code": "10210-3",
                                    "display": "GENERAL STATUS",
                                    "system": "http://loinc.org"
                                }
                            ]
                        },
                        "mode": "snapshot"
                    },
                    {
                        "title": "PAST MEDICAL HISTORY",
                        "text": {
                            "status": "generated",
                            "div": "<div xmlns=\"http://www.w3.org/1999/xhtml\">PAST MEDICAL HISTORY</div>"
                        },
                        "code": {
                            "coding": [
                                {
                                    "code": "11348-0",
                                    "display": "HISTORY OF PAST ILLNESS",
                                    "system": "http://loinc.org"
                                }
                            ]
                        },
                        "mode": "snapshot"
                    },
                    {
                        "title": "HISTORY OF PRESENT ILLNESS",
                        "text": {
                            "status": "generated",
                            "div": "<div xmlns=\"http://www.w3.org/1999/xhtml\">HISTORY OF PRESENT ILLNESS</div>"
                        },
                        "code": {
                            "coding": [
                                {
                                    "code": "10164-2",
                                    "display": "HISTORY OF PRESENT ILLNESS",
                                    "system": "http://loinc.org"
                                }
                            ]
                        },
                        "mode": "snapshot"
                    },
                    {
                        "title": "IMMUNIZATIONS",
                        "text": {
                            "status": "generated",
                            "div": "<div xmlns=\"http://www.w3.org/1999/xhtml\">IMMUNIZATIONS</div>"
                        },
                        "code": {
                            "coding": [
                                {
                                    "code": "11369-6",
                                    "display": "History of immunizations",
                                    "system": "http://loinc.org"
                                }
                            ]
                        },
                        "mode": "snapshot",
                        "entry": [
                            {
                                "reference": "Immunization/5cd7f362-73c9-3bd9-8506-ae9e10683ee1"
                            },
                            {
                                "reference": "Immunization/f31449bc-7118-3d05-a49b-a2b13b4ead56"
                            },
                            {
                                "reference": "Immunization/8162efce-27ce-3c71-95d5-163487ca2e47"
                            },
                            {
                                "reference": "Immunization/d48358cf-d344-3620-9085-d291111dcbca"
                            }
                        ]
                    },
                    {
                        "title": "MEDICATIONS",
                        "text": {
                            "status": "generated",
                            "div": "<div xmlns=\"http://www.w3.org/1999/xhtml\">MEDICATIONS</div>"
                        },
                        "code": {
                            "coding": [
                                {
                                    "code": "10160-0",
                                    "display": "HISTORY OF MEDICATION USE",
                                    "system": "http://loinc.org"
                                }
                            ]
                        },
                        "mode": "snapshot",
                        "entry": [
                            {
                                "reference": "MedicationStatement/140e43e5-a9a9-315e-99b7-5bfe840625d4"
                            }
                        ]
                    },
                    {
                        "title": "PHYSICAL EXAMINATION",
                        "text": {
                            "status": "generated",
                            "div": "<div xmlns=\"http://www.w3.org/1999/xhtml\">PHYSICAL EXAMINATION</div>"
                        },
                        "code": {
                            "coding": [
                                {
                                    "code": "29545-1",
                                    "display": "PHYSICAL FINDINGS",
                                    "system": "http://loinc.org"
                                }
                            ]
                        },
                        "mode": "snapshot"
                    },
                    {
                        "title": "PLAN OF CARE",
                        "text": {
                            "status": "generated",
                            "div": "<div xmlns=\"http://www.w3.org/1999/xhtml\">PLAN OF CARE</div>"
                        },
                        "code": {
                            "coding": [
                                {
                                    "code": "18776-5",
                                    "display": "Treatment plan",
                                    "system": "http://loinc.org"
                                }
                            ]
                        },
                        "mode": "snapshot",
                        "entry": [
                            {
                                "reference": "CarePlan/3dc9e084-2950-34ce-9aee-9984251271fb"
                            },
                            {
                                "reference": "CarePlan/0135c9b3-8143-36ea-87c4-4c1d1a3ab13b"
                            },
                            {
                                "reference": "CarePlan/320d6fd0-ce98-320f-b166-e6a39a816410"
                            },
                            {
                                "reference": "CarePlan/944b9312-647a-337b-9c55-0be580fcc76b"
                            }
                        ]
                    },
                    {
                        "title": "PROBLEMS",
                        "text": {
                            "status": "generated",
                            "div": "<div xmlns=\"http://www.w3.org/1999/xhtml\">PROBLEMS</div>"
                        },
                        "code": {
                            "coding": [
                                {
                                    "code": "11450-4",
                                    "display": "PROBLEM LIST",
                                    "system": "http://loinc.org"
                                }
                            ]
                        },
                        "mode": "snapshot",
                        "entry": [
                            {
                                "reference": "Condition/88535129-96eb-32e9-8b17-dcc388fe4a10"
                            },
                            {
                                "reference": "Condition/71a71cd8-2faf-3da9-96b4-6769efb4c578"
                            }
                        ]
                    },
                    {
                        "title": "PROCEDURES",
                        "text": {
                            "status": "generated",
                            "div": "<div xmlns=\"http://www.w3.org/1999/xhtml\">PROCEDURES</div>"
                        },
                        "code": {
                            "coding": [
                                {
                                    "code": "47519-4",
                                    "display": "HISTORY OF PROCEDURES",
                                    "system": "http://loinc.org"
                                }
                            ]
                        },
                        "mode": "snapshot"
                    },
                    {
                        "title": "RESULTS",
                        "text": {
                            "status": "generated",
                            "div": "<div xmlns=\"http://www.w3.org/1999/xhtml\">RESULTS</div>"
                        },
                        "code": {
                            "coding": [
                                {
                                    "code": "30954-2",
                                    "display": "RESULTS",
                                    "system": "http://loinc.org"
                                }
                            ]
                        },
                        "mode": "snapshot",
                        "entry": [
                            {
                                "reference": "DiagnosticReport/1e856515-400d-3bdd-a47b-982677430b9e"
                            }
                        ]
                    },
                    {
                        "title": "REVIEW OF SYSTEMS",
                        "text": {
                            "status": "generated",
                            "div": "<div xmlns=\"http://www.w3.org/1999/xhtml\">REVIEW OF SYSTEMS</div>"
                        },
                        "code": {
                            "coding": [
                                {
                                    "code": "10187-3",
                                    "display": "REVIEW OF SYSTEMS",
                                    "system": "http://loinc.org"
                                }
                            ]
                        },
                        "mode": "snapshot"
                    },
                    {
                        "title": "SOCIAL HISTORY",
                        "text": {
                            "status": "generated",
                            "div": "<div xmlns=\"http://www.w3.org/1999/xhtml\">SOCIAL HISTORY</div>"
                        },
                        "code": {
                            "coding": [
                                {
                                    "code": "29762-2",
                                    "display": "Social History",
                                    "system": "http://loinc.org"
                                }
                            ]
                        },
                        "mode": "snapshot",
                        "entry": [
                            {
                                "reference": "Observation/1e764901-b811-35f7-bb2c-cd8629969691",
                                "display": "Tobacco smoking status NHIS"
                            },
                            {
                                "reference": "Observation/874d9082-f28d-3762-87bb-aa5b89a3a4b8",
                                "display": "History of industrial exposure"
                            },
                            {
                                "reference": "Observation/a4e424a2-2fab-3cfe-b9dc-1a0ccd6f6000",
                                "display": "Alcoholic drinks per day"
                            }
                        ]
                    },
                    {
                        "title": "VITAL SIGNS",
                        "text": {
                            "status": "generated",
                            "div": "<div xmlns=\"http://www.w3.org/1999/xhtml\">VITAL SIGNS</div>"
                        },
                        "code": {
                            "coding": [
                                {
                                    "code": "8716-3",
                                    "display": "VITAL SIGNS",
                                    "system": "http://loinc.org"
                                }
                            ]
                        },
                        "mode": "snapshot",
                        "entry": [
                            {
                                "reference": "Observation/39d33ef6-8aaf-31b5-b348-62d24cd1753b",
                                "display": "Height"
                            },
                            {
                                "reference": "Observation/6ee57ee0-711e-30dd-aacd-0e73318817ca",
                                "display": "Patient Body Weight - Measured"
                            },
                            {
                                "reference": "Observation/97ea6a61-2275-3a1a-93b7-1aa98b21aeb1",
                                "display": "Intravascular Systolic"
                            },
                            {
                                "reference": "Observation/4bdda591-d044-3afc-84e5-f97399a435dd",
                                "display": "Height"
                            },
                            {
                                "reference": "Observation/0ddf4614-5d55-3039-848a-98cfe4a22355",
                                "display": "Patient Body Weight - Measured"
                            },
                            {
                                "reference": "Observation/8be446b8-1d63-3017-82ea-162c735c9605",
                                "display": "Intravascular Systolic"
                            }
                        ]
                    }
                ],
                "subject": {
                    "reference": "Patient/f40da2df-7505-315a-9acb-55513a02c37b"
                },
                "encounter": {
                    "reference": "Encounter/5452cafc-449e-3798-a264-5502a074f560"
                },
                "custodian": {
                    "reference": "Organization/ce67676d-faa6-3ac3-8d71-f0a778b99cd0"
                },
                "author": [
                    {
                        "reference": "Practitioner/5942c17c-61a6-351b-a314-39fb9fc72561"
                    }
                ]
            },
            "request": {
                "method": "PUT",
                "url": "Composition/89f23a7a-c71c-3f66-8928-ca02d7458f37"
            }
        },
        {
            "fullUrl": "urn:uuid:6a84aefd-6f50-3666-8ccb-bdad442a4c6a",
            "resource": {
                "resourceType": "Practitioner",
                "meta": {
                    "profile": [
                        "http://hl7.org/fhir/us/core/StructureDefinition/us-core-practitioner"
                    ]
                },
                "id": "6a84aefd-6f50-3666-8ccb-bdad442a4c6a"
            },
            "request": {
                "method": "PUT",
                "url": "Practitioner/6a84aefd-6f50-3666-8ccb-bdad442a4c6a"
            }
        },
        {
            "fullUrl": "urn:uuid:5452cafc-449e-3798-a264-5502a074f560",
            "resource": {
                "resourceType": "Encounter",
                "id": "5452cafc-449e-3798-a264-5502a074f560",
                "status": "unknown",
                "class": {
                    "code": "99213",
                    "display": "Evaluation and Management",
                    "system": "urn:oid:2.16.840.1.113883.6.12"
                },
                "type": [
                    {
                        "coding": [
                            {
                                "code": "99213",
                                "display": "Evaluation and Management",
                                "system": "urn:oid:2.16.840.1.113883.6.12"
                            }
                        ]
                    }
                ],
                "identifier": [
                    {
                        "system": "urn:oid:2.16.840.1.113883.19",
                        "value": "9937012"
                    }
                ],
                "period": {
                    "start": "2009-02-27T18:00:00.000Z",
                    "end": "2009-02-27T18:00:00.000Z"
                },
                "location": [
                    {
                        "location": {
                            "reference": "Location/2c3b30b5-39e7-3c88-b345-eed888cc36f0"
                        }
                    }
                ]
            },
            "request": {
                "method": "PUT",
                "url": "Encounter/5452cafc-449e-3798-a264-5502a074f560"
            }
        },
        {
            "fullUrl": "urn:uuid:2c3b30b5-39e7-3c88-b345-eed888cc36f0",
            "resource": {
                "resourceType": "Location",
                "id": "2c3b30b5-39e7-3c88-b345-eed888cc36f0"
            },
            "request": {
                "method": "PUT",
                "url": "Location/2c3b30b5-39e7-3c88-b345-eed888cc36f0"
            }
        },
        {
            "fullUrl": "urn:uuid:ce67676d-faa6-3ac3-8d71-f0a778b99cd0",
            "resource": {
                "resourceType": "Organization",
                "id": "ce67676d-faa6-3ac3-8d71-f0a778b99cd0",
                "identifier": [
                    {
                        "system": "http://hl7.org/fhir/sid/us-npi",
                        "value": "99999999"
                    }
                ],
                "name": "Community Health and Hospitals",
                "address": [
                    {
                        "use": "work",
                        "line": [
                            "1002 Healthcare Drive"
                        ],
                        "city": "Portland",
                        "state": "OR",
                        "country": "US",
                        "postalCode": "99123"
                    }
                ],
                "telecom": [
                    {
                        "system": "phone",
                        "value": "555-555-1002",
                        "use": "work"
                    }
                ]
            },
            "request": {
                "method": "PUT",
                "url": "Organization/ce67676d-faa6-3ac3-8d71-f0a778b99cd0"
            }
        },
        {
            "fullUrl": "urn:uuid:5942c17c-61a6-351b-a314-39fb9fc72561",
            "resource": {
                "resourceType": "Practitioner",
                "meta": {
                    "profile": [
                        "http://hl7.org/fhir/us/core/StructureDefinition/us-core-practitioner"
                    ]
                },
                "id": "5942c17c-61a6-351b-a314-39fb9fc72561",
                "identifier": [
                    {
                        "system": "http://hl7.org/fhir/sid/us-npi",
                        "value": "99999999"
                    }
                ],
                "name": [
                    {
                        "family": "Seven",
                        "given": [
                            "Henry"
                        ]
                    }
                ],
                "address": [
                    {
                        "line": [
                            "1002 Healthcare Drive"
                        ],
                        "city": "Portland",
                        "state": "OR",
                        "country": "US",
                        "postalCode": "99123"
                    }
                ],
                "telecom": [
                    {
                        "system": "phone",
                        "value": "555-555-1002",
                        "use": "work"
                    }
                ],
                "qualification": [
                    {
                        "code": {
                            "coding": [
                                {
                                    "code": "200000000X",
                                    "display": "Allopathic &amp; Osteopathic Physicians",
                                    "system": "http://nucc.org/provider-taxonomy"
                                }
                            ]
                        }
                    }
                ]
            },
            "request": {
                "method": "PUT",
                "url": "Practitioner/5942c17c-61a6-351b-a314-39fb9fc72561"
            }
        },
        {
            "fullUrl": "urn:uuid:f40da2df-7505-315a-9acb-55513a02c37b",
            "resource": {
                "resourceType": "Patient",
                "meta": {
                    "profile": [
                        "http://hl7.org/fhir/us/core/StructureDefinition/us-core-patient"
                    ]
                },
                "id": "f40da2df-7505-315a-9acb-55513a02c37b",
                "identifier": [
                    {
                        "system": "urn:oid:2.16.840.1.113883.19.5.99999.2",
                        "value": "998991"
                    },
                    {
                        "system": "http://hl7.org/fhir/sid/us-ssn",
                        "value": "111-00-2330"
                    }
                ],
                "name": [
                    {
                        "use": "usual",
                        "family": "Jones",
                        "given": [
                            "Isabella",
                            "Isa"
                        ]
                    }
                ],
                "birthDate": "2005-05-01",
                "gender": "female",
                "extension": [
                    {
                        "url": "http://hl7.org/fhir/us/core/StructureDefinition/us-core-race",
                        "extension": [
                            {
                                "url": "detailed",
                                "valueCoding": {
                                    "code": "1966-1",
                                    "display": "Aleut",
                                    "system": "urn:oid:2.16.840.1.113883.6.238"
                                }
                            },
                            {
                                "url": "text",
                                "valueString": "Aleut"
                            }
                        ]
                    },
                    {
                        "url": "http://hl7.org/fhir/us/core/StructureDefinition/us-core-ethnicity",
                        "extension": [
                            {
                                "url": "ombCategory",
                                "valueCoding": {
                                    "code": "2186-5",
                                    "display": "Not Hispanic or Latino",
                                    "system": "urn:oid:2.16.840.1.113883.6.238"
                                }
                            },
                            {
                                "url": "text",
                                "valueString": "Not Hispanic or Latino"
                            }
                        ]
                    }
                ],
                "address": [
                    {
                        "use": "home",
                        "line": [
                            "1357 Amber Drive"
                        ],
                        "city": "Beaverton",
                        "state": "OR",
                        "country": "US",
                        "postalCode": "97867"
                    }
                ],
                "telecom": [
                    {
                        "system": "phone",
                        "value": "(816)276-6909",
                        "use": "home"
                    }
                ],
                "communication": [
                    {
                        "language": {
                            "coding": [
                                {
                                    "system": "urn:ietf:bcp:47",
                                    "code": "en",
                                    "display": "English"
                                }
                            ]
                        },
                        "preferred": true
                    }
                ]
            },
            "request": {
                "method": "PUT",
                "url": "Patient/f40da2df-7505-315a-9acb-55513a02c37b"
            }
        },
        {
            "fullUrl": "urn:uuid:404aabde-037c-3ea6-85cb-d4ceefa1d2c8",
            "resource": {
                "resourceType": "RelatedPerson",
                "id": "404aabde-037c-3ea6-85cb-d4ceefa1d2c8",
                "relationship": [
                    {
                        "coding": [
                            {
                                "code": "GRPRN",
                                "display": "Grandparent",
                                "system": "urn:oid:2.16.840.1.113883.5.111"
                            }
                        ]
                    }
                ],
                "name": [
                    {
                        "family": "Jones",
                        "given": [
                            "Ralph"
                        ]
                    }
                ],
                "telecom": [
                    {
                        "system": "phone",
                        "value": "(816)276-6909",
                        "use": "home"
                    }
                ],
                "address": [
                    {
                        "use": "home",
                        "line": [
                            "1357 Amber Drive"
                        ],
                        "city": "Beaverton",
                        "state": "OR",
                        "country": "US",
                        "postalCode": "97867"
                    }
                ],
                "patient": {
                    "reference": "Patient/f40da2df-7505-315a-9acb-55513a02c37b"
                }
            },
            "request": {
                "method": "PUT",
                "url": "RelatedPerson/404aabde-037c-3ea6-85cb-d4ceefa1d2c8"
            }
        },
        {
            "fullUrl": "urn:uuid:fa2f2802-02b6-3eba-9475-311f1f1a35ef",
            "resource": {
                "resourceType": "MedicationStatement",
                "id": "fa2f2802-02b6-3eba-9475-311f1f1a35ef",
                "identifier": [
                    {
                        "system": "urn:ietf:rfc:3986",
                        "value": "urn:uuid:cdbd33f0-6cde-11db-9fe1-0800200c9a66"
                    }
                ],
                "status": "completed",
                "dosage": [
                    {
                        "doseAndRate": [
                            {
                                "doseQuantity": {
                                    "value": 1,
                                    "unit": "mg/actuat"
                                }
                            }
                        ]
                    }
                ],
                "subject": {
                    "reference": "Patient/f40da2df-7505-315a-9acb-55513a02c37b"
                },
                "medicationReference": {
                    "reference": "Medication/231b56f8-d23e-3a47-bea5-6e7e9d34de60"
                }
            },
            "request": {
                "method": "PUT",
                "url": "MedicationStatement/fa2f2802-02b6-3eba-9475-311f1f1a35ef"
            }
        },
        {
            "fullUrl": "urn:uuid:231b56f8-d23e-3a47-bea5-6e7e9d34de60",
            "resource": {
                "resourceType": "Medication",
                "id": "231b56f8-d23e-3a47-bea5-6e7e9d34de60",
                "code": {
                    "coding": [
                        {
                            "code": "573621",
                            "display": "Proventil 0.09 MG/ACTUAT inhalant solution",
                            "system": "http://www.nlm.nih.gov/research/umls/rxnorm"
                        }
                    ]
                }
            },
            "request": {
                "method": "PUT",
                "url": "Medication/231b56f8-d23e-3a47-bea5-6e7e9d34de60"
            }
        },
        {
            "fullUrl": "urn:uuid:36396b14-3469-3c79-a043-fea0db80b226",
            "resource": {
                "resourceType": "MedicationRequest",
                "id": "36396b14-3469-3c79-a043-fea0db80b226",
                "intent": "order",
                "status": "completed",
                "subject": {
                    "reference": "Patient/f40da2df-7505-315a-9acb-55513a02c37b"
                },
                "medicationReference": {
                    "reference": "Medication/231b56f8-d23e-3a47-bea5-6e7e9d34de60"
                },
                "requester": {
                    "reference": "Practitioner/cce86e90-1da7-396f-80ae-c2a2c33ef770"
                }
            },
            "request": {
                "method": "PUT",
                "url": "MedicationRequest/36396b14-3469-3c79-a043-fea0db80b226"
            }
        },
        {
            "fullUrl": "urn:uuid:cce86e90-1da7-396f-80ae-c2a2c33ef770",
            "resource": {
                "resourceType": "Practitioner",
                "meta": {
                    "profile": [
                        "http://hl7.org/fhir/us/core/StructureDefinition/us-core-practitioner"
                    ]
                },
                "id": "cce86e90-1da7-396f-80ae-c2a2c33ef770",
                "identifier": [
                    {
                        "system": "urn:ietf:rfc:3986",
                        "value": "urn:uuid:2a620155-9d11-439e-92b3-5d9815fe4de8"
                    }
                ],
                "name": [
                    {
                        "family": "Seven",
                        "given": [
                            "Henry"
                        ],
                        "prefix": [
                            "Dr."
                        ]
                    }
                ]
            },
            "request": {
                "method": "PUT",
                "url": "Practitioner/cce86e90-1da7-396f-80ae-c2a2c33ef770"
            }
        },
        {
            "fullUrl": "urn:uuid:e11b3532-0a08-358b-b219-46bdcdef21f6",
            "resource": {
                "resourceType": "MedicationRequest",
                "id": "e11b3532-0a08-358b-b219-46bdcdef21f6",
                "identifier": [
                    {
                        "system": "urn:oid:1.2.3.4.56789.1",
                        "value": "cb734647-fc99-424c-a864-7e3cda82e704"
                    }
                ],
                "intent": "order",
                "status": "completed",
                "subject": {
                    "reference": "Patient/f40da2df-7505-315a-9acb-55513a02c37b"
                },
                "medicationReference": {
                    "reference": "Medication/231b56f8-d23e-3a47-bea5-6e7e9d34de60"
                }
            },
            "request": {
                "method": "PUT",
                "url": "MedicationRequest/e11b3532-0a08-358b-b219-46bdcdef21f6"
            }
        },
        {
            "fullUrl": "urn:uuid:333a3fd7-922a-3de7-a436-55ad8200c31d",
            "resource": {
                "resourceType": "Condition",
                "id": "333a3fd7-922a-3de7-a436-55ad8200c31d",
                "identifier": [
                    {
                        "system": "urn:ietf:rfc:3986",
                        "value": "urn:uuid:ab1791b0-5c71-11db-b0de-0800200c9a66"
                    }
                ],
                "clinicalStatus": [
                    {
                        "coding": [
                            {
                                "code": "81323004",
                                "display": "Alive and well",
                                "system": "http://snomed.info/sct"
                            }
                        ]
                    }
                ],
                "code": {
                    "coding": [
                        {
                            "code": "233604007",
                            "display": "Pneumonia",
                            "system": "http://snomed.info/sct"
                        }
                    ]
                },
                "onsetDateTime": "2008-01-03",
                "subject": {
                    "reference": "Patient/f40da2df-7505-315a-9acb-55513a02c37b"
                }
            },
            "request": {
                "method": "PUT",
                "url": "Condition/333a3fd7-922a-3de7-a436-55ad8200c31d"
            }
        },
        {
            "fullUrl": "urn:uuid:b667c52e-0254-3e7f-8186-c452bf4d58bd",
            "resource": {
                "resourceType": "Condition",
                "id": "b667c52e-0254-3e7f-8186-c452bf4d58bd",
                "identifier": [
                    {
                        "system": "urn:ietf:rfc:3986",
                        "value": "urn:uuid:ab1791b0-5c71-11db-b0de-0800200c9a66"
                    }
                ],
                "clinicalStatus": [
                    {
                        "coding": [
                            {
                                "code": "81323004",
                                "display": "Alive and well",
                                "system": "http://snomed.info/sct"
                            }
                        ]
                    }
                ],
                "code": {
                    "coding": [
                        {
                            "code": "195967001",
                            "display": "Asthma",
                            "system": "http://snomed.info/sct"
                        }
                    ]
                },
                "onsetDateTime": "2007-01-03",
                "subject": {
                    "reference": "Patient/f40da2df-7505-315a-9acb-55513a02c37b"
                }
            },
            "request": {
                "method": "PUT",
                "url": "Condition/b667c52e-0254-3e7f-8186-c452bf4d58bd"
            }
        },
        {
            "fullUrl": "urn:uuid:da0ba53e-a43f-343f-8e1f-96c672f86504",
            "resource": {
                "resourceType": "DiagnosticReport",
                "id": "da0ba53e-a43f-343f-8e1f-96c672f86504",
                "identifier": [
                    {
                        "system": "urn:ietf:rfc:3986",
                        "value": "urn:uuid:7d5a02b0-67a4-11db-bd13-0800200c9a66"
                    }
                ],
                "status": "final",
                "code": {
                    "coding": [
                        {
                            "code": "43789009",
                            "display": "CBC WO DIFFERENTIAL",
                            "system": "http://snomed.info/sct"
                        }
                    ]
                },
                "subject": {
                    "reference": "Patient/f40da2df-7505-315a-9acb-55513a02c37b"
                },
                "result": [
                    {
                        "reference": "Observation/cdb132bc-1c82-3556-85b1-39ceb6c81390"
                    },
                    {
                        "reference": "Observation/57f4d8de-8bfe-3951-b101-460110a0084b"
                    },
                    {
                        "reference": "Observation/5810bf9e-564c-3768-a050-f049459fdcc6"
                    }
                ]
            },
            "request": {
                "method": "PUT",
                "url": "DiagnosticReport/da0ba53e-a43f-343f-8e1f-96c672f86504"
            }
        },
        {
            "fullUrl": "urn:uuid:cdb132bc-1c82-3556-85b1-39ceb6c81390",
            "resource": {
                "resourceType": "Observation",
                "meta": {
                    "profile": [
                        "http://hl7.org/fhir/us/core/StructureDefinition/us-core-observationresults"
                    ]
                },
                "id": "cdb132bc-1c82-3556-85b1-39ceb6c81390",
                "identifier": [
                    {
                        "system": "urn:ietf:rfc:3986",
                        "value": "urn:uuid:107c2dc0-67a5-11db-bd13-0800200c9a66"
                    }
                ],
                "category": [
                    {
                        "coding": [
                            {
                                "system": "http://terminology.hl7.org/CodeSystem/observation-category",
                                "code": "laboratory"
                            }
                        ]
                    }
                ],
                "status": "final",
                "code": {
                    "coding": [
                        {
                            "code": "30313-1",
                            "display": "HGB",
                            "system": "http://loinc.org"
                        }
                    ]
                },
                "effectiveDateTime": "2000-03-23T14:30:00.000Z",
                "valueQuantity": {
                    "value": 13.2,
                    "unit": "g/dl"
                },
                "referenceRange": [
                    {
                        "low": {
                            "value": 12,
                            "unit": "g/dl"
                        },
                        "high": {
                            "value": 15.5,
                            "unit": "g/dl"
                        }
                    }
                ],
                "interpretation": [
                    {
                        "coding": [
                            {
                                "code": "N",
                                "system": "http://terminology.hl7.org/CodeSystem/v3-ObservationInterpretation"
                            }
                        ]
                    }
                ],
                "subject": {
                    "reference": "Patient/f40da2df-7505-315a-9acb-55513a02c37b"
                },
                "performer": [
                    {
                        "reference": "Practitioner/f154d3ff-4467-3e65-aecb-6ff0f0ae3f0c"
                    }
                ]
            },
            "request": {
                "method": "PUT",
                "url": "Observation/cdb132bc-1c82-3556-85b1-39ceb6c81390"
            }
        },
        {
            "fullUrl": "urn:uuid:57f4d8de-8bfe-3951-b101-460110a0084b",
            "resource": {
                "resourceType": "Observation",
                "meta": {
                    "profile": [
                        "http://hl7.org/fhir/us/core/StructureDefinition/us-core-observationresults"
                    ]
                },
                "id": "57f4d8de-8bfe-3951-b101-460110a0084b",
                "identifier": [
                    {
                        "system": "urn:ietf:rfc:3986",
                        "value": "urn:uuid:107c2dc0-67a5-11db-bd13-0800200c9a66"
                    }
                ],
                "category": [
                    {
                        "coding": [
                            {
                                "system": "http://terminology.hl7.org/CodeSystem/observation-category",
                                "code": "laboratory"
                            }
                        ]
                    }
                ],
                "status": "final",
                "code": {
                    "coding": [
                        {
                            "code": "33765-9",
                            "display": "WBC",
                            "system": "http://loinc.org"
                        }
                    ]
                },
                "effectiveDateTime": "2000-03-23T14:30:00.000Z",
                "valueQuantity": {
                    "value": 6.7,
                    "unit": "10+3/ul"
                },
                "referenceRange": [
                    {
                        "low": {
                            "value": 4.3,
                            "unit": "10+3/ul"
                        },
                        "high": {
                            "value": 10.8,
                            "unit": "10+3/ul"
                        }
                    }
                ],
                "interpretation": [
                    {
                        "coding": [
                            {
                                "code": "N",
                                "system": "http://terminology.hl7.org/CodeSystem/v3-ObservationInterpretation"
                            }
                        ]
                    }
                ],
                "subject": {
                    "reference": "Patient/f40da2df-7505-315a-9acb-55513a02c37b"
                },
                "performer": [
                    {
                        "reference": "Practitioner/213cd219-f883-3a86-95ba-de7d75c6c0d9"
                    }
                ]
            },
            "request": {
                "method": "PUT",
                "url": "Observation/57f4d8de-8bfe-3951-b101-460110a0084b"
            }
        },
        {
            "fullUrl": "urn:uuid:5810bf9e-564c-3768-a050-f049459fdcc6",
            "resource": {
                "resourceType": "Observation",
                "meta": {
                    "profile": [
                        "http://hl7.org/fhir/us/core/StructureDefinition/us-core-observationresults"
                    ]
                },
                "id": "5810bf9e-564c-3768-a050-f049459fdcc6",
                "identifier": [
                    {
                        "system": "urn:ietf:rfc:3986",
                        "value": "urn:uuid:107c2dc0-67a5-11db-bd13-0800200c9a66"
                    }
                ],
                "category": [
                    {
                        "coding": [
                            {
                                "system": "http://terminology.hl7.org/CodeSystem/observation-category",
                                "code": "laboratory"
                            }
                        ]
                    }
                ],
                "status": "final",
                "code": {
                    "coding": [
                        {
                            "code": "26515-7",
                            "display": "PLT",
                            "system": "http://loinc.org"
                        }
                    ]
                },
                "effectiveDateTime": "2000-03-23T14:30:00.000Z",
                "valueQuantity": {
                    "value": 123,
                    "unit": "10+3/ul"
                },
                "referenceRange": [
                    {
                        "low": {
                            "value": 150,
                            "unit": "10+3/ul"
                        },
                        "high": {
                            "value": 350,
                            "unit": "10+3/ul"
                        }
                    }
                ],
                "interpretation": [
                    {
                        "coding": [
                            {
                                "code": "L",
                                "system": "http://terminology.hl7.org/CodeSystem/v3-ObservationInterpretation"
                            }
                        ]
                    }
                ],
                "subject": {
                    "reference": "Patient/f40da2df-7505-315a-9acb-55513a02c37b"
                },
                "performer": [
                    {
                        "reference": "Practitioner/f97ce899-248c-3eca-b9d9-762384d49505"
                    }
                ]
            },
            "request": {
                "method": "PUT",
                "url": "Observation/5810bf9e-564c-3768-a050-f049459fdcc6"
            }
        },
        {
            "fullUrl": "urn:uuid:39b2ba48-ae2e-3f94-8991-7450cad962d2",
            "resource": {
                "resourceType": "Observation",
                "meta": {
                    "profile": [
                        "http://hl7.org/fhir/us/core/StructureDefinition/us-core-observationresults"
                    ]
                },
                "id": "39b2ba48-ae2e-3f94-8991-7450cad962d2",
                "identifier": [
                    {
                        "system": "urn:oid:2.16.840.1.113883.19",
                        "value": "123456789"
                    }
                ],
                "category": [
                    {
                        "coding": [
                            {
                                "system": "http://terminology.hl7.org/CodeSystem/observation-category",
                                "code": "social-history"
                            }
                        ]
                    }
                ],
                "status": "final",
                "code": {
                    "coding": [
                        {
                            "code": "72166-2",
                            "display": "Tobacco smoking status NHIS",
                            "system": "http://loinc.org"
                        }
                    ]
                },
                "effectiveDateTime": "2012-09-10",
                "valueCodeableConcept": {
                    "coding": [
                        {
                            "code": "8517006",
                            "display": "Former smoker",
                            "system": "http://snomed.info/sct"
                        }
                    ]
                },
                "subject": {
                    "reference": "Patient/f40da2df-7505-315a-9acb-55513a02c37b"
                }
            },
            "request": {
                "method": "PUT",
                "url": "Observation/39b2ba48-ae2e-3f94-8991-7450cad962d2"
            }
        },
        {
            "fullUrl": "urn:uuid:503d3ec3-4ce1-3ccb-bd1a-f542000856f0",
            "resource": {
                "resourceType": "Observation",
                "meta": {
                    "profile": [
                        "http://hl7.org/fhir/us/core/StructureDefinition/us-core-observationresults"
                    ]
                },
                "id": "503d3ec3-4ce1-3ccb-bd1a-f542000856f0",
                "identifier": [
                    {
                        "system": "urn:ietf:rfc:3986",
                        "value": "urn:uuid:9b56c25d-9104-45ee-9fa4-e0f3afaa01c1"
                    }
                ],
                "category": [
                    {
                        "coding": [
                            {
                                "system": "http://terminology.hl7.org/CodeSystem/observation-category",
                                "code": "social-history"
                            }
                        ]
                    }
                ],
                "status": "final",
                "code": {
                    "coding": [
                        {
                            "code": "10159-2",
                            "display": "History of industrial exposure",
                            "system": "http://loinc.org"
                        }
                    ]
                },
                "effectivePeriod": {
                    "start": "2005-05-01",
                    "end": "2010-04-30"
                },
                "valueString": "5 years of working with asbestos",
                "subject": {
                    "reference": "Patient/f40da2df-7505-315a-9acb-55513a02c37b"
                }
            },
            "request": {
                "method": "PUT",
                "url": "Observation/503d3ec3-4ce1-3ccb-bd1a-f542000856f0"
            }
        },
        {
            "fullUrl": "urn:uuid:d8146d63-c75e-3afd-b1f4-0dd33115086f",
            "resource": {
                "resourceType": "Observation",
                "meta": {
                    "profile": [
                        "http://hl7.org/fhir/us/core/StructureDefinition/us-core-observationresults"
                    ]
                },
                "id": "d8146d63-c75e-3afd-b1f4-0dd33115086f",
                "identifier": [
                    {
                        "system": "urn:ietf:rfc:3986",
                        "value": "urn:uuid:37f76c51-6411-4e1d-8a37-957fd49d2cef"
                    }
                ],
                "category": [
                    {
                        "coding": [
                            {
                                "system": "http://terminology.hl7.org/CodeSystem/observation-category",
                                "code": "social-history"
                            }
                        ]
                    }
                ],
                "status": "final",
                "code": {
                    "coding": [
                        {
                            "code": "74013-4",
                            "display": "Alcoholic drinks per day",
                            "system": "http://loinc.org"
                        }
                    ]
                },
                "effectivePeriod": {
                    "start": "2005-05-01"
                },
                "valueQuantity": {
                    "value": 0
                },
                "subject": {
                    "reference": "Patient/f40da2df-7505-315a-9acb-55513a02c37b"
                }
            },
            "request": {
                "method": "PUT",
                "url": "Observation/d8146d63-c75e-3afd-b1f4-0dd33115086f"
            }
        },
        {
            "fullUrl": "urn:uuid:5085766f-13f9-3b43-8af7-836c59e58a0e",
            "resource": {
                "resourceType": "Observation",
                "meta": {
                    "profile": [
                        "http://hl7.org/fhir/us/core/StructureDefinition/us-core-observationresults"
                    ]
                },
                "id": "5085766f-13f9-3b43-8af7-836c59e58a0e",
                "identifier": [
                    {
                        "system": "urn:ietf:rfc:3986",
                        "value": "urn:uuid:c6f88321-67ad-11db-bd13-0800200c9a66"
                    }
                ],
                "category": [
                    {
                        "coding": [
                            {
                                "system": "http://terminology.hl7.org/CodeSystem/observation-category",
                                "code": "vital-signs"
                            }
                        ]
                    }
                ],
                "status": "final",
                "code": {
                    "coding": [
                        {
                            "code": "8302-2",
                            "display": "Height",
                            "system": "http://loinc.org"
                        }
                    ]
                },
                "effectiveDateTime": "1999-11-14",
                "valueQuantity": {
                    "value": 177,
                    "unit": "cm"
                },
                "interpretation": [
                    {
                        "coding": [
                            {
                                "code": "N",
                                "system": "http://terminology.hl7.org/CodeSystem/v3-ObservationInterpretation"
                            }
                        ]
                    }
                ],
                "subject": {
                    "reference": "Patient/f40da2df-7505-315a-9acb-55513a02c37b"
                }
            },
            "request": {
                "method": "PUT",
                "url": "Observation/5085766f-13f9-3b43-8af7-836c59e58a0e"
            }
        },
        {
            "fullUrl": "urn:uuid:6be0dead-16d0-37de-8735-7e5756701085",
            "resource": {
                "resourceType": "Observation",
                "meta": {
                    "profile": [
                        "http://hl7.org/fhir/us/core/StructureDefinition/us-core-observationresults"
                    ]
                },
                "id": "6be0dead-16d0-37de-8735-7e5756701085",
                "identifier": [
                    {
                        "system": "urn:ietf:rfc:3986",
                        "value": "urn:uuid:c6f88321-67ad-11db-bd13-0800200c9a66"
                    }
                ],
                "category": [
                    {
                        "coding": [
                            {
                                "system": "http://terminology.hl7.org/CodeSystem/observation-category",
                                "code": "vital-signs"
                            }
                        ]
                    }
                ],
                "status": "final",
                "code": {
                    "coding": [
                        {
                            "code": "3141-9",
                            "display": "Patient Body Weight - Measured",
                            "system": "http://loinc.org"
                        }
                    ]
                },
                "effectiveDateTime": "1999-11-14",
                "valueQuantity": {
                    "value": 86,
                    "unit": "kg"
                },
                "interpretation": [
                    {
                        "coding": [
                            {
                                "code": "N",
                                "system": "http://terminology.hl7.org/CodeSystem/v3-ObservationInterpretation"
                            }
                        ]
                    }
                ],
                "subject": {
                    "reference": "Patient/f40da2df-7505-315a-9acb-55513a02c37b"
                }
            },
            "request": {
                "method": "PUT",
                "url": "Observation/6be0dead-16d0-37de-8735-7e5756701085"
            }
        },
        {
            "fullUrl": "urn:uuid:8769e61f-3697-3b57-9e91-12d87f396057",
            "resource": {
                "resourceType": "Observation",
                "meta": {
                    "profile": [
                        "http://hl7.org/fhir/us/core/StructureDefinition/us-core-observationresults"
                    ]
                },
                "id": "8769e61f-3697-3b57-9e91-12d87f396057",
                "identifier": [
                    {
                        "system": "urn:ietf:rfc:3986",
                        "value": "urn:uuid:c6f88321-67ad-11db-bd13-0800200c9a66"
                    }
                ],
                "category": [
                    {
                        "coding": [
                            {
                                "system": "http://terminology.hl7.org/CodeSystem/observation-category",
                                "code": "vital-signs"
                            }
                        ]
                    }
                ],
                "status": "final",
                "code": {
                    "coding": [
                        {
                            "code": "8480-6",
                            "display": "Intravascular Systolic",
                            "system": "http://loinc.org"
                        }
                    ]
                },
                "effectiveDateTime": "1999-11-14",
                "valueQuantity": {
                    "value": 132,
                    "unit": "mm[Hg]"
                },
                "interpretation": [
                    {
                        "coding": [
                            {
                                "code": "N",
                                "system": "http://terminology.hl7.org/CodeSystem/v3-ObservationInterpretation"
                            }
                        ]
                    }
                ],
                "subject": {
                    "reference": "Patient/f40da2df-7505-315a-9acb-55513a02c37b"
                }
            },
            "request": {
                "method": "PUT",
                "url": "Observation/8769e61f-3697-3b57-9e91-12d87f396057"
            }
        },
        {
            "fullUrl": "urn:uuid:a3a3ce91-cfc2-37d2-90b6-f8805f43d6dc",
            "resource": {
                "resourceType": "Observation",
                "meta": {
                    "profile": [
                        "http://hl7.org/fhir/us/core/StructureDefinition/us-core-observationresults"
                    ]
                },
                "id": "a3a3ce91-cfc2-37d2-90b6-f8805f43d6dc",
                "identifier": [
                    {
                        "system": "urn:ietf:rfc:3986",
                        "value": "urn:uuid:c6f88321-67ad-11db-bd13-0800200c9a66"
                    }
                ],
                "category": [
                    {
                        "coding": [
                            {
                                "system": "http://terminology.hl7.org/CodeSystem/observation-category",
                                "code": "vital-signs"
                            }
                        ]
                    }
                ],
                "status": "final",
                "code": {
                    "coding": [
                        {
                            "code": "8302-2",
                            "display": "Height",
                            "system": "http://loinc.org"
                        }
                    ]
                },
                "effectiveDateTime": "2000-04-07",
                "valueQuantity": {
                    "value": 177,
                    "unit": "cm"
                },
                "interpretation": [
                    {
                        "coding": [
                            {
                                "code": "N",
                                "system": "http://terminology.hl7.org/CodeSystem/v3-ObservationInterpretation"
                            }
                        ]
                    }
                ],
                "subject": {
                    "reference": "Patient/f40da2df-7505-315a-9acb-55513a02c37b"
                }
            },
            "request": {
                "method": "PUT",
                "url": "Observation/a3a3ce91-cfc2-37d2-90b6-f8805f43d6dc"
            }
        },
        {
            "fullUrl": "urn:uuid:9f6c0d38-fcef-3a6d-bc34-882e9cae14ce",
            "resource": {
                "resourceType": "Observation",
                "meta": {
                    "profile": [
                        "http://hl7.org/fhir/us/core/StructureDefinition/us-core-observationresults"
                    ]
                },
                "id": "9f6c0d38-fcef-3a6d-bc34-882e9cae14ce",
                "identifier": [
                    {
                        "system": "urn:ietf:rfc:3986",
                        "value": "urn:uuid:c6f88321-67ad-11db-bd13-0800200c9a66"
                    }
                ],
                "category": [
                    {
                        "coding": [
                            {
                                "system": "http://terminology.hl7.org/CodeSystem/observation-category",
                                "code": "vital-signs"
                            }
                        ]
                    }
                ],
                "status": "final",
                "code": {
                    "coding": [
                        {
                            "code": "3141-9",
                            "display": "Patient Body Weight - Measured",
                            "system": "http://loinc.org"
                        }
                    ]
                },
                "effectiveDateTime": "2000-04-07",
                "valueQuantity": {
                    "value": 88,
                    "unit": "kg"
                },
                "interpretation": [
                    {
                        "coding": [
                            {
                                "code": "N",
                                "system": "http://terminology.hl7.org/CodeSystem/v3-ObservationInterpretation"
                            }
                        ]
                    }
                ],
                "subject": {
                    "reference": "Patient/f40da2df-7505-315a-9acb-55513a02c37b"
                }
            },
            "request": {
                "method": "PUT",
                "url": "Observation/9f6c0d38-fcef-3a6d-bc34-882e9cae14ce"
            }
        },
        {
            "fullUrl": "urn:uuid:067b7d9e-1866-3f9a-891d-194ad22fb500",
            "resource": {
                "resourceType": "Observation",
                "meta": {
                    "profile": [
                        "http://hl7.org/fhir/us/core/StructureDefinition/us-core-observationresults"
                    ]
                },
                "id": "067b7d9e-1866-3f9a-891d-194ad22fb500",
                "identifier": [
                    {
                        "system": "urn:ietf:rfc:3986",
                        "value": "urn:uuid:c6f88321-67ad-11db-bd13-0800200c9a66"
                    }
                ],
                "category": [
                    {
                        "coding": [
                            {
                                "system": "http://terminology.hl7.org/CodeSystem/observation-category",
                                "code": "vital-signs"
                            }
                        ]
                    }
                ],
                "status": "final",
                "code": {
                    "coding": [
                        {
                            "code": "8480-6",
                            "display": "Intravascular Systolic",
                            "system": "http://loinc.org"
                        }
                    ]
                },
                "effectiveDateTime": "2000-04-07",
                "valueQuantity": {
                    "value": 145,
                    "unit": "mm[Hg]"
                },
                "interpretation": [
                    {
                        "coding": [
                            {
                                "code": "N",
                                "system": "http://terminology.hl7.org/CodeSystem/v3-ObservationInterpretation"
                            }
                        ]
                    }
                ],
                "subject": {
                    "reference": "Patient/f40da2df-7505-315a-9acb-55513a02c37b"
                }
            },
            "request": {
                "method": "PUT",
                "url": "Observation/067b7d9e-1866-3f9a-891d-194ad22fb500"
            }
        },
        {
            "fullUrl": "urn:uuid:5cd7f362-73c9-3bd9-8506-ae9e10683ee1",
            "resource": {
                "resourceType": "Immunization",
                "id": "5cd7f362-73c9-3bd9-8506-ae9e10683ee1",
                "identifier": [
                    {
                        "system": "urn:ietf:rfc:3986",
                        "value": "urn:uuid:e6f1ba43-c0ed-4b9b-9f12-f435d8ad8f92"
                    }
                ],
                "occurrenceDateTime": "1999-11",
                "vaccineCode": {
                    "coding": [
                        {
                            "code": "88",
                            "display": "Influenza virus vaccine",
                            "system": "urn:oid:2.16.840.1.113883.12.292"
                        }
                    ]
                },
                "status": "completed",
                "route": {
                    "coding": [
                        {
                            "code": "C28161",
                            "display": "Intramuscular injection",
                            "system": "urn:oid:2.16.840.1.113883.3.26.1.1"
                        }
                    ]
                },
                "patient": {
                    "reference": "Patient/f40da2df-7505-315a-9acb-55513a02c37b"
                }
            },
            "request": {
                "method": "PUT",
                "url": "Immunization/5cd7f362-73c9-3bd9-8506-ae9e10683ee1"
            }
        },
        {
            "fullUrl": "urn:uuid:f31449bc-7118-3d05-a49b-a2b13b4ead56",
            "resource": {
                "resourceType": "Immunization",
                "id": "f31449bc-7118-3d05-a49b-a2b13b4ead56",
                "identifier": [
                    {
                        "system": "urn:ietf:rfc:3986",
                        "value": "urn:uuid:e6f1ba43-c0ed-4b9b-9f12-f435d8ad8f92"
                    }
                ],
                "occurrenceDateTime": "1998-12-15",
                "vaccineCode": {
                    "coding": [
                        {
                            "code": "88",
                            "display": "Influenza virus vaccine",
                            "system": "urn:oid:2.16.840.1.113883.12.292"
                        }
                    ]
                },
                "status": "completed",
                "route": {
                    "coding": [
                        {
                            "code": "C28161",
                            "display": "Intramuscular injection",
                            "system": "urn:oid:2.16.840.1.113883.3.26.1.1"
                        }
                    ]
                },
                "patient": {
                    "reference": "Patient/f40da2df-7505-315a-9acb-55513a02c37b"
                }
            },
            "request": {
                "method": "PUT",
                "url": "Immunization/f31449bc-7118-3d05-a49b-a2b13b4ead56"
            }
        },
        {
            "fullUrl": "urn:uuid:8162efce-27ce-3c71-95d5-163487ca2e47",
            "resource": {
                "resourceType": "Immunization",
                "id": "8162efce-27ce-3c71-95d5-163487ca2e47",
                "identifier": [
                    {
                        "system": "urn:ietf:rfc:3986",
                        "value": "urn:uuid:e6f1ba43-c0ed-4b9b-9f12-f435d8ad8f92"
                    }
                ],
                "occurrenceDateTime": "1998-12-15",
                "vaccineCode": {
                    "coding": [
                        {
                            "code": "33",
                            "display": "Pneumococcal polysaccharide vaccine",
                            "system": "urn:oid:2.16.840.1.113883.12.292"
                        }
                    ]
                },
                "status": "completed",
                "route": {
                    "coding": [
                        {
                            "code": "C28161",
                            "display": "Intramuscular injection",
                            "system": "urn:oid:2.16.840.1.113883.3.26.1.1"
                        }
                    ]
                },
                "patient": {
                    "reference": "Patient/f40da2df-7505-315a-9acb-55513a02c37b"
                }
            },
            "request": {
                "method": "PUT",
                "url": "Immunization/8162efce-27ce-3c71-95d5-163487ca2e47"
            }
        },
        {
            "fullUrl": "urn:uuid:d48358cf-d344-3620-9085-d291111dcbca",
            "resource": {
                "resourceType": "Immunization",
                "id": "d48358cf-d344-3620-9085-d291111dcbca",
                "identifier": [
                    {
                        "system": "urn:ietf:rfc:3986",
                        "value": "urn:uuid:e6f1ba43-c0ed-4b9b-9f12-f435d8ad8f92"
                    }
                ],
                "statusReason": {
                    "coding": [
                        {
                            "code": "PATOBJ",
                            "display": "Patient Objection",
                            "system": "urn:oid:2.16.840.1.113883.5.8"
                        }
                    ]
                },
                "occurrenceDateTime": "1998-12-15",
                "vaccineCode": {
                    "coding": [
                        {
                            "code": "103",
                            "display": "Tetanus and diphtheria toxoids - preservative free",
                            "system": "urn:oid:2.16.840.1.113883.12.292"
                        }
                    ]
                },
                "status": "completed",
                "route": {
                    "coding": [
                        {
                            "code": "C28161",
                            "display": "Intramuscular injection",
                            "system": "urn:oid:2.16.840.1.113883.3.26.1.1"
                        }
                    ]
                },
                "patient": {
                    "reference": "Patient/f40da2df-7505-315a-9acb-55513a02c37b"
                }
            },
            "request": {
                "method": "PUT",
                "url": "Immunization/d48358cf-d344-3620-9085-d291111dcbca"
            }
        },
        {
            "fullUrl": "urn:uuid:af70a2c3-dca1-34e1-8144-1c90e770a915",
            "resource": {
                "resourceType": "FamilyMemberHistory",
                "id": "af70a2c3-dca1-34e1-8144-1c90e770a915",
                "identifier": [
                    {
                        "system": "urn:ietf:rfc:3986",
                        "value": "urn:uuid:9123aedf-5315-4c3a-aeef-1e98319cc6b5"
                    }
                ],
                "status": "completed",
                "relationship": {
                    "coding": [
                        {
                            "code": "9947008",
                            "display": "Biological father",
                            "system": "http://snomed.info/sct"
                        }
                    ]
                },
                "sex": {
                    "coding": [
                        {
                            "code": "M",
                            "display": "Male",
                            "system": "urn:oid:2.16.840.1.113883.5.1"
                        }
                    ]
                },
                "bornString": "1910",
                "condition": [
                    {
                        "code": {
                            "coding": [
                                {
                                    "code": "22298006",
                                    "display": "Myocardial infarction",
                                    "system": "http://snomed.info/sct"
                                }
                            ]
                        },
                        "contributedToDeath": true,
                        "onsetAge": {
                            "value": 57,
                            "system": "http://unitsofmeasure.org",
                            "code": "a"
                        }
                    },
                    {
                        "code": {
                            "coding": [
                                {
                                    "code": "46635009",
                                    "display": "Diabetes mellitus type 1",
                                    "system": "http://snomed.info/sct"
                                }
                            ]
                        },
                        "onsetAge": {
                            "value": 40,
                            "system": "http://unitsofmeasure.org",
                            "code": "a"
                        }
                    }
                ],
                "patient": {
                    "reference": "Patient/f40da2df-7505-315a-9acb-55513a02c37b"
                }
            },
            "request": {
                "method": "PUT",
                "url": "FamilyMemberHistory/af70a2c3-dca1-34e1-8144-1c90e770a915"
            }
        },
        {
            "fullUrl": "urn:uuid:91b021fb-1615-3865-a2dc-24db891f7f88",
            "resource": {
                "resourceType": "DocumentReference",
                "id": "91b021fb-1615-3865-a2dc-24db891f7f88",
                "type": {
                    "coding": [
                        {
                            "code": "34117-2",
                            "display": "History and Physical Note",
                            "system": "http://loinc.org"
                        }
                    ]
                },
                "date": "2020-09-30T03:00:41.406Z",
                "status": "current",
                "content": [
                    {
                        "attachment": {
                            "contentType": "text/plain",
                            "data": "",
                            "hash": "HlXEL6BCZ2wqca7MikQBoO9jlmA="
                        }
                    }
                ]
            },
            "request": {
                "method": "PUT",
                "url": "DocumentReference/91b021fb-1615-3865-a2dc-24db891f7f88"
            }
        }
    ]
}